{
  "resourceType": "Bundle",
  "id": "9fd33349-a366-45a0-86b0-03d914073689",
  "meta": {
    "profile": [
      "http://hl7.eu/fhir/eps/StructureDefinition/bundle-eu-eps"
    ]
  },
  "identifier": {
    "assigner": {
      "display": "HL7 Europe"
    },
    "system": "urn:oid:2.16.840.1.113883.2.51.999",
    "value": "c6522ea5-428a-4a8c-ae2c-ff38b7d7c590"
  },
  "entry": [
    {
      "fullUrl": "urn:uuid:5909f392-9a4f-4a8e-9298-ec7b40ec3d6b",
      "resource": {
        "resourceType": "Composition",
        "id": "5909f392-9a4f-4a8e-9298-ec7b40ec3d6b",
        "meta": {
          "security": [
            {
              "system": "http://terminology.hl7.org/CodeSystem/v3-ActReason",
              "code": "HTEST"
            },
            {
              "system": "http://terminology.hl7.org/CodeSystem/v3-ActReason",
              "code": "TRAIN"
            }
          ],
          "tag": [
            {
              "system": "https://synderai.net/fhir/CodeSystem/tags",
              "code": "synthetic",
              "display": "SYNDERAI Synthetic data"
            }
          ],
          "profile": [
            "http://hl7.eu/fhir/eps/StructureDefinition/composition-eu-eps"
          ]
        },
        "identifier": {
          "assigner": {
            "display": "HL7 Europe"
          },
          "system": "urn:oid:2.16.840.1.113883.2.51.999",
          "value": "1b86b2e2-0eeb-4021-afec-65d1e1e3a01a"
        },
        "type": {
          "coding": [
            {
              "system": "http://loinc.org",
              "code": "60591-5",
              "display": "Patient summary Document"
            }
          ],
          "text": "Patient summary Document"
        },
        "author": [
          {
            "reference": "urn:uuid:e9896f61-829d-4aa3-bb0b-cc04e60131e7"
          }
        ],
        "section": [
          {
            "text": {
              "status": "generated",
              "div": "<div xmlns=\"http://www.w3.org/1999/xhtml\"><table class=\"hl7__ips\"><tr><th>Condition</th><th>Onset Date</th><th>Status</th></tr><tr><td>Essential hypertension</td><td><span class=\"nb\">26-Nov-2020</span></td><td>active</td></tr></table></div>"
            },
            "entry": [
              {
                "reference": "urn:uuid:10d53f02-cea7-4b70-a4d6-4b1524cb8d74"
              }
            ],
            "code": {
              "coding": [
                {
                  "system": "http://loinc.org",
                  "code": "11450-4",
                  "display": "Problem list - Reported"
                }
              ]
            },
            "title": "Problem list"
          },
          {
            "text": {
              "status": "generated",
              "div": "<div xmlns=\"http://www.w3.org/1999/xhtml\"><table class=\"hl7__ips\"><tr><th>Medication</th><th>Since</th><th>Form</th><th>Dosage</th><th>Reason</th></tr><tr><td>Lisinopril 10 mg oral tablet</td><td><span class=\"nb\">2024-12-26</span></td><td>-</td><td>1 tablet (10 mg) by mouth once daily</td><td>Essential hypertension (disorder)</td></tr></table></div>"
            },
            "entry": [
              {
                "reference": "urn:uuid:e496ab3b-8881-4817-a75b-5122ef1dd373"
              }
            ],
            "code": {
              "coding": [
                {
                  "system": "http://loinc.org",
                  "code": "10160-0",
                  "display": "History of Medication use Narrative"
                }
              ]
            },
            "title": "Medication list"
          },
          {
            "text": {
              "status": "generated",
              "div": "<div xmlns=\"http://www.w3.org/1999/xhtml\"><table class=\"hl7__ips\"><tr><th>Vaccine</th><th>Date</th></tr><tr><td>Influenza virus antigen only vaccine product</td><td><span class=\"nb\">26-Dec-2024</span></td></tr><tr><td>Clostridium tetani toxoid antigen adsorbed only vaccine product</td><td><span class=\"nb\">09-Dec-2021</span></td></tr><tr><td>SARS-CoV-2 mRNA vaccine</td><td><span class=\"nb\">11-Nov-2021</span></td></tr></table></div>"
            },
            "entry": [
              {
                "reference": "urn:uuid:4b6a1b8d-163a-488e-83b3-b6afad53a23d"
              },
              {
                "reference": "urn:uuid:3ca98cd6-2418-4d8b-8db1-ec8a2f7547ed"
              },
              {
                "reference": "urn:uuid:4a57e303-315f-4a66-b868-da160ec237ee"
              }
            ],
            "code": {
              "coding": [
                {
                  "system": "http://loinc.org",
                  "code": "11369-6",
                  "display": "History of Immunization note"
                }
              ]
            },
            "title": "Immunizations list"
          },
          {
            "text": {
              "status": "generated",
              "div": "<div xmlns=\"http://www.w3.org/1999/xhtml\"><table class=\"hl7__ips\"><tr><th>Procedure</th><th>Date</th><th>Reason</th></tr><tr><td>Depression screening</td><td><span class=\"nb\">26-Nov-2020</span></td><td>-</td></tr><tr><td>Assessment of health and social care needs</td><td><span class=\"nb\">26-Nov-2020</span></td><td>-</td></tr><tr><td>Assessment of anxiety</td><td><span class=\"nb\">26-Nov-2020</span></td><td>-</td></tr><tr><td>Screening for drug abuse</td><td><span class=\"nb\">26-Nov-2020</span></td><td>-</td></tr><tr><td>Screening for domestic abuse</td><td><span class=\"nb\">26-Nov-2020</span></td><td>-</td></tr><tr><td>Assessment of substance use</td><td><span class=\"nb\">26-Nov-2020</span></td><td>-</td></tr><tr><td>Depression screening using Patient Health Questionnaire Two-Item score (procedure)</td><td><span class=\"nb\">26-Nov-2020</span></td><td>-</td></tr></table></div>"
            },
            "entry": [
              {
                "reference": "urn:uuid:94b3b209-936b-4fa8-9fec-026ea4250730"
              },
              {
                "reference": "urn:uuid:60ca4a6a-f639-4e9f-98f8-40cff6592000"
              },
              {
                "reference": "urn:uuid:961bd8e2-2da0-4745-9914-3db83580b21e"
              },
              {
                "reference": "urn:uuid:cb31bcd8-6550-4ece-abd3-b059a6a55886"
              },
              {
                "reference": "urn:uuid:7bb05fbf-1190-4ba2-a0e8-390eecbc4260"
              },
              {
                "reference": "urn:uuid:92c7cb1e-f73c-447d-8e1e-d0aaa4b0daee"
              },
              {
                "reference": "urn:uuid:6346ec05-f047-4fd6-ba4a-869927895736"
              }
            ],
            "code": {
              "coding": [
                {
                  "system": "http://loinc.org",
                  "code": "47519-4",
                  "display": "History of Procedures Document"
                }
              ]
            },
            "title": "Procedure History list"
          },
          {
            "text": {
              "status": "generated",
              "div": "<div xmlns=\"http://www.w3.org/1999/xhtml\"><table class=\"hl7__ips\"><tr><th>Allergy/Intolerance</th><th>Onset Date</th><th>Status</th><th>Type</th><th>Reaction</th></tr><tr><td></td><td>?</td><td>active</td><td>?</td><td></td></tr></table></div>"
            },
            "entry": [
              {
                "reference": "urn:uuid:8dd43182-047d-4871-9c2d-9af0deaca9a1"
              }
            ],
            "code": {
              "coding": [
                {
                  "system": "http://loinc.org",
                  "code": "48765-2",
                  "display": "Allergies and adverse reactions Document"
                }
              ]
            },
            "title": "Allergies and Intolerances"
          },
          {
            "text": {
              "status": "generated",
              "div": "<div xmlns=\"http://www.w3.org/1999/xhtml\"><table class=\"hl7__ips\"><tr><th>Active Planned Care / Goals</th><th>Start Date</th><th>Reason</th></tr><tr><td>Lifestyle education regarding hypertension</td><td><span class=\"nb\">26-Nov-2020</span></td><td>Essential hypertension (disorder)</td></tr><tr><td><ul><li>Maintain blood pressure below 130/80 mmHg through lifestyle modifications.</li><li>Reduce daily sodium intake to less than 2.3 grams per day.</li><li>Engage in at least 150 minutes of moderate-intensity aerobic physical activity per week.</li></ul></td><td></td><td></td></tr></table></div>"
            },
            "entry": [
              {
                "reference": "urn:uuid:88e773ae-3d1a-4b40-bdb4-af357204c06f"
              }
            ],
            "code": {
              "coding": [
                {
                  "system": "http://loinc.org",
                  "code": "18776-5",
                  "display": "Plan of care note"
                }
              ]
            },
            "title": "Care Plan"
          },
          {
            "text": {
              "status": "generated",
              "div": "<div xmlns=\"http://www.w3.org/1999/xhtml\"><table class=\"hl7__ips\"><tr><th>Vital Signs</th><th>2024-12-26</th><th>2023-12-21</th></tr><tr><td>Body Height</td><td>185.6 cm</td><td>185.6 cm</td></tr><tr><td>Pain severity - 0-10 verbal numeric rating [Score] - Reported</td><td>0 {score}</td><td>1 {score}</td></tr><tr><td>Body Weight</td><td>90.5 kg</td><td>88.7 kg</td></tr><tr><td>Body mass index (BMI) [Ratio]</td><td>26.3 kg/m2</td><td>25.8 kg/m2</td></tr><tr><td>Diastolic Blood Pressure</td><td>109 mm[Hg]</td><td>111 mm[Hg]</td></tr><tr><td>Systolic Blood Pressure</td><td>136 mm[Hg]</td><td>140 mm[Hg]</td></tr><tr><td>Heart rate</td><td>91 /min</td><td>83 /min</td></tr><tr><td>Respiratory rate</td><td>14 /min</td><td>13 /min</td></tr></table></div>"
            },
            "entry": [
              {
                "reference": "urn:uuid:a9b90b6a-bb9d-456c-a13b-cd771bef2383"
              },
              {
                "reference": "urn:uuid:277c5d58-19b8-4e6c-ba7f-febc6df4aede"
              },
              {
                "reference": "urn:uuid:c652c21b-3376-492c-8a62-976d1b6c18ea"
              },
              {
                "reference": "urn:uuid:c619faca-1ec5-4406-ba2b-4532bac3788b"
              },
              {
                "reference": "urn:uuid:ddbf71eb-0657-4da5-aafa-e0d753791690"
              },
              {
                "reference": "urn:uuid:f19bbc39-e0d8-413a-918c-f3ea644c978a"
              },
              {
                "reference": "urn:uuid:56e9de5e-69a6-4864-9a1b-5ba4c74b1b53"
              },
              {
                "reference": "urn:uuid:47ed8b26-8f0b-41dd-b89f-267d739520df"
              },
              {
                "reference": "urn:uuid:f780f876-5f40-4829-9aa9-7b942b832dba"
              },
              {
                "reference": "urn:uuid:bb8ab459-be85-4b3b-bd4b-b92a3ce7c3dd"
              },
              {
                "reference": "urn:uuid:8e637a3a-9e62-4ec1-a75a-fd27aba02823"
              },
              {
                "reference": "urn:uuid:31fa4698-6eda-476a-bd9a-3a52395528c3"
              },
              {
                "reference": "urn:uuid:37d6cfce-1f23-468f-9070-b7f1ca37e803"
              },
              {
                "reference": "urn:uuid:8310bdee-00a9-4be3-ba20-50e9838b0b49"
              },
              {
                "reference": "urn:uuid:fb055ce8-63a4-437d-9f47-ff797d089a17"
              },
              {
                "reference": "urn:uuid:c5cb8eb9-1ecc-4fff-a11a-ada75a369635"
              }
            ],
            "code": {
              "coding": [
                {
                  "system": "http://loinc.org",
                  "code": "8716-3",
                  "display": "Vital signs note"
                }
              ]
            },
            "title": "Vital Signs"
          },
          {
            "text": {
              "status": "generated",
              "div": "<div xmlns=\"http://www.w3.org/1999/xhtml\"><table class=\"hl7__ips\"><table class=\"hl7__ips\"><thead><tr><th>Recent Lab Observations</th><th>21-DEC-2023</th><th>Reference&#xA0;Range</th><th>Unit</th></tr></thead><tbody><tr><td>Cholesterol [Mass/volume] in Serum or Plasma</td><td>175.4</td><td>125 - 200</td><td>mg/dL</td></tr><tr><td>Triglyceride [Mass/volume] in Serum or Plasma</td><td>100.3</td><td>40 - 150</td><td>mg/dL</td></tr><tr><td>Cholesterol in LDL [Mass/volume] in Serum or Plasma by Direct assay</td><td>103.0</td><td>0 - 130</td><td>mg/dL</td></tr><tr><td>Cholesterol in HDL [Mass/volume] in Serum or Plasma</td><td>52.4</td><td>40 - 60</td><td>mg/dL</td></tr><tr><td>Leukocytes [#/volume] in Blood by Automated count</td><td>5.3</td><td>3.5 - 10.5</td><td>10*3/uL</td></tr><tr><td>Erythrocytes [#/volume] in Blood by Automated count</td><td>4.6</td><td>4.5 - 5.5</td><td>10*6/uL</td></tr><tr><td>Hemoglobin [Mass/volume] in Blood</td><td>14.1</td><td>14 - 18</td><td>g/dL</td></tr><tr><td>Hematocrit [Volume Fraction] of Blood by Automated count</td><td><strong>37.1 L</strong></td><td>38 - 50</td><td>%</td></tr><tr><td>MCV [Entitic volume] by Automated count</td><td>82.0</td><td>80 - 98</td><td>fL</td></tr><tr><td>MCH [Entitic mass] by Automated count</td><td>28.4</td><td>27 - 34</td><td>pg</td></tr><tr><td>MCHC [Mass/volume] by Automated count</td><td>34.0</td><td>32 - 36</td><td>g/dL</td></tr><tr><td>Erythrocyte distribution width [Entitic volume] by Automated count</td><td>39.7</td><td>39 - 55</td><td>fL</td></tr><tr><td>Platelets [#/volume] in Blood by Automated count</td><td>231.5</td><td>150 - 400</td><td>10*3/uL</td></tr><tr><td>Platelet distribution width [Entitic volume] in Blood by Automated count</td><td><strong>236.3 H</strong></td><td>13.4 - 17.4</td><td>fL</td></tr><tr><td>Platelet mean volume [Entitic volume] in Blood by Automated count</td><td>12.3</td><td>7.2 - 13.8</td><td>fL</td></tr></tbody></table></table></div>"
            },
            "entry": [
              {
                "reference": "urn:uuid:dbd7ebbd-12e3-4aba-b0da-70f6a62fa3e9"
              },
              {
                "reference": "urn:uuid:95cd14f3-ec44-4047-8bb5-267bb68931e0"
              },
              {
                "reference": "urn:uuid:d3265440-2ec3-4eef-ad59-5f8ab7334e31"
              },
              {
                "reference": "urn:uuid:75fe9705-7de2-43c8-b09d-8722a1c9690c"
              },
              {
                "reference": "urn:uuid:e606e136-81d2-488e-a84e-52b759bfa28b"
              },
              {
                "reference": "urn:uuid:f18054e8-a2b9-4da9-826e-049e4256b1f5"
              },
              {
                "reference": "urn:uuid:bd7dbb0b-2760-444c-b262-2e7829f00ce6"
              },
              {
                "reference": "urn:uuid:73cf8cbb-e26a-422b-857a-e33e83e685c1"
              },
              {
                "reference": "urn:uuid:82c4ab84-98b7-4fce-89fe-a5130948efff"
              },
              {
                "reference": "urn:uuid:bd755523-ba4a-4db4-bbd7-ae955cd01696"
              },
              {
                "reference": "urn:uuid:df0076b3-fb7d-4a5d-8584-8a28b253bd38"
              },
              {
                "reference": "urn:uuid:a8295a71-44d2-43eb-8377-aa3f4f542785"
              },
              {
                "reference": "urn:uuid:3e7dbae1-ccb8-45d8-a30f-abdce92d32fe"
              },
              {
                "reference": "urn:uuid:0628e308-d5b7-413d-8a64-9800613c7c79"
              },
              {
                "reference": "urn:uuid:55f46b31-f51d-43f4-b42e-17e73a23130d"
              }
            ],
            "code": {
              "coding": [
                {
                  "system": "http://loinc.org",
                  "code": "30954-2",
                  "display": "Relevant diagnostic tests/laboratory data note"
                }
              ]
            },
            "title": "Relevant diagnostic tests/laboratory data"
          }
        ],
        "title": "European Patient Summary",
        "status": "final",
        "subject": {
          "reference": "urn:uuid:bb59953e-c42c-4d80-8b27-eff97c1d789b",
          "display": "Alberto Manrique"
        },
        "custodian": {
          "reference": "urn:uuid:850c360a-9e2c-456a-9f4e-8dd81bf4bcfa"
        },
        "date": "2023-12-21",
        "confidentiality": "N"
      }
    },
    {
      "fullUrl": "urn:uuid:bb59953e-c42c-4d80-8b27-eff97c1d789b",
      "resource": {
        "resourceType": "Patient",
        "id": "bb59953e-c42c-4d80-8b27-eff97c1d789b",
        "meta": {
          "security": [
            {
              "system": "http://terminology.hl7.org/CodeSystem/v3-ActReason",
              "code": "HTEST"
            },
            {
              "system": "http://terminology.hl7.org/CodeSystem/v3-ActReason",
              "code": "TRAIN"
            }
          ],
          "tag": [
            {
              "system": "https://synderai.net/fhir/CodeSystem/tags",
              "code": "synthetic",
              "display": "SYNDERAI Synthetic data"
            }
          ],
          "profile": [
            "http://hl7.eu/fhir/eps/StructureDefinition/patient-eu-eps"
          ]
        },
        "identifier": [
          {
            "type": {
              "coding": [
                {
                  "code": "PT",
                  "system": "http://terminology.hl7.org/CodeSystem/v2-0203"
                }
              ]
            },
            "system": "http://ec.europa.eu/identifier/eci",
            "value": "7218-581842-3"
          },
          {
            "type": {
              "coding": [
                {
                  "code": "MR",
                  "system": "http://terminology.hl7.org/CodeSystem/v2-0203"
                }
              ]
            },
            "system": "http://local.setting.eu/identifier",
            "value": "b6afc1e6-e260-fa0e-a335-1699bedecb9b"
          }
        ],
        "name": [
          {
            "family": "Manrique"
          },
          {
            "given": [
              "Alberto"
            ]
          },
          {
            "text": "Alberto Manrique"
          }
        ],
        "address": [
          {
            "line": [
              "Pasaje de Elisabet Rey 25"
            ],
            "use": "home",
            "type": "physical",
            "postalCode": "47001",
            "city": "Valladolid",
            "country": "Spain"
          }
        ],
        "telecom": [
          {
            "system": "phone",
            "value": "+34 827 76 55 59"
          }
        ],
        "extension": [
          {
            "url": "http://hl7.org/fhir/StructureDefinition/patient-nationality",
            "valueCodeableConcept": {
              "coding": [
                {
                  "code": "ES",
                  "system": "http://hl7.org/fhir/ValueSet/country"
                }
              ]
            }
          }
        ],
        "text": {
          "status": "generated",
          "div": "<div xmlns=\"http://www.w3.org/1999/xhtml\"><table class=\"hl7__ips\"><tr><td>Alberto Manrique</td><td>male</td><td>05-Apr-1993</td></tr></table></div>"
        },
        "gender": "male",
        "birthDate": "1993-04-05"
      }
    },
    {
      "fullUrl": "urn:uuid:e9896f61-829d-4aa3-bb0b-cc04e60131e7",
      "resource": {
        "resourceType": "PractitionerRole",
        "id": "e9896f61-829d-4aa3-bb0b-cc04e60131e7",
        "meta": {
          "profile": [
            "http://hl7.eu/fhir/base/StructureDefinition/practitionerRole-eu"
          ]
        },
        "text": {
          "status": "generated",
          "div": "<div xmlns=\"http://www.w3.org/1999/xhtml\"><table class=\"hl7__ips\">Provider Role Id e9896f61-829d-4aa3-bb0b-cc04e60131e7</table></div>"
        },
        "practitioner": {
          "reference": "urn:uuid:9f419ed9-b33e-485d-bd5e-e14e33b58747"
        },
        "organization": {
          "reference": "urn:uuid:850c360a-9e2c-456a-9f4e-8dd81bf4bcfa"
        }
      }
    },
    {
      "fullUrl": "urn:uuid:9f419ed9-b33e-485d-bd5e-e14e33b58747",
      "resource": {
        "resourceType": "Practitioner",
        "id": "9f419ed9-b33e-485d-bd5e-e14e33b58747",
        "meta": {
          "profile": [
            "http://hl7.eu/fhir/base/StructureDefinition/practitioner-eu"
          ]
        },
        "name": [
          {
            "prefix": [
              "Dr."
            ],
            "given": [
              "Hel"
            ],
            "family": "Ping"
          }
        ],
        "text": {
          "status": "generated",
          "div": "<div xmlns=\"http://www.w3.org/1999/xhtml\"><table class=\"hl7__ips\">Dr. Hel Ping</table></div>"
        }
      }
    },
    {
      "fullUrl": "urn:uuid:850c360a-9e2c-456a-9f4e-8dd81bf4bcfa",
      "resource": {
        "resourceType": "Organization",
        "id": "850c360a-9e2c-456a-9f4e-8dd81bf4bcfa",
        "meta": {
          "profile": [
            "http://hl7.eu/fhir/base/StructureDefinition/organization-eu"
          ]
        },
        "identifier": [
          {
            "assigner": {
              "display": "HL7 Europe"
            },
            "system": "urn:oid:2.16.840.1.113883.2.51.999",
            "value": "22ecb5ce-a24a-46fd-922f-f68a18cfa59d"
          }
        ],
        "address": [
          {
            "line": [
              "Calle de la Estación del Norte nan"
            ],
            "city": "Valladolid",
            "postalCode": "47007",
            "country": "Spain"
          }
        ],
        "text": {
          "status": "generated",
          "div": "<div xmlns=\"http://www.w3.org/1999/xhtml\"><table class=\"hl7__ips\">Hospital Recoletas Campo Grande</table></div>"
        },
        "name": "Hospital Recoletas Campo Grande"
      }
    },
    {
      "fullUrl": "urn:uuid:10d53f02-cea7-4b70-a4d6-4b1524cb8d74",
      "resource": {
        "resourceType": "Condition",
        "id": "10d53f02-cea7-4b70-a4d6-4b1524cb8d74",
        "meta": {
          "profile": [
            "http://hl7.org/fhir/uv/ips/StructureDefinition/Condition-uv-ips"
          ]
        },
        "category": [
          {
            "coding": [
              {
                "code": "problem-list-item",
                "system": "http://terminology.hl7.org/CodeSystem/condition-category",
                "display": "Problem List Item"
              }
            ]
          }
        ],
        "code": {
          "coding": [
            {
              "code": "59621000",
              "system": "http://snomed.info/sct",
              "display": "Essential hypertension (disorder)"
            }
          ],
          "text": "Essential hypertension"
        },
        "text": {
          "status": "generated",
          "div": "<div xmlns=\"http://www.w3.org/1999/xhtml\"><table class=\"hl7__ips\"><tr><td>Essential hypertension</td><td><span class=\"nb\">26-Nov-2020</span></td><td>active</td></tr></table></div>"
        },
        "onsetDateTime": "2020-11-26",
        "subject": {
          "reference": "urn:uuid:",
          "display": "Alberto Manrique"
        },
        "asserter": {
          "reference": "urn:uuid:",
          "display": "Hospital Recoletas Campo Grande"
        }
      }
    },
    {
      "fullUrl": "urn:uuid:c67dcace-21fc-46c0-92f6-a90012f84a33",
      "resource": {
        "resourceType": "Condition",
        "id": "c67dcace-21fc-46c0-92f6-a90012f84a33",
        "meta": {
          "profile": [
            "http://hl7.org/fhir/uv/ips/StructureDefinition/Condition-uv-ips"
          ]
        },
        "category": [
          {
            "coding": [
              {
                "code": "problem-list-item",
                "system": "http://terminology.hl7.org/CodeSystem/condition-category",
                "display": "Problem List Item"
              }
            ]
          }
        ],
        "code": {
          "coding": [
            {
              "code": "10509002",
              "system": "http://snomed.info/sct",
              "display": "Acute bronchitis (disorder)"
            }
          ],
          "text": "Acute bronchitis"
        },
        "text": {
          "status": "generated",
          "div": "<div xmlns=\"http://www.w3.org/1999/xhtml\"><table class=\"hl7__ips\"><tr><td><span class=\"grayedout\">Acute bronchitis</span></td><td><span class=\"nb\">19-Nov-2020 - 30-Nov-2020</span></td><td><span class=\"grayedout\">inactive</span></td></tr></table></div>"
        },
        "onsetDateTime": "2020-11-19",
        "abatementDateTime": "2020-11-30",
        "subject": {
          "reference": "urn:uuid:",
          "display": "Alberto Manrique"
        },
        "asserter": {
          "reference": "urn:uuid:",
          "display": "Hospital Recoletas Campo Grande"
        }
      }
    },
    {
      "fullUrl": "urn:uuid:6e51d882-e68a-4c27-a17a-0391b121e581",
      "resource": {
        "resourceType": "Condition",
        "id": "6e51d882-e68a-4c27-a17a-0391b121e581",
        "meta": {
          "profile": [
            "http://hl7.org/fhir/uv/ips/StructureDefinition/Condition-uv-ips"
          ]
        },
        "category": [
          {
            "coding": [
              {
                "code": "problem-list-item",
                "system": "http://terminology.hl7.org/CodeSystem/condition-category",
                "display": "Problem List Item"
              }
            ]
          }
        ],
        "code": {
          "coding": [
            {
              "code": "444814009",
              "system": "http://snomed.info/sct",
              "display": "Viral sinusitis (disorder)"
            }
          ],
          "text": "Viral sinusitis"
        },
        "text": {
          "status": "generated",
          "div": "<div xmlns=\"http://www.w3.org/1999/xhtml\"><table class=\"hl7__ips\"><tr><td><span class=\"grayedout\">Viral sinusitis</span></td><td><span class=\"nb\">07-Aug-2020 - 28-Aug-2020</span></td><td><span class=\"grayedout\">inactive</span></td></tr></table></div>"
        },
        "onsetDateTime": "2020-08-07",
        "abatementDateTime": "2020-08-28",
        "subject": {
          "reference": "urn:uuid:",
          "display": "Alberto Manrique"
        },
        "asserter": {
          "reference": "urn:uuid:",
          "display": "Hospital Recoletas Campo Grande"
        }
      }
    },
    {
      "fullUrl": "urn:uuid:9bd34408-cc4f-43e9-98a4-cf3f61ccc760",
      "resource": {
        "resourceType": "Medication",
        "id": "9bd34408-cc4f-43e9-98a4-cf3f61ccc760",
        "meta": {
          "profile": [
            "http://hl7.eu/fhir/eps/StructureDefinition/Medication-eu-eps"
          ]
        },
        "code": {
          "coding": [
            {
              "code": "318859000",
              "system": "http://snomed.info/sct",
              "display": "Lisinopril 10 mg oral tablet"
            }
          ],
          "text": "Lisinopril 10 mg oral tablet"
        },
        "text": {
          "status": "generated",
          "div": "<div xmlns=\"http://www.w3.org/1999/xhtml\">Lisinopril 10 mg oral tablet</div>"
        }
      }
    },
    {
      "fullUrl": "urn:uuid:e496ab3b-8881-4817-a75b-5122ef1dd373",
      "resource": {
        "resourceType": "MedicationStatement",
        "id": "e496ab3b-8881-4817-a75b-5122ef1dd373",
        "meta": {
          "profile": [
            "http://hl7.eu/fhir/eps/StructureDefinition/MedicationStatement-eu-eps"
          ]
        },
        "effectivePeriod": {
          "start": "2024-12-26"
        },
        "dosage": [
          {
            "doseAndRate": [
              {
                "doseQuantity": {
                  "value": 1,
                  "unit": "{tbl}",
                  "system": "$ucum",
                  "code": "{tbl}"
                }
              }
            ],
            "timing": {
              "repeat": {
                "frequency": 1,
                "period": 1,
                "periodUnit": "d"
              }
            },
            "text": "1 tablet (10 mg) by mouth once daily",
            "asNeededBoolean": false
          }
        ],
        "reasonCode": [
          {
            "coding": [
              {
                "code": "59621000",
                "system": "http://snomed.info/sct",
                "display": "Essential hypertension (disorder)"
              }
            ]
          }
        ],
        "text": {
          "status": "generated",
          "div": "<div xmlns=\"http://www.w3.org/1999/xhtml\"><table class=\"hl7__ips first25\"><tr><th>Medication</th><th>Since</th><th>Form</th><th>Dosage</th><th>Reason</th></tr><tr><td>Lisinopril 10 mg oral tablet</td><td><span class=\"nb\">2024-12-26</span></td><td>-</td><td>1 tablet (10 mg) by mouth once daily</td><td>Essential hypertension (disorder)</td></tr></table></div>"
        },
        "status": "active",
        "medicationReference": {
          "reference": "urn:uuid:9bd34408-cc4f-43e9-98a4-cf3f61ccc760",
          "display": "Lisinopril 10 mg oral tablet"
        },
        "subject": {
          "reference": "urn:uuid:bb59953e-c42c-4d80-8b27-eff97c1d789b",
          "display": "Alberto Manrique"
        }
      }
    },
    {
      "fullUrl": "urn:uuid:4b6a1b8d-163a-488e-83b3-b6afad53a23d",
      "resource": {
        "resourceType": "Immunization",
        "id": "4b6a1b8d-163a-488e-83b3-b6afad53a23d",
        "meta": {
          "profile": [
            "http://hl7.org/fhir/uv/ips/StructureDefinition/Immunization-uv-ips"
          ]
        },
        "vaccineCode": {
          "coding": [
            {
              "code": "1181000221105",
              "system": "http://snomed.info/sct",
              "display": "Vaccine product containing Influenza virus antigen"
            },
            {
              "code": "J07BB02",
              "system": "http://www.whocc.no/atc",
              "display": "Influenza, inactivated, split virus"
            }
          ],
          "text": "Influenza virus antigen only vaccine product"
        },
        "site": {
          "coding": [
            {
              "code": "244979005",
              "system": "http://snomed.info/sct",
              "display": "Entire muscle of upper arm"
            }
          ],
          "text": "Entire muscle of upper arm"
        },
        "route": {
          "coding": [
            {
              "code": "78421000",
              "system": "http://snomed.info/sct",
              "display": "Intramuscular route"
            }
          ],
          "text": "Intramuscular route"
        },
        "text": {
          "status": "generated",
          "div": "<div xmlns=\"http://www.w3.org/1999/xhtml\"><table class=\"hl7__ips\"><tr><td>Influenza virus antigen only vaccine product</td><td><span class=\"nb\">26-Dec-2024</span></td></tr></table></div>"
        },
        "status": "completed",
        "patient": {
          "reference": "urn:uuid:bb59953e-c42c-4d80-8b27-eff97c1d789b",
          "display": "Alberto Manrique"
        },
        "occurrenceDateTime": "2024-12-26",
        "lotNumber": "GU-68dEsxc",
        "expirationDate": "2025-10-08"
      }
    },
    {
      "fullUrl": "urn:uuid:3ca98cd6-2418-4d8b-8db1-ec8a2f7547ed",
      "resource": {
        "resourceType": "Immunization",
        "id": "3ca98cd6-2418-4d8b-8db1-ec8a2f7547ed",
        "meta": {
          "profile": [
            "http://hl7.org/fhir/uv/ips/StructureDefinition/Immunization-uv-ips"
          ]
        },
        "vaccineCode": {
          "coding": [
            {
              "code": "777725002",
              "system": "http://snomed.info/sct",
              "display": "Vaccine product containing only Clostridium tetani toxoid antigen adsorbed"
            },
            {
              "code": "J07AM51",
              "system": "http://www.whocc.no/atc",
              "display": "Diphtheria-tetanus vaccines, adult type"
            }
          ],
          "text": "Clostridium tetani toxoid antigen adsorbed only vaccine product"
        },
        "site": {
          "coding": [
            {
              "code": "244979005",
              "system": "http://snomed.info/sct",
              "display": "Entire muscle of upper arm"
            }
          ],
          "text": "Entire muscle of upper arm"
        },
        "route": {
          "coding": [
            {
              "code": "78421000",
              "system": "http://snomed.info/sct",
              "display": "Intramuscular route"
            }
          ],
          "text": "Intramuscular route"
        },
        "text": {
          "status": "generated",
          "div": "<div xmlns=\"http://www.w3.org/1999/xhtml\"><table class=\"hl7__ips\"><tr><td>Clostridium tetani toxoid antigen adsorbed only vaccine product</td><td><span class=\"nb\">09-Dec-2021</span></td></tr></table></div>"
        },
        "status": "completed",
        "patient": {
          "reference": "urn:uuid:bb59953e-c42c-4d80-8b27-eff97c1d789b",
          "display": "Alberto Manrique"
        },
        "occurrenceDateTime": "2021-12-09",
        "lotNumber": "UA-a7oe5sH",
        "expirationDate": "2022-08-15"
      }
    },
    {
      "fullUrl": "urn:uuid:4a57e303-315f-4a66-b868-da160ec237ee",
      "resource": {
        "resourceType": "Immunization",
        "id": "4a57e303-315f-4a66-b868-da160ec237ee",
        "meta": {
          "profile": [
            "http://hl7.org/fhir/uv/ips/StructureDefinition/Immunization-uv-ips"
          ]
        },
        "vaccineCode": {
          "coding": [
            {
              "code": "1119349007",
              "system": "http://snomed.info/sct",
              "display": "Vaccine product containing SARS-CoV-2 mRNA"
            },
            {
              "code": "J07BX03",
              "system": "http://www.whocc.no/atc",
              "display": "COVID-19 mRNA vaccines"
            }
          ],
          "text": "SARS-CoV-2 mRNA vaccine"
        },
        "site": {
          "coding": [
            {
              "code": "244979005",
              "system": "http://snomed.info/sct",
              "display": "Entire muscle of upper arm"
            }
          ],
          "text": "Entire muscle of upper arm"
        },
        "route": {
          "coding": [
            {
              "code": "78421000",
              "system": "http://snomed.info/sct",
              "display": "Intramuscular route"
            }
          ],
          "text": "Intramuscular route"
        },
        "text": {
          "status": "generated",
          "div": "<div xmlns=\"http://www.w3.org/1999/xhtml\"><table class=\"hl7__ips\"><tr><td>SARS-CoV-2 mRNA vaccine</td><td><span class=\"nb\">11-Nov-2021</span></td></tr></table></div>"
        },
        "status": "completed",
        "patient": {
          "reference": "urn:uuid:bb59953e-c42c-4d80-8b27-eff97c1d789b",
          "display": "Alberto Manrique"
        },
        "occurrenceDateTime": "2021-11-11",
        "lotNumber": "KM-OG10",
        "expirationDate": "2022-01-14"
      }
    },
    {
      "fullUrl": "urn:uuid:94b3b209-936b-4fa8-9fec-026ea4250730",
      "resource": {
        "resourceType": "Procedure",
        "id": "94b3b209-936b-4fa8-9fec-026ea4250730",
        "meta": {
          "profile": [
            "http://hl7.org/fhir/uv/ips/StructureDefinition/Procedure-uv-ips"
          ]
        },
        "code": {
          "coding": [
            {
              "code": "171207006",
              "system": "http://snomed.info/sct",
              "display": "Depression screening (procedure)"
            }
          ],
          "text": "Depression screening"
        },
        "text": {
          "status": "generated",
          "div": "<div xmlns=\"http://www.w3.org/1999/xhtml\"><table class=\"hl7__ips\"><tr><td>Depression screening</td><td><span class=\"nb\">26-Nov-2020</span></td><td>-</td></tr></table></div>"
        },
        "status": "completed",
        "performedDateTime": "2020-11-26",
        "subject": {
          "reference": "urn:uuid:",
          "display": "Alberto Manrique"
        }
      }
    },
    {
      "fullUrl": "urn:uuid:60ca4a6a-f639-4e9f-98f8-40cff6592000",
      "resource": {
        "resourceType": "Procedure",
        "id": "60ca4a6a-f639-4e9f-98f8-40cff6592000",
        "meta": {
          "profile": [
            "http://hl7.org/fhir/uv/ips/StructureDefinition/Procedure-uv-ips"
          ]
        },
        "code": {
          "coding": [
            {
              "code": "710824005",
              "system": "http://snomed.info/sct",
              "display": "Assessment of health and social care needs (procedure)"
            }
          ],
          "text": "Assessment of health and social care needs"
        },
        "text": {
          "status": "generated",
          "div": "<div xmlns=\"http://www.w3.org/1999/xhtml\"><table class=\"hl7__ips\"><tr><td>Assessment of health and social care needs</td><td><span class=\"nb\">26-Nov-2020</span></td><td>-</td></tr></table></div>"
        },
        "status": "completed",
        "performedDateTime": "2020-11-26",
        "subject": {
          "reference": "urn:uuid:",
          "display": "Alberto Manrique"
        }
      }
    },
    {
      "fullUrl": "urn:uuid:961bd8e2-2da0-4745-9914-3db83580b21e",
      "resource": {
        "resourceType": "Procedure",
        "id": "961bd8e2-2da0-4745-9914-3db83580b21e",
        "meta": {
          "profile": [
            "http://hl7.org/fhir/uv/ips/StructureDefinition/Procedure-uv-ips"
          ]
        },
        "code": {
          "coding": [
            {
              "code": "710841007",
              "system": "http://snomed.info/sct",
              "display": "Assessment of anxiety (procedure)"
            }
          ],
          "text": "Assessment of anxiety"
        },
        "text": {
          "status": "generated",
          "div": "<div xmlns=\"http://www.w3.org/1999/xhtml\"><table class=\"hl7__ips\"><tr><td>Assessment of anxiety</td><td><span class=\"nb\">26-Nov-2020</span></td><td>-</td></tr></table></div>"
        },
        "status": "completed",
        "performedDateTime": "2020-11-26",
        "subject": {
          "reference": "urn:uuid:",
          "display": "Alberto Manrique"
        }
      }
    },
    {
      "fullUrl": "urn:uuid:cb31bcd8-6550-4ece-abd3-b059a6a55886",
      "resource": {
        "resourceType": "Procedure",
        "id": "cb31bcd8-6550-4ece-abd3-b059a6a55886",
        "meta": {
          "profile": [
            "http://hl7.org/fhir/uv/ips/StructureDefinition/Procedure-uv-ips"
          ]
        },
        "code": {
          "coding": [
            {
              "code": "713106006",
              "system": "http://snomed.info/sct",
              "display": "Screening for drug abuse (procedure)"
            }
          ],
          "text": "Screening for drug abuse"
        },
        "text": {
          "status": "generated",
          "div": "<div xmlns=\"http://www.w3.org/1999/xhtml\"><table class=\"hl7__ips\"><tr><td>Screening for drug abuse</td><td><span class=\"nb\">26-Nov-2020</span></td><td>-</td></tr></table></div>"
        },
        "status": "completed",
        "performedDateTime": "2020-11-26",
        "subject": {
          "reference": "urn:uuid:",
          "display": "Alberto Manrique"
        }
      }
    },
    {
      "fullUrl": "urn:uuid:7bb05fbf-1190-4ba2-a0e8-390eecbc4260",
      "resource": {
        "resourceType": "Procedure",
        "id": "7bb05fbf-1190-4ba2-a0e8-390eecbc4260",
        "meta": {
          "profile": [
            "http://hl7.org/fhir/uv/ips/StructureDefinition/Procedure-uv-ips"
          ]
        },
        "code": {
          "coding": [
            {
              "code": "866148006",
              "system": "http://snomed.info/sct",
              "display": "Screening for domestic abuse (procedure)"
            }
          ],
          "text": "Screening for domestic abuse"
        },
        "text": {
          "status": "generated",
          "div": "<div xmlns=\"http://www.w3.org/1999/xhtml\"><table class=\"hl7__ips\"><tr><td>Screening for domestic abuse</td><td><span class=\"nb\">26-Nov-2020</span></td><td>-</td></tr></table></div>"
        },
        "status": "completed",
        "performedDateTime": "2020-11-26",
        "subject": {
          "reference": "urn:uuid:",
          "display": "Alberto Manrique"
        }
      }
    },
    {
      "fullUrl": "urn:uuid:92c7cb1e-f73c-447d-8e1e-d0aaa4b0daee",
      "resource": {
        "resourceType": "Procedure",
        "id": "92c7cb1e-f73c-447d-8e1e-d0aaa4b0daee",
        "meta": {
          "profile": [
            "http://hl7.org/fhir/uv/ips/StructureDefinition/Procedure-uv-ips"
          ]
        },
        "code": {
          "coding": [
            {
              "code": "428211000124100",
              "system": "http://snomed.info/sct",
              "display": "Assessment of substance use (procedure)"
            }
          ],
          "text": "Assessment of substance use"
        },
        "text": {
          "status": "generated",
          "div": "<div xmlns=\"http://www.w3.org/1999/xhtml\"><table class=\"hl7__ips\"><tr><td>Assessment of substance use</td><td><span class=\"nb\">26-Nov-2020</span></td><td>-</td></tr></table></div>"
        },
        "status": "completed",
        "performedDateTime": "2020-11-26",
        "subject": {
          "reference": "urn:uuid:",
          "display": "Alberto Manrique"
        }
      }
    },
    {
      "fullUrl": "urn:uuid:6346ec05-f047-4fd6-ba4a-869927895736",
      "resource": {
        "resourceType": "Procedure",
        "id": "6346ec05-f047-4fd6-ba4a-869927895736",
        "meta": {
          "profile": [
            "http://hl7.org/fhir/uv/ips/StructureDefinition/Procedure-uv-ips"
          ]
        },
        "code": {
          "coding": [
            {
              "code": "454711000124102",
              "system": "http://snomed.info/sct",
              "display": "Depression screening using Patient Health Questionnaire Two-Item score (procedure)"
            }
          ]
        },
        "text": {
          "status": "generated",
          "div": "<div xmlns=\"http://www.w3.org/1999/xhtml\"><table class=\"hl7__ips\"><tr><td>Depression screening using Patient Health Questionnaire Two-Item score (procedure)</td><td><span class=\"nb\">26-Nov-2020</span></td><td>-</td></tr></table></div>"
        },
        "status": "completed",
        "performedDateTime": "2020-11-26",
        "subject": {
          "reference": "urn:uuid:",
          "display": "Alberto Manrique"
        }
      }
    },
    {
      "fullUrl": "urn:uuid:8dd43182-047d-4871-9c2d-9af0deaca9a1",
      "resource": {
        "resourceType": "AllergyIntolerance",
        "id": "8dd43182-047d-4871-9c2d-9af0deaca9a1",
        "meta": {
          "profile": [
            "http://hl7.eu/fhir/eps/StructureDefinition/allergyIntolerance-eu-eps"
          ]
        },
        "code": {
          "text": ""
        },
        "clinicalStatus": {
          "coding": [
            {
              "code": "active",
              "system": "http://terminology.hl7.org/CodeSystem/allergyintolerance-clinical"
            }
          ]
        },
        "text": {
          "status": "generated",
          "div": "<div xmlns=\"http://www.w3.org/1999/xhtml\"><table class=\"hl7__ips\"><tr><th>Allergy/Intolerance</th><th>Onset Date</th><th>Status</th><th>Type</th><th>Reaction</th></tr><tr><td></td><td>?</td><td>active</td><td>?</td><td></td></tr></table></div>"
        },
        "verificationStatus": {
          "coding": [
            {
              "code": "confirmed",
              "system": "http://terminology.hl7.org/CodeSystem/allergyintolerance-verification"
            }
          ]
        },
        "patient": {
          "reference": "urn:uuid:bb59953e-c42c-4d80-8b27-eff97c1d789b",
          "display": "Alberto Manrique"
        },
        "_onsetDateTime": {
          "extension": [
            {
              "url": "http://hl7.org/fhir/StructureDefinition/data-absent-reason",
              "valueCode": "unknown"
            }
          ]
        }
      }
    },
    {
      "fullUrl": "urn:uuid:88e773ae-3d1a-4b40-bdb4-af357204c06f",
      "resource": {
        "resourceType": "CarePlan",
        "id": "88e773ae-3d1a-4b40-bdb4-af357204c06f",
        "category": [
          {
            "coding": [
              {
                "code": "assess-plan",
                "system": "http://terminology.hl7.org/CodeSystem/care-plan-category",
                "display": "Assessment and Plan"
              }
            ]
          }
        ],
        "activity": [
          {
            "detail": {
              "code": {
                "coding": [
                  {
                    "code": "443402002",
                    "system": "http://snomed.info/sct",
                    "display": "Lifestyle education regarding hypertension (procedure)"
                  }
                ]
              },
              "reasonCode": [
                {
                  "coding": [
                    {
                      "code": "59621000",
                      "system": "http://snomed.info/sct",
                      "display": "Essential hypertension (disorder)"
                    }
                  ]
                }
              ],
              "status": "unknown",
              "description": "Lifestyle education regarding hypertension",
              "kind": "Appointment"
            }
          }
        ],
        "period": {
          "start": "2020-11-26"
        },
        "goal": [
          {
            "reference": "urn:uuid:c9708fb8-d0b5-409f-a303-009831868303"
          },
          {
            "reference": "urn:uuid:834e38e8-e64f-4116-b16f-a5dea8810f49"
          },
          {
            "reference": "urn:uuid:a671e6c8-404f-4f81-a4ff-f780ef6c93bc"
          }
        ],
        "text": {
          "status": "generated",
          "div": "<div xmlns=\"http://www.w3.org/1999/xhtml\"><table class=\"hl7__ips first25\"><tr><th>Active Planned Care / Goals</th><th>Start Date</th><th>Reason</th></tr><tr><td>Lifestyle education regarding hypertension</td><td><span class=\"nb\">26-Nov-2020</span></td><td>Essential hypertension (disorder)</td></tr><tr><td><ul><li>Maintain blood pressure below 130/80 mmHg through lifestyle modifications.</li><li>Reduce daily sodium intake to less than 2.3 grams per day.</li><li>Engage in at least 150 minutes of moderate-intensity aerobic physical activity per week.</li></ul></td><td></td><td></td></tr></table></div>"
        },
        "status": "active",
        "intent": "plan",
        "subject": {
          "reference": "urn:uuid:bb59953e-c42c-4d80-8b27-eff97c1d789b",
          "display": "Alberto Manrique"
        }
      }
    },
    {
      "fullUrl": "urn:uuid:a9b90b6a-bb9d-456c-a13b-cd771bef2383",
      "resource": {
        "resourceType": "Observation",
        "id": "a9b90b6a-bb9d-456c-a13b-cd771bef2383",
        "meta": {
          "profile": [
            "http://hl7.org/fhir/StructureDefinition/vitalsigns"
          ]
        },
        "category": [
          {
            "coding": [
              {
                "system": "http://terminology.hl7.org/CodeSystem/observation-category",
                "code": "vital-signs",
                "display": "Vital Signs"
              }
            ]
          }
        ],
        "valueQuantity": {
          "value": 185.6,
          "code": "cm",
          "unit": "cm"
        },
        "text": {
          "status": "generated",
          "div": "<div xmlns=\"http://www.w3.org/1999/xhtml\"><table class=\"hl7__ips\"><tr><th>Vital Sign</th><th>Date</th><th>Measurement</th></tr><tr><td>Body Height</td><td>26-Dec-2024</td><td>185.6 cm</td></tr></table></div>"
        },
        "status": "final",
        "code": {
          "coding": [
            {
              "code": "$8302-2",
              "system": "http://loinc.org",
              "display": "Body Height"
            }
          ]
        },
        "subject": {
          "reference": "urn:uuid:bb59953e-c42c-4d80-8b27-eff97c1d789b",
          "display": "Alberto Manrique"
        },
        "effectiveDateTime": "2024-12-26"
      }
    },
    {
      "fullUrl": "urn:uuid:277c5d58-19b8-4e6c-ba7f-febc6df4aede",
      "resource": {
        "resourceType": "Observation",
        "id": "277c5d58-19b8-4e6c-ba7f-febc6df4aede",
        "meta": {
          "profile": [
            "http://hl7.org/fhir/StructureDefinition/vitalsigns"
          ]
        },
        "category": [
          {
            "coding": [
              {
                "system": "http://terminology.hl7.org/CodeSystem/observation-category",
                "code": "vital-signs",
                "display": "Vital Signs"
              }
            ]
          }
        ],
        "valueQuantity": {
          "value": 0,
          "code": "{score}",
          "unit": "{score}"
        },
        "text": {
          "status": "generated",
          "div": "<div xmlns=\"http://www.w3.org/1999/xhtml\"><table class=\"hl7__ips\"><tr><th>Vital Sign</th><th>Date</th><th>Measurement</th></tr><tr><td>Pain severity - 0-10 verbal numeric rating [Score] - Reported</td><td>26-Dec-2024</td><td>0 {score}</td></tr></table></div>"
        },
        "status": "final",
        "code": {
          "coding": [
            {
              "code": "$72514-3",
              "system": "http://loinc.org",
              "display": "Pain severity - 0-10 verbal numeric rating [Score] - Reported"
            }
          ]
        },
        "subject": {
          "reference": "urn:uuid:bb59953e-c42c-4d80-8b27-eff97c1d789b",
          "display": "Alberto Manrique"
        },
        "effectiveDateTime": "2024-12-26"
      }
    },
    {
      "fullUrl": "urn:uuid:c652c21b-3376-492c-8a62-976d1b6c18ea",
      "resource": {
        "resourceType": "Observation",
        "id": "c652c21b-3376-492c-8a62-976d1b6c18ea",
        "meta": {
          "profile": [
            "http://hl7.org/fhir/StructureDefinition/vitalsigns"
          ]
        },
        "category": [
          {
            "coding": [
              {
                "system": "http://terminology.hl7.org/CodeSystem/observation-category",
                "code": "vital-signs",
                "display": "Vital Signs"
              }
            ]
          }
        ],
        "valueQuantity": {
          "value": 90.5,
          "code": "kg",
          "unit": "kg"
        },
        "text": {
          "status": "generated",
          "div": "<div xmlns=\"http://www.w3.org/1999/xhtml\"><table class=\"hl7__ips\"><tr><th>Vital Sign</th><th>Date</th><th>Measurement</th></tr><tr><td>Body Weight</td><td>26-Dec-2024</td><td>90.5 kg</td></tr></table></div>"
        },
        "status": "final",
        "code": {
          "coding": [
            {
              "code": "$29463-7",
              "system": "http://loinc.org",
              "display": "Body Weight"
            }
          ]
        },
        "subject": {
          "reference": "urn:uuid:bb59953e-c42c-4d80-8b27-eff97c1d789b",
          "display": "Alberto Manrique"
        },
        "effectiveDateTime": "2024-12-26"
      }
    },
    {
      "fullUrl": "urn:uuid:c619faca-1ec5-4406-ba2b-4532bac3788b",
      "resource": {
        "resourceType": "Observation",
        "id": "c619faca-1ec5-4406-ba2b-4532bac3788b",
        "meta": {
          "profile": [
            "http://hl7.org/fhir/StructureDefinition/vitalsigns"
          ]
        },
        "category": [
          {
            "coding": [
              {
                "system": "http://terminology.hl7.org/CodeSystem/observation-category",
                "code": "vital-signs",
                "display": "Vital Signs"
              }
            ]
          }
        ],
        "valueQuantity": {
          "value": 26.3,
          "code": "kg/m2",
          "unit": "kg/m2"
        },
        "text": {
          "status": "generated",
          "div": "<div xmlns=\"http://www.w3.org/1999/xhtml\"><table class=\"hl7__ips\"><tr><th>Vital Sign</th><th>Date</th><th>Measurement</th></tr><tr><td>Body mass index (BMI) [Ratio]</td><td>26-Dec-2024</td><td>26.3 kg/m2</td></tr></table></div>"
        },
        "status": "final",
        "code": {
          "coding": [
            {
              "code": "$39156-5",
              "system": "http://loinc.org",
              "display": "Body mass index (BMI) [Ratio]"
            }
          ]
        },
        "subject": {
          "reference": "urn:uuid:bb59953e-c42c-4d80-8b27-eff97c1d789b",
          "display": "Alberto Manrique"
        },
        "effectiveDateTime": "2024-12-26"
      }
    },
    {
      "fullUrl": "urn:uuid:ddbf71eb-0657-4da5-aafa-e0d753791690",
      "resource": {
        "resourceType": "Observation",
        "id": "ddbf71eb-0657-4da5-aafa-e0d753791690",
        "meta": {
          "profile": [
            "http://hl7.org/fhir/StructureDefinition/vitalsigns"
          ]
        },
        "category": [
          {
            "coding": [
              {
                "system": "http://terminology.hl7.org/CodeSystem/observation-category",
                "code": "vital-signs",
                "display": "Vital Signs"
              }
            ]
          }
        ],
        "valueQuantity": {
          "value": 109,
          "code": "mm[Hg]",
          "unit": "mm[Hg]"
        },
        "text": {
          "status": "generated",
          "div": "<div xmlns=\"http://www.w3.org/1999/xhtml\"><table class=\"hl7__ips\"><tr><th>Vital Sign</th><th>Date</th><th>Measurement</th></tr><tr><td>Diastolic Blood Pressure</td><td>26-Dec-2024</td><td>109 mm[Hg]</td></tr></table></div>"
        },
        "status": "final",
        "code": {
          "coding": [
            {
              "code": "$8462-4",
              "system": "http://loinc.org",
              "display": "Diastolic Blood Pressure"
            }
          ]
        },
        "subject": {
          "reference": "urn:uuid:bb59953e-c42c-4d80-8b27-eff97c1d789b",
          "display": "Alberto Manrique"
        },
        "effectiveDateTime": "2024-12-26"
      }
    },
    {
      "fullUrl": "urn:uuid:f19bbc39-e0d8-413a-918c-f3ea644c978a",
      "resource": {
        "resourceType": "Observation",
        "id": "f19bbc39-e0d8-413a-918c-f3ea644c978a",
        "meta": {
          "profile": [
            "http://hl7.org/fhir/StructureDefinition/vitalsigns"
          ]
        },
        "category": [
          {
            "coding": [
              {
                "system": "http://terminology.hl7.org/CodeSystem/observation-category",
                "code": "vital-signs",
                "display": "Vital Signs"
              }
            ]
          }
        ],
        "valueQuantity": {
          "value": 136,
          "code": "mm[Hg]",
          "unit": "mm[Hg]"
        },
        "text": {
          "status": "generated",
          "div": "<div xmlns=\"http://www.w3.org/1999/xhtml\"><table class=\"hl7__ips\"><tr><th>Vital Sign</th><th>Date</th><th>Measurement</th></tr><tr><td>Systolic Blood Pressure</td><td>26-Dec-2024</td><td>136 mm[Hg]</td></tr></table></div>"
        },
        "status": "final",
        "code": {
          "coding": [
            {
              "code": "$8480-6",
              "system": "http://loinc.org",
              "display": "Systolic Blood Pressure"
            }
          ]
        },
        "subject": {
          "reference": "urn:uuid:bb59953e-c42c-4d80-8b27-eff97c1d789b",
          "display": "Alberto Manrique"
        },
        "effectiveDateTime": "2024-12-26"
      }
    },
    {
      "fullUrl": "urn:uuid:56e9de5e-69a6-4864-9a1b-5ba4c74b1b53",
      "resource": {
        "resourceType": "Observation",
        "id": "56e9de5e-69a6-4864-9a1b-5ba4c74b1b53",
        "meta": {
          "profile": [
            "http://hl7.org/fhir/StructureDefinition/vitalsigns"
          ]
        },
        "category": [
          {
            "coding": [
              {
                "system": "http://terminology.hl7.org/CodeSystem/observation-category",
                "code": "vital-signs",
                "display": "Vital Signs"
              }
            ]
          }
        ],
        "valueQuantity": {
          "value": 91,
          "code": "/min",
          "unit": "/min"
        },
        "text": {
          "status": "generated",
          "div": "<div xmlns=\"http://www.w3.org/1999/xhtml\"><table class=\"hl7__ips\"><tr><th>Vital Sign</th><th>Date</th><th>Measurement</th></tr><tr><td>Heart rate</td><td>26-Dec-2024</td><td>91 /min</td></tr></table></div>"
        },
        "status": "final",
        "code": {
          "coding": [
            {
              "code": "$8867-4",
              "system": "http://loinc.org",
              "display": "Heart rate"
            }
          ]
        },
        "subject": {
          "reference": "urn:uuid:bb59953e-c42c-4d80-8b27-eff97c1d789b",
          "display": "Alberto Manrique"
        },
        "effectiveDateTime": "2024-12-26"
      }
    },
    {
      "fullUrl": "urn:uuid:47ed8b26-8f0b-41dd-b89f-267d739520df",
      "resource": {
        "resourceType": "Observation",
        "id": "47ed8b26-8f0b-41dd-b89f-267d739520df",
        "meta": {
          "profile": [
            "http://hl7.org/fhir/StructureDefinition/vitalsigns"
          ]
        },
        "category": [
          {
            "coding": [
              {
                "system": "http://terminology.hl7.org/CodeSystem/observation-category",
                "code": "vital-signs",
                "display": "Vital Signs"
              }
            ]
          }
        ],
        "valueQuantity": {
          "value": 14,
          "code": "/min",
          "unit": "/min"
        },
        "text": {
          "status": "generated",
          "div": "<div xmlns=\"http://www.w3.org/1999/xhtml\"><table class=\"hl7__ips\"><tr><th>Vital Sign</th><th>Date</th><th>Measurement</th></tr><tr><td>Respiratory rate</td><td>26-Dec-2024</td><td>14 /min</td></tr></table></div>"
        },
        "status": "final",
        "code": {
          "coding": [
            {
              "code": "$9279-1",
              "system": "http://loinc.org",
              "display": "Respiratory rate"
            }
          ]
        },
        "subject": {
          "reference": "urn:uuid:bb59953e-c42c-4d80-8b27-eff97c1d789b",
          "display": "Alberto Manrique"
        },
        "effectiveDateTime": "2024-12-26"
      }
    },
    {
      "fullUrl": "urn:uuid:f780f876-5f40-4829-9aa9-7b942b832dba",
      "resource": {
        "resourceType": "Observation",
        "id": "f780f876-5f40-4829-9aa9-7b942b832dba",
        "meta": {
          "profile": [
            "http://hl7.org/fhir/StructureDefinition/vitalsigns"
          ]
        },
        "category": [
          {
            "coding": [
              {
                "system": "http://terminology.hl7.org/CodeSystem/observation-category",
                "code": "vital-signs",
                "display": "Vital Signs"
              }
            ]
          }
        ],
        "valueQuantity": {
          "value": 185.6,
          "code": "cm",
          "unit": "cm"
        },
        "text": {
          "status": "generated",
          "div": "<div xmlns=\"http://www.w3.org/1999/xhtml\"><table class=\"hl7__ips\"><tr><th>Vital Sign</th><th>Date</th><th>Measurement</th></tr><tr><td>Body Height</td><td>21-Dec-2023</td><td>185.6 cm</td></tr></table></div>"
        },
        "status": "final",
        "code": {
          "coding": [
            {
              "code": "$8302-2",
              "system": "http://loinc.org",
              "display": "Body Height"
            }
          ]
        },
        "subject": {
          "reference": "urn:uuid:bb59953e-c42c-4d80-8b27-eff97c1d789b",
          "display": "Alberto Manrique"
        },
        "effectiveDateTime": "2023-12-21"
      }
    },
    {
      "fullUrl": "urn:uuid:bb8ab459-be85-4b3b-bd4b-b92a3ce7c3dd",
      "resource": {
        "resourceType": "Observation",
        "id": "bb8ab459-be85-4b3b-bd4b-b92a3ce7c3dd",
        "meta": {
          "profile": [
            "http://hl7.org/fhir/StructureDefinition/vitalsigns"
          ]
        },
        "category": [
          {
            "coding": [
              {
                "system": "http://terminology.hl7.org/CodeSystem/observation-category",
                "code": "vital-signs",
                "display": "Vital Signs"
              }
            ]
          }
        ],
        "valueQuantity": {
          "value": 1,
          "code": "{score}",
          "unit": "{score}"
        },
        "text": {
          "status": "generated",
          "div": "<div xmlns=\"http://www.w3.org/1999/xhtml\"><table class=\"hl7__ips\"><tr><th>Vital Sign</th><th>Date</th><th>Measurement</th></tr><tr><td>Pain severity - 0-10 verbal numeric rating [Score] - Reported</td><td>21-Dec-2023</td><td>1 {score}</td></tr></table></div>"
        },
        "status": "final",
        "code": {
          "coding": [
            {
              "code": "$72514-3",
              "system": "http://loinc.org",
              "display": "Pain severity - 0-10 verbal numeric rating [Score] - Reported"
            }
          ]
        },
        "subject": {
          "reference": "urn:uuid:bb59953e-c42c-4d80-8b27-eff97c1d789b",
          "display": "Alberto Manrique"
        },
        "effectiveDateTime": "2023-12-21"
      }
    },
    {
      "fullUrl": "urn:uuid:8e637a3a-9e62-4ec1-a75a-fd27aba02823",
      "resource": {
        "resourceType": "Observation",
        "id": "8e637a3a-9e62-4ec1-a75a-fd27aba02823",
        "meta": {
          "profile": [
            "http://hl7.org/fhir/StructureDefinition/vitalsigns"
          ]
        },
        "category": [
          {
            "coding": [
              {
                "system": "http://terminology.hl7.org/CodeSystem/observation-category",
                "code": "vital-signs",
                "display": "Vital Signs"
              }
            ]
          }
        ],
        "valueQuantity": {
          "value": 88.7,
          "code": "kg",
          "unit": "kg"
        },
        "text": {
          "status": "generated",
          "div": "<div xmlns=\"http://www.w3.org/1999/xhtml\"><table class=\"hl7__ips\"><tr><th>Vital Sign</th><th>Date</th><th>Measurement</th></tr><tr><td>Body Weight</td><td>21-Dec-2023</td><td>88.7 kg</td></tr></table></div>"
        },
        "status": "final",
        "code": {
          "coding": [
            {
              "code": "$29463-7",
              "system": "http://loinc.org",
              "display": "Body Weight"
            }
          ]
        },
        "subject": {
          "reference": "urn:uuid:bb59953e-c42c-4d80-8b27-eff97c1d789b",
          "display": "Alberto Manrique"
        },
        "effectiveDateTime": "2023-12-21"
      }
    },
    {
      "fullUrl": "urn:uuid:31fa4698-6eda-476a-bd9a-3a52395528c3",
      "resource": {
        "resourceType": "Observation",
        "id": "31fa4698-6eda-476a-bd9a-3a52395528c3",
        "meta": {
          "profile": [
            "http://hl7.org/fhir/StructureDefinition/vitalsigns"
          ]
        },
        "category": [
          {
            "coding": [
              {
                "system": "http://terminology.hl7.org/CodeSystem/observation-category",
                "code": "vital-signs",
                "display": "Vital Signs"
              }
            ]
          }
        ],
        "valueQuantity": {
          "value": 25.8,
          "code": "kg/m2",
          "unit": "kg/m2"
        },
        "text": {
          "status": "generated",
          "div": "<div xmlns=\"http://www.w3.org/1999/xhtml\"><table class=\"hl7__ips\"><tr><th>Vital Sign</th><th>Date</th><th>Measurement</th></tr><tr><td>Body mass index (BMI) [Ratio]</td><td>21-Dec-2023</td><td>25.8 kg/m2</td></tr></table></div>"
        },
        "status": "final",
        "code": {
          "coding": [
            {
              "code": "$39156-5",
              "system": "http://loinc.org",
              "display": "Body mass index (BMI) [Ratio]"
            }
          ]
        },
        "subject": {
          "reference": "urn:uuid:bb59953e-c42c-4d80-8b27-eff97c1d789b",
          "display": "Alberto Manrique"
        },
        "effectiveDateTime": "2023-12-21"
      }
    },
    {
      "fullUrl": "urn:uuid:37d6cfce-1f23-468f-9070-b7f1ca37e803",
      "resource": {
        "resourceType": "Observation",
        "id": "37d6cfce-1f23-468f-9070-b7f1ca37e803",
        "meta": {
          "profile": [
            "http://hl7.org/fhir/StructureDefinition/vitalsigns"
          ]
        },
        "category": [
          {
            "coding": [
              {
                "system": "http://terminology.hl7.org/CodeSystem/observation-category",
                "code": "vital-signs",
                "display": "Vital Signs"
              }
            ]
          }
        ],
        "valueQuantity": {
          "value": 111,
          "code": "mm[Hg]",
          "unit": "mm[Hg]"
        },
        "text": {
          "status": "generated",
          "div": "<div xmlns=\"http://www.w3.org/1999/xhtml\"><table class=\"hl7__ips\"><tr><th>Vital Sign</th><th>Date</th><th>Measurement</th></tr><tr><td>Diastolic Blood Pressure</td><td>21-Dec-2023</td><td>111 mm[Hg]</td></tr></table></div>"
        },
        "status": "final",
        "code": {
          "coding": [
            {
              "code": "$8462-4",
              "system": "http://loinc.org",
              "display": "Diastolic Blood Pressure"
            }
          ]
        },
        "subject": {
          "reference": "urn:uuid:bb59953e-c42c-4d80-8b27-eff97c1d789b",
          "display": "Alberto Manrique"
        },
        "effectiveDateTime": "2023-12-21"
      }
    },
    {
      "fullUrl": "urn:uuid:8310bdee-00a9-4be3-ba20-50e9838b0b49",
      "resource": {
        "resourceType": "Observation",
        "id": "8310bdee-00a9-4be3-ba20-50e9838b0b49",
        "meta": {
          "profile": [
            "http://hl7.org/fhir/StructureDefinition/vitalsigns"
          ]
        },
        "category": [
          {
            "coding": [
              {
                "system": "http://terminology.hl7.org/CodeSystem/observation-category",
                "code": "vital-signs",
                "display": "Vital Signs"
              }
            ]
          }
        ],
        "valueQuantity": {
          "value": 140,
          "code": "mm[Hg]",
          "unit": "mm[Hg]"
        },
        "text": {
          "status": "generated",
          "div": "<div xmlns=\"http://www.w3.org/1999/xhtml\"><table class=\"hl7__ips\"><tr><th>Vital Sign</th><th>Date</th><th>Measurement</th></tr><tr><td>Systolic Blood Pressure</td><td>21-Dec-2023</td><td>140 mm[Hg]</td></tr></table></div>"
        },
        "status": "final",
        "code": {
          "coding": [
            {
              "code": "$8480-6",
              "system": "http://loinc.org",
              "display": "Systolic Blood Pressure"
            }
          ]
        },
        "subject": {
          "reference": "urn:uuid:bb59953e-c42c-4d80-8b27-eff97c1d789b",
          "display": "Alberto Manrique"
        },
        "effectiveDateTime": "2023-12-21"
      }
    },
    {
      "fullUrl": "urn:uuid:fb055ce8-63a4-437d-9f47-ff797d089a17",
      "resource": {
        "resourceType": "Observation",
        "id": "fb055ce8-63a4-437d-9f47-ff797d089a17",
        "meta": {
          "profile": [
            "http://hl7.org/fhir/StructureDefinition/vitalsigns"
          ]
        },
        "category": [
          {
            "coding": [
              {
                "system": "http://terminology.hl7.org/CodeSystem/observation-category",
                "code": "vital-signs",
                "display": "Vital Signs"
              }
            ]
          }
        ],
        "valueQuantity": {
          "value": 83,
          "code": "/min",
          "unit": "/min"
        },
        "text": {
          "status": "generated",
          "div": "<div xmlns=\"http://www.w3.org/1999/xhtml\"><table class=\"hl7__ips\"><tr><th>Vital Sign</th><th>Date</th><th>Measurement</th></tr><tr><td>Heart rate</td><td>21-Dec-2023</td><td>83 /min</td></tr></table></div>"
        },
        "status": "final",
        "code": {
          "coding": [
            {
              "code": "$8867-4",
              "system": "http://loinc.org",
              "display": "Heart rate"
            }
          ]
        },
        "subject": {
          "reference": "urn:uuid:bb59953e-c42c-4d80-8b27-eff97c1d789b",
          "display": "Alberto Manrique"
        },
        "effectiveDateTime": "2023-12-21"
      }
    },
    {
      "fullUrl": "urn:uuid:c5cb8eb9-1ecc-4fff-a11a-ada75a369635",
      "resource": {
        "resourceType": "Observation",
        "id": "c5cb8eb9-1ecc-4fff-a11a-ada75a369635",
        "meta": {
          "profile": [
            "http://hl7.org/fhir/StructureDefinition/vitalsigns"
          ]
        },
        "category": [
          {
            "coding": [
              {
                "system": "http://terminology.hl7.org/CodeSystem/observation-category",
                "code": "vital-signs",
                "display": "Vital Signs"
              }
            ]
          }
        ],
        "valueQuantity": {
          "value": 13,
          "code": "/min",
          "unit": "/min"
        },
        "text": {
          "status": "generated",
          "div": "<div xmlns=\"http://www.w3.org/1999/xhtml\"><table class=\"hl7__ips\"><tr><th>Vital Sign</th><th>Date</th><th>Measurement</th></tr><tr><td>Respiratory rate</td><td>21-Dec-2023</td><td>13 /min</td></tr></table></div>"
        },
        "status": "final",
        "code": {
          "coding": [
            {
              "code": "$9279-1",
              "system": "http://loinc.org",
              "display": "Respiratory rate"
            }
          ]
        },
        "subject": {
          "reference": "urn:uuid:bb59953e-c42c-4d80-8b27-eff97c1d789b",
          "display": "Alberto Manrique"
        },
        "effectiveDateTime": "2023-12-21"
      }
    },
    {
      "fullUrl": "urn:uuid:dbd7ebbd-12e3-4aba-b0da-70f6a62fa3e9",
      "resource": {
        "resourceType": "Observation",
        "id": "dbd7ebbd-12e3-4aba-b0da-70f6a62fa3e9",
        "meta": {
          "profile": [
            "http://hl7.eu/fhir/laboratory/StructureDefinition/Observation-resultslab-eu-lab"
          ]
        },
        "performer": [
          {
            "display": "The Central European Lab"
          }
        ],
        "category": [
          {
            "coding": [
              {
                "system": "http://terminology.hl7.org/CodeSystem/observation-category",
                "code": "laboratory"
              }
            ]
          }
        ],
        "code": {
          "coding": [
            {
              "code": "2093-3",
              "system": "http://loinc.org",
              "display": "Cholesterol [Mass/volume] in Serum or Plasma"
            }
          ],
          "text": "Cholesterol [Mass/volume] in Serum or Plasma"
        },
        "valueQuantity": {
          "system": "http://unitsofmeasure.org",
          "value": 175.4,
          "unit": "mg/dL",
          "code": "mg/dL"
        },
        "referenceRange": [
          {
            "low": {
              "value": 125,
              "code": "mg/dL",
              "system": "http://unitsofmeasure.org"
            }
          },
          {
            "high": {
              "value": 200,
              "code": "mg/dL",
              "system": "http://unitsofmeasure.org"
            }
          }
        ],
        "text": {
          "status": "generated",
          "div": "<div xmlns=\"http://www.w3.org/1999/xhtml\"><table class=\"hl7__eu__lab__report\"><tr><th>Test</th><th>21-Dec-2023</th><th>Reference&#xA0;Range</th><th>Unit</th></tr><tr><td>Cholesterol [Mass/volume] in Serum or Plasma</td><td>175.4</td><td>125 - 200</td><td></td><td>mg/dL</td></tr></table></div>"
        },
        "status": "final",
        "subject": {
          "reference": "urn:uuid:bb59953e-c42c-4d80-8b27-eff97c1d789b",
          "display": "Alberto Manrique"
        },
        "effectiveDateTime": "2023-12-21T10:32:27Z"
      }
    },
    {
      "fullUrl": "urn:uuid:95cd14f3-ec44-4047-8bb5-267bb68931e0",
      "resource": {
        "resourceType": "Observation",
        "id": "95cd14f3-ec44-4047-8bb5-267bb68931e0",
        "meta": {
          "profile": [
            "http://hl7.eu/fhir/laboratory/StructureDefinition/Observation-resultslab-eu-lab"
          ]
        },
        "performer": [
          {
            "display": "The Central European Lab"
          }
        ],
        "category": [
          {
            "coding": [
              {
                "system": "http://terminology.hl7.org/CodeSystem/observation-category",
                "code": "laboratory"
              }
            ]
          }
        ],
        "code": {
          "coding": [
            {
              "code": "2571-8",
              "system": "http://loinc.org",
              "display": "Triglyceride [Mass/volume] in Serum or Plasma"
            }
          ],
          "text": "Triglyceride [Mass/volume] in Serum or Plasma"
        },
        "valueQuantity": {
          "system": "http://unitsofmeasure.org",
          "value": 100.3,
          "unit": "mg/dL",
          "code": "mg/dL"
        },
        "referenceRange": [
          {
            "low": {
              "value": 40,
              "code": "mg/dL",
              "system": "http://unitsofmeasure.org"
            }
          },
          {
            "high": {
              "value": 150,
              "code": "mg/dL",
              "system": "http://unitsofmeasure.org"
            }
          }
        ],
        "text": {
          "status": "generated",
          "div": "<div xmlns=\"http://www.w3.org/1999/xhtml\"><table class=\"hl7__eu__lab__report\"><tr><th>Test</th><th>21-Dec-2023</th><th>Reference&#xA0;Range</th><th>Unit</th></tr><tr><td>Triglyceride [Mass/volume] in Serum or Plasma</td><td>100.3</td><td>40 - 150</td><td></td><td>mg/dL</td></tr></table></div>"
        },
        "status": "final",
        "subject": {
          "reference": "urn:uuid:bb59953e-c42c-4d80-8b27-eff97c1d789b",
          "display": "Alberto Manrique"
        },
        "effectiveDateTime": "2023-12-21T10:32:27Z"
      }
    },
    {
      "fullUrl": "urn:uuid:d3265440-2ec3-4eef-ad59-5f8ab7334e31",
      "resource": {
        "resourceType": "Observation",
        "id": "d3265440-2ec3-4eef-ad59-5f8ab7334e31",
        "meta": {
          "profile": [
            "http://hl7.eu/fhir/laboratory/StructureDefinition/Observation-resultslab-eu-lab"
          ]
        },
        "performer": [
          {
            "display": "The Central European Lab"
          }
        ],
        "category": [
          {
            "coding": [
              {
                "system": "http://terminology.hl7.org/CodeSystem/observation-category",
                "code": "laboratory"
              }
            ]
          }
        ],
        "code": {
          "coding": [
            {
              "code": "18262-6",
              "system": "http://loinc.org",
              "display": "Cholesterol in LDL [Mass/volume] in Serum or Plasma by Direct assay"
            }
          ],
          "text": "Cholesterol in LDL [Mass/volume] in Serum or Plasma by Direct assay"
        },
        "valueQuantity": {
          "system": "http://unitsofmeasure.org",
          "value": 103,
          "unit": "mg/dL",
          "code": "mg/dL"
        },
        "referenceRange": [
          {
            "low": {
              "value": 0,
              "code": "mg/dL",
              "system": "http://unitsofmeasure.org"
            }
          },
          {
            "high": {
              "value": 130,
              "code": "mg/dL",
              "system": "http://unitsofmeasure.org"
            }
          }
        ],
        "text": {
          "status": "generated",
          "div": "<div xmlns=\"http://www.w3.org/1999/xhtml\"><table class=\"hl7__eu__lab__report\"><tr><th>Test</th><th>21-Dec-2023</th><th>Reference&#xA0;Range</th><th>Unit</th></tr><tr><td>Cholesterol in LDL [Mass/volume] in Serum or Plasma by Direct assay</td><td>103.0</td><td>0 - 130</td><td></td><td>mg/dL</td></tr></table></div>"
        },
        "status": "final",
        "subject": {
          "reference": "urn:uuid:bb59953e-c42c-4d80-8b27-eff97c1d789b",
          "display": "Alberto Manrique"
        },
        "effectiveDateTime": "2023-12-21T10:32:27Z"
      }
    },
    {
      "fullUrl": "urn:uuid:75fe9705-7de2-43c8-b09d-8722a1c9690c",
      "resource": {
        "resourceType": "Observation",
        "id": "75fe9705-7de2-43c8-b09d-8722a1c9690c",
        "meta": {
          "profile": [
            "http://hl7.eu/fhir/laboratory/StructureDefinition/Observation-resultslab-eu-lab"
          ]
        },
        "performer": [
          {
            "display": "The Central European Lab"
          }
        ],
        "category": [
          {
            "coding": [
              {
                "system": "http://terminology.hl7.org/CodeSystem/observation-category",
                "code": "laboratory"
              }
            ]
          }
        ],
        "code": {
          "coding": [
            {
              "code": "2085-9",
              "system": "http://loinc.org",
              "display": "Cholesterol in HDL [Mass/volume] in Serum or Plasma"
            }
          ],
          "text": "Cholesterol in HDL [Mass/volume] in Serum or Plasma"
        },
        "valueQuantity": {
          "system": "http://unitsofmeasure.org",
          "value": 52.4,
          "unit": "mg/dL",
          "code": "mg/dL"
        },
        "referenceRange": [
          {
            "low": {
              "value": 40,
              "code": "mg/dL",
              "system": "http://unitsofmeasure.org"
            }
          },
          {
            "high": {
              "value": 60,
              "code": "mg/dL",
              "system": "http://unitsofmeasure.org"
            }
          }
        ],
        "text": {
          "status": "generated",
          "div": "<div xmlns=\"http://www.w3.org/1999/xhtml\"><table class=\"hl7__eu__lab__report\"><tr><th>Test</th><th>21-Dec-2023</th><th>Reference&#xA0;Range</th><th>Unit</th></tr><tr><td>Cholesterol in HDL [Mass/volume] in Serum or Plasma</td><td>52.4</td><td>40 - 60</td><td></td><td>mg/dL</td></tr></table></div>"
        },
        "status": "final",
        "subject": {
          "reference": "urn:uuid:bb59953e-c42c-4d80-8b27-eff97c1d789b",
          "display": "Alberto Manrique"
        },
        "effectiveDateTime": "2023-12-21T10:32:27Z"
      }
    },
    {
      "fullUrl": "urn:uuid:e606e136-81d2-488e-a84e-52b759bfa28b",
      "resource": {
        "resourceType": "Observation",
        "id": "e606e136-81d2-488e-a84e-52b759bfa28b",
        "meta": {
          "profile": [
            "http://hl7.eu/fhir/laboratory/StructureDefinition/Observation-resultslab-eu-lab"
          ]
        },
        "performer": [
          {
            "display": "The Central European Lab"
          }
        ],
        "category": [
          {
            "coding": [
              {
                "system": "http://terminology.hl7.org/CodeSystem/observation-category",
                "code": "laboratory"
              }
            ]
          }
        ],
        "code": {
          "coding": [
            {
              "code": "6690-2",
              "system": "http://loinc.org",
              "display": "Leukocytes [#/volume] in Blood by Automated count"
            }
          ],
          "text": "Leukocytes [#/volume] in Blood by Automated count"
        },
        "valueQuantity": {
          "system": "http://unitsofmeasure.org",
          "value": 5.3,
          "unit": "10*3/uL",
          "code": "10*3/uL"
        },
        "referenceRange": [
          {
            "low": {
              "value": 3.5,
              "code": "10*3/uL",
              "system": "http://unitsofmeasure.org"
            }
          },
          {
            "high": {
              "value": 10.5,
              "code": "10*3/uL",
              "system": "http://unitsofmeasure.org"
            }
          }
        ],
        "text": {
          "status": "generated",
          "div": "<div xmlns=\"http://www.w3.org/1999/xhtml\"><table class=\"hl7__eu__lab__report\"><tr><th>Test</th><th>21-Dec-2023</th><th>Reference&#xA0;Range</th><th>Unit</th></tr><tr><td>Leukocytes [#/volume] in Blood by Automated count</td><td>5.3</td><td>3.5 - 10.5</td><td></td><td>10*3/uL</td></tr></table></div>"
        },
        "status": "final",
        "subject": {
          "reference": "urn:uuid:bb59953e-c42c-4d80-8b27-eff97c1d789b",
          "display": "Alberto Manrique"
        },
        "effectiveDateTime": "2023-12-21T10:32:27Z"
      }
    },
    {
      "fullUrl": "urn:uuid:f18054e8-a2b9-4da9-826e-049e4256b1f5",
      "resource": {
        "resourceType": "Observation",
        "id": "f18054e8-a2b9-4da9-826e-049e4256b1f5",
        "meta": {
          "profile": [
            "http://hl7.eu/fhir/laboratory/StructureDefinition/Observation-resultslab-eu-lab"
          ]
        },
        "performer": [
          {
            "display": "The Central European Lab"
          }
        ],
        "category": [
          {
            "coding": [
              {
                "system": "http://terminology.hl7.org/CodeSystem/observation-category",
                "code": "laboratory"
              }
            ]
          }
        ],
        "code": {
          "coding": [
            {
              "code": "789-8",
              "system": "http://loinc.org",
              "display": "Erythrocytes [#/volume] in Blood by Automated count"
            }
          ],
          "text": "Erythrocytes [#/volume] in Blood by Automated count"
        },
        "valueQuantity": {
          "system": "http://unitsofmeasure.org",
          "value": 4.6,
          "unit": "10*6/uL",
          "code": "10*6/uL"
        },
        "referenceRange": [
          {
            "low": {
              "value": 4.5,
              "code": "10*6/uL",
              "system": "http://unitsofmeasure.org"
            }
          },
          {
            "high": {
              "value": 5.5,
              "code": "10*6/uL",
              "system": "http://unitsofmeasure.org"
            }
          }
        ],
        "text": {
          "status": "generated",
          "div": "<div xmlns=\"http://www.w3.org/1999/xhtml\"><table class=\"hl7__eu__lab__report\"><tr><th>Test</th><th>21-Dec-2023</th><th>Reference&#xA0;Range</th><th>Unit</th></tr><tr><td>Erythrocytes [#/volume] in Blood by Automated count</td><td>4.6</td><td>4.5 - 5.5</td><td></td><td>10*6/uL</td></tr></table></div>"
        },
        "status": "final",
        "subject": {
          "reference": "urn:uuid:bb59953e-c42c-4d80-8b27-eff97c1d789b",
          "display": "Alberto Manrique"
        },
        "effectiveDateTime": "2023-12-21T10:32:27Z"
      }
    },
    {
      "fullUrl": "urn:uuid:bd7dbb0b-2760-444c-b262-2e7829f00ce6",
      "resource": {
        "resourceType": "Observation",
        "id": "bd7dbb0b-2760-444c-b262-2e7829f00ce6",
        "meta": {
          "profile": [
            "http://hl7.eu/fhir/laboratory/StructureDefinition/Observation-resultslab-eu-lab"
          ]
        },
        "performer": [
          {
            "display": "The Central European Lab"
          }
        ],
        "category": [
          {
            "coding": [
              {
                "system": "http://terminology.hl7.org/CodeSystem/observation-category",
                "code": "laboratory"
              }
            ]
          }
        ],
        "code": {
          "coding": [
            {
              "code": "718-7",
              "system": "http://loinc.org",
              "display": "Hemoglobin [Mass/volume] in Blood"
            }
          ],
          "text": "Hemoglobin [Mass/volume] in Blood"
        },
        "valueQuantity": {
          "system": "http://unitsofmeasure.org",
          "value": 14.1,
          "unit": "g/dL",
          "code": "g/dL"
        },
        "referenceRange": [
          {
            "low": {
              "value": 14,
              "code": "g/dL",
              "system": "http://unitsofmeasure.org"
            }
          },
          {
            "high": {
              "value": 18,
              "code": "g/dL",
              "system": "http://unitsofmeasure.org"
            }
          }
        ],
        "text": {
          "status": "generated",
          "div": "<div xmlns=\"http://www.w3.org/1999/xhtml\"><table class=\"hl7__eu__lab__report\"><tr><th>Test</th><th>21-Dec-2023</th><th>Reference&#xA0;Range</th><th>Unit</th></tr><tr><td>Hemoglobin [Mass/volume] in Blood</td><td>14.1</td><td>14 - 18</td><td></td><td>g/dL</td></tr></table></div>"
        },
        "status": "final",
        "subject": {
          "reference": "urn:uuid:bb59953e-c42c-4d80-8b27-eff97c1d789b",
          "display": "Alberto Manrique"
        },
        "effectiveDateTime": "2023-12-21T10:32:27Z"
      }
    },
    {
      "fullUrl": "urn:uuid:73cf8cbb-e26a-422b-857a-e33e83e685c1",
      "resource": {
        "resourceType": "Observation",
        "id": "73cf8cbb-e26a-422b-857a-e33e83e685c1",
        "meta": {
          "profile": [
            "http://hl7.eu/fhir/laboratory/StructureDefinition/Observation-resultslab-eu-lab"
          ]
        },
        "performer": [
          {
            "display": "The Central European Lab"
          }
        ],
        "category": [
          {
            "coding": [
              {
                "system": "http://terminology.hl7.org/CodeSystem/observation-category",
                "code": "laboratory"
              }
            ]
          }
        ],
        "code": {
          "coding": [
            {
              "code": "4544-3",
              "system": "http://loinc.org",
              "display": "Hematocrit [Volume Fraction] of Blood by Automated count"
            }
          ],
          "text": "Hematocrit [Volume Fraction] of Blood by Automated count"
        },
        "valueQuantity": {
          "system": "http://unitsofmeasure.org",
          "value": 37.1,
          "unit": "%",
          "code": "%"
        },
        "referenceRange": [
          {
            "low": {
              "value": 38,
              "code": "%",
              "system": "http://unitsofmeasure.org"
            }
          },
          {
            "high": {
              "value": 50,
              "code": "%",
              "system": "http://unitsofmeasure.org"
            }
          }
        ],
        "interpretation": [
          {
            "coding": [
              {
                "code": "L",
                "system": "http://terminology.hl7.org/CodeSystem/v3-ObservationInterpretation",
                "display": "Low"
              }
            ]
          }
        ],
        "text": {
          "status": "generated",
          "div": "<div xmlns=\"http://www.w3.org/1999/xhtml\"><table class=\"hl7__eu__lab__report\"><tr><th>Test</th><th>21-Dec-2023</th><th>Reference&#xA0;Range</th><th>Unit</th></tr><tr><td>Hematocrit [Volume Fraction] of Blood by Automated count</td><td>37.1</td><td>38 - 50</td><td>L</td><td>%</td></tr></table></div>"
        },
        "status": "final",
        "subject": {
          "reference": "urn:uuid:bb59953e-c42c-4d80-8b27-eff97c1d789b",
          "display": "Alberto Manrique"
        },
        "effectiveDateTime": "2023-12-21T10:32:27Z"
      }
    },
    {
      "fullUrl": "urn:uuid:82c4ab84-98b7-4fce-89fe-a5130948efff",
      "resource": {
        "resourceType": "Observation",
        "id": "82c4ab84-98b7-4fce-89fe-a5130948efff",
        "meta": {
          "profile": [
            "http://hl7.eu/fhir/laboratory/StructureDefinition/Observation-resultslab-eu-lab"
          ]
        },
        "performer": [
          {
            "display": "The Central European Lab"
          }
        ],
        "category": [
          {
            "coding": [
              {
                "system": "http://terminology.hl7.org/CodeSystem/observation-category",
                "code": "laboratory"
              }
            ]
          }
        ],
        "code": {
          "coding": [
            {
              "code": "787-2",
              "system": "http://loinc.org",
              "display": "MCV [Entitic volume] by Automated count"
            }
          ],
          "text": "MCV [Entitic volume] by Automated count"
        },
        "valueQuantity": {
          "system": "http://unitsofmeasure.org",
          "value": 82,
          "unit": "fL",
          "code": "fL"
        },
        "referenceRange": [
          {
            "low": {
              "value": 80,
              "code": "fL",
              "system": "http://unitsofmeasure.org"
            }
          },
          {
            "high": {
              "value": 98,
              "code": "fL",
              "system": "http://unitsofmeasure.org"
            }
          }
        ],
        "text": {
          "status": "generated",
          "div": "<div xmlns=\"http://www.w3.org/1999/xhtml\"><table class=\"hl7__eu__lab__report\"><tr><th>Test</th><th>21-Dec-2023</th><th>Reference&#xA0;Range</th><th>Unit</th></tr><tr><td>MCV [Entitic volume] by Automated count</td><td>82.0</td><td>80 - 98</td><td></td><td>fL</td></tr></table></div>"
        },
        "status": "final",
        "subject": {
          "reference": "urn:uuid:bb59953e-c42c-4d80-8b27-eff97c1d789b",
          "display": "Alberto Manrique"
        },
        "effectiveDateTime": "2023-12-21T10:32:27Z"
      }
    },
    {
      "fullUrl": "urn:uuid:bd755523-ba4a-4db4-bbd7-ae955cd01696",
      "resource": {
        "resourceType": "Observation",
        "id": "bd755523-ba4a-4db4-bbd7-ae955cd01696",
        "meta": {
          "profile": [
            "http://hl7.eu/fhir/laboratory/StructureDefinition/Observation-resultslab-eu-lab"
          ]
        },
        "performer": [
          {
            "display": "The Central European Lab"
          }
        ],
        "category": [
          {
            "coding": [
              {
                "system": "http://terminology.hl7.org/CodeSystem/observation-category",
                "code": "laboratory"
              }
            ]
          }
        ],
        "code": {
          "coding": [
            {
              "code": "785-6",
              "system": "http://loinc.org",
              "display": "MCH [Entitic mass] by Automated count"
            }
          ],
          "text": "MCH [Entitic mass] by Automated count"
        },
        "valueQuantity": {
          "system": "http://unitsofmeasure.org",
          "value": 28.4,
          "unit": "pg",
          "code": "pg"
        },
        "referenceRange": [
          {
            "low": {
              "value": 27,
              "code": "pg",
              "system": "http://unitsofmeasure.org"
            }
          },
          {
            "high": {
              "value": 34,
              "code": "pg",
              "system": "http://unitsofmeasure.org"
            }
          }
        ],
        "text": {
          "status": "generated",
          "div": "<div xmlns=\"http://www.w3.org/1999/xhtml\"><table class=\"hl7__eu__lab__report\"><tr><th>Test</th><th>21-Dec-2023</th><th>Reference&#xA0;Range</th><th>Unit</th></tr><tr><td>MCH [Entitic mass] by Automated count</td><td>28.4</td><td>27 - 34</td><td></td><td>pg</td></tr></table></div>"
        },
        "status": "final",
        "subject": {
          "reference": "urn:uuid:bb59953e-c42c-4d80-8b27-eff97c1d789b",
          "display": "Alberto Manrique"
        },
        "effectiveDateTime": "2023-12-21T10:32:27Z"
      }
    },
    {
      "fullUrl": "urn:uuid:df0076b3-fb7d-4a5d-8584-8a28b253bd38",
      "resource": {
        "resourceType": "Observation",
        "id": "df0076b3-fb7d-4a5d-8584-8a28b253bd38",
        "meta": {
          "profile": [
            "http://hl7.eu/fhir/laboratory/StructureDefinition/Observation-resultslab-eu-lab"
          ]
        },
        "performer": [
          {
            "display": "The Central European Lab"
          }
        ],
        "category": [
          {
            "coding": [
              {
                "system": "http://terminology.hl7.org/CodeSystem/observation-category",
                "code": "laboratory"
              }
            ]
          }
        ],
        "code": {
          "coding": [
            {
              "code": "786-4",
              "system": "http://loinc.org",
              "display": "MCHC [Mass/volume] by Automated count"
            }
          ],
          "text": "MCHC [Mass/volume] by Automated count"
        },
        "valueQuantity": {
          "system": "http://unitsofmeasure.org",
          "value": 34,
          "unit": "g/dL",
          "code": "g/dL"
        },
        "referenceRange": [
          {
            "low": {
              "value": 32,
              "code": "g/dL",
              "system": "http://unitsofmeasure.org"
            }
          },
          {
            "high": {
              "value": 36,
              "code": "g/dL",
              "system": "http://unitsofmeasure.org"
            }
          }
        ],
        "text": {
          "status": "generated",
          "div": "<div xmlns=\"http://www.w3.org/1999/xhtml\"><table class=\"hl7__eu__lab__report\"><tr><th>Test</th><th>21-Dec-2023</th><th>Reference&#xA0;Range</th><th>Unit</th></tr><tr><td>MCHC [Mass/volume] by Automated count</td><td>34.0</td><td>32 - 36</td><td></td><td>g/dL</td></tr></table></div>"
        },
        "status": "final",
        "subject": {
          "reference": "urn:uuid:bb59953e-c42c-4d80-8b27-eff97c1d789b",
          "display": "Alberto Manrique"
        },
        "effectiveDateTime": "2023-12-21T10:32:27Z"
      }
    },
    {
      "fullUrl": "urn:uuid:a8295a71-44d2-43eb-8377-aa3f4f542785",
      "resource": {
        "resourceType": "Observation",
        "id": "a8295a71-44d2-43eb-8377-aa3f4f542785",
        "meta": {
          "profile": [
            "http://hl7.eu/fhir/laboratory/StructureDefinition/Observation-resultslab-eu-lab"
          ]
        },
        "performer": [
          {
            "display": "The Central European Lab"
          }
        ],
        "category": [
          {
            "coding": [
              {
                "system": "http://terminology.hl7.org/CodeSystem/observation-category",
                "code": "laboratory"
              }
            ]
          }
        ],
        "code": {
          "coding": [
            {
              "code": "21000-5",
              "system": "http://loinc.org",
              "display": "Erythrocyte distribution width [Entitic volume] by Automated count"
            }
          ],
          "text": "Erythrocyte distribution width [Entitic volume] by Automated count"
        },
        "valueQuantity": {
          "system": "http://unitsofmeasure.org",
          "value": 39.7,
          "unit": "fL",
          "code": "fL"
        },
        "referenceRange": [
          {
            "low": {
              "value": 39,
              "code": "fL",
              "system": "http://unitsofmeasure.org"
            }
          },
          {
            "high": {
              "value": 55,
              "code": "fL",
              "system": "http://unitsofmeasure.org"
            }
          }
        ],
        "text": {
          "status": "generated",
          "div": "<div xmlns=\"http://www.w3.org/1999/xhtml\"><table class=\"hl7__eu__lab__report\"><tr><th>Test</th><th>21-Dec-2023</th><th>Reference&#xA0;Range</th><th>Unit</th></tr><tr><td>Erythrocyte distribution width [Entitic volume] by Automated count</td><td>39.7</td><td>39 - 55</td><td></td><td>fL</td></tr></table></div>"
        },
        "status": "final",
        "subject": {
          "reference": "urn:uuid:bb59953e-c42c-4d80-8b27-eff97c1d789b",
          "display": "Alberto Manrique"
        },
        "effectiveDateTime": "2023-12-21T10:32:27Z"
      }
    },
    {
      "fullUrl": "urn:uuid:3e7dbae1-ccb8-45d8-a30f-abdce92d32fe",
      "resource": {
        "resourceType": "Observation",
        "id": "3e7dbae1-ccb8-45d8-a30f-abdce92d32fe",
        "meta": {
          "profile": [
            "http://hl7.eu/fhir/laboratory/StructureDefinition/Observation-resultslab-eu-lab"
          ]
        },
        "performer": [
          {
            "display": "The Central European Lab"
          }
        ],
        "category": [
          {
            "coding": [
              {
                "system": "http://terminology.hl7.org/CodeSystem/observation-category",
                "code": "laboratory"
              }
            ]
          }
        ],
        "code": {
          "coding": [
            {
              "code": "777-3",
              "system": "http://loinc.org",
              "display": "Platelets [#/volume] in Blood by Automated count"
            }
          ],
          "text": "Platelets [#/volume] in Blood by Automated count"
        },
        "valueQuantity": {
          "system": "http://unitsofmeasure.org",
          "value": 231.5,
          "unit": "10*3/uL",
          "code": "10*3/uL"
        },
        "referenceRange": [
          {
            "low": {
              "value": 150,
              "code": "10*3/uL",
              "system": "http://unitsofmeasure.org"
            }
          },
          {
            "high": {
              "value": 400,
              "code": "10*3/uL",
              "system": "http://unitsofmeasure.org"
            }
          }
        ],
        "text": {
          "status": "generated",
          "div": "<div xmlns=\"http://www.w3.org/1999/xhtml\"><table class=\"hl7__eu__lab__report\"><tr><th>Test</th><th>21-Dec-2023</th><th>Reference&#xA0;Range</th><th>Unit</th></tr><tr><td>Platelets [#/volume] in Blood by Automated count</td><td>231.5</td><td>150 - 400</td><td></td><td>10*3/uL</td></tr></table></div>"
        },
        "status": "final",
        "subject": {
          "reference": "urn:uuid:bb59953e-c42c-4d80-8b27-eff97c1d789b",
          "display": "Alberto Manrique"
        },
        "effectiveDateTime": "2023-12-21T10:32:27Z"
      }
    },
    {
      "fullUrl": "urn:uuid:0628e308-d5b7-413d-8a64-9800613c7c79",
      "resource": {
        "resourceType": "Observation",
        "id": "0628e308-d5b7-413d-8a64-9800613c7c79",
        "meta": {
          "profile": [
            "http://hl7.eu/fhir/laboratory/StructureDefinition/Observation-resultslab-eu-lab"
          ]
        },
        "performer": [
          {
            "display": "The Central European Lab"
          }
        ],
        "category": [
          {
            "coding": [
              {
                "system": "http://terminology.hl7.org/CodeSystem/observation-category",
                "code": "laboratory"
              }
            ]
          }
        ],
        "code": {
          "coding": [
            {
              "code": "32207-3",
              "system": "http://loinc.org",
              "display": "Platelet distribution width [Entitic volume] in Blood by Automated count"
            }
          ],
          "text": "Platelet distribution width [Entitic volume] in Blood by Automated count"
        },
        "valueQuantity": {
          "system": "http://unitsofmeasure.org",
          "value": 236.3,
          "unit": "fL",
          "code": "fL"
        },
        "referenceRange": [
          {
            "low": {
              "value": 13.4,
              "code": "fL",
              "system": "http://unitsofmeasure.org"
            }
          },
          {
            "high": {
              "value": 17.4,
              "code": "fL",
              "system": "http://unitsofmeasure.org"
            }
          }
        ],
        "interpretation": [
          {
            "coding": [
              {
                "code": "H",
                "system": "http://terminology.hl7.org/CodeSystem/v3-ObservationInterpretation",
                "display": "High"
              }
            ]
          }
        ],
        "text": {
          "status": "generated",
          "div": "<div xmlns=\"http://www.w3.org/1999/xhtml\"><table class=\"hl7__eu__lab__report\"><tr><th>Test</th><th>21-Dec-2023</th><th>Reference&#xA0;Range</th><th>Unit</th></tr><tr><td>Platelet distribution width [Entitic volume] in Blood by Automated count</td><td>236.3</td><td>13.4 - 17.4</td><td>H</td><td>fL</td></tr></table></div>"
        },
        "status": "final",
        "subject": {
          "reference": "urn:uuid:bb59953e-c42c-4d80-8b27-eff97c1d789b",
          "display": "Alberto Manrique"
        },
        "effectiveDateTime": "2023-12-21T10:32:27Z"
      }
    },
    {
      "fullUrl": "urn:uuid:55f46b31-f51d-43f4-b42e-17e73a23130d",
      "resource": {
        "resourceType": "Observation",
        "id": "55f46b31-f51d-43f4-b42e-17e73a23130d",
        "meta": {
          "profile": [
            "http://hl7.eu/fhir/laboratory/StructureDefinition/Observation-resultslab-eu-lab"
          ]
        },
        "performer": [
          {
            "display": "The Central European Lab"
          }
        ],
        "category": [
          {
            "coding": [
              {
                "system": "http://terminology.hl7.org/CodeSystem/observation-category",
                "code": "laboratory"
              }
            ]
          }
        ],
        "code": {
          "coding": [
            {
              "code": "32623-1",
              "system": "http://loinc.org",
              "display": "Platelet mean volume [Entitic volume] in Blood by Automated count"
            }
          ],
          "text": "Platelet mean volume [Entitic volume] in Blood by Automated count"
        },
        "valueQuantity": {
          "system": "http://unitsofmeasure.org",
          "value": 12.3,
          "unit": "fL",
          "code": "fL"
        },
        "referenceRange": [
          {
            "low": {
              "value": 7.2,
              "code": "fL",
              "system": "http://unitsofmeasure.org"
            }
          },
          {
            "high": {
              "value": 13.8,
              "code": "fL",
              "system": "http://unitsofmeasure.org"
            }
          }
        ],
        "text": {
          "status": "generated",
          "div": "<div xmlns=\"http://www.w3.org/1999/xhtml\"><table class=\"hl7__eu__lab__report\"><tr><th>Test</th><th>21-Dec-2023</th><th>Reference&#xA0;Range</th><th>Unit</th></tr><tr><td>Platelet mean volume [Entitic volume] in Blood by Automated count</td><td>12.3</td><td>7.2 - 13.8</td><td></td><td>fL</td></tr></table></div>"
        },
        "status": "final",
        "subject": {
          "reference": "urn:uuid:bb59953e-c42c-4d80-8b27-eff97c1d789b",
          "display": "Alberto Manrique"
        },
        "effectiveDateTime": "2023-12-21T10:32:27Z"
      }
    },
    {
      "fullUrl": "urn:uuid:5820960e-ac7d-456d-8313-bf53cd88444a",
      "resource": {
        "resourceType": "Device",
        "id": "5820960e-ac7d-456d-8313-bf53cd88444a",
        "deviceName": [
          {
            "name": "SYNDERAI Synthetic Generator",
            "type": "manufacturer-name"
          }
        ],
        "version": [
          {
            "value": "5.0"
          }
        ],
        "text": {
          "status": "generated",
          "div": "<div xmlns=\"http://www.w3.org/1999/xhtml\">SYNDERAI Synthetic Generator v5.0</div>"
        },
        "status": "active\"",
        "distinctIdentifier": "synderai-generator-50",
        "manufacturer": "SYNDERAI Project"
      }
    },
    {
      "fullUrl": "urn:uuid:27beece3-e31d-4014-8be2-629ec8cfd3fb",
      "resource": {
        "resourceType": "Provenance",
        "id": "27beece3-e31d-4014-8be2-629ec8cfd3fb",
        "target": [
          {
            "reference": "Patient/bb59953e-c42c-4d80-8b27-eff97c1d789b"
          },
          {
            "reference": "Bundle/9fd33349-a366-45a0-86b0-03d914073689"
          },
          {
            "reference": "Composition/5909f392-9a4f-4a8e-9298-ec7b40ec3d6b"
          },
          {
            "reference": "PractitionerRole/e9896f61-829d-4aa3-bb0b-cc04e60131e7"
          },
          {
            "reference": "Organization/850c360a-9e2c-456a-9f4e-8dd81bf4bcfa"
          },
          {
            "reference": "Practitioner/9f419ed9-b33e-485d-bd5e-e14e33b58747"
          }
        ],
        "activity": {
          "text": "Synthetic Example Data Generation"
        },
        "policy": [
          "https://synderai.net/synderai-synthetic-data-policy"
        ],
        "agent": [
          {
            "type": {
              "text": "author"
            },
            "who": {
              "reference": "Device/5820960e-ac7d-456d-8313-bf53cd88444a"
            }
          }
        ],
        "reason": [
          {
            "text": "Interoperability Testing and Training (non-clinical use)"
          }
        ],
        "text": {
          "status": "generated",
          "div": "<div xmlns=\"http://www.w3.org/1999/xhtml\">Provenance for SYNDERAI Synthetic Example Data Resource</div>"
        },
        "recorded": "2023-12-21T10:32:27Z"
      }
    }
  ],
  "type": "document",
  "timestamp": "2023-12-21T10:32:27Z"
}
