{
  "resourceType": "Bundle",
  "id": "6fbab12e-22e6-4037-90d0-f0cdbae11295",
  "meta": {
    "profile": [
      "http://hl7.eu/fhir/eps/StructureDefinition/bundle-eu-eps"
    ]
  },
  "identifier": {
    "assigner": {
      "display": "HL7 Europe"
    },
    "system": "urn:oid:2.16.840.1.113883.2.51.999",
    "value": "da8c3def-a715-4de7-a4d9-2c8f2b4659d9"
  },
  "entry": [
    {
      "fullUrl": "urn:uuid:9da5acbe-528a-44cc-9c54-2c2f75d67d5c",
      "resource": {
        "resourceType": "Composition",
        "id": "9da5acbe-528a-44cc-9c54-2c2f75d67d5c",
        "meta": {
          "security": [
            {
              "system": "http://terminology.hl7.org/CodeSystem/v3-ActReason",
              "code": "HTEST"
            },
            {
              "system": "http://terminology.hl7.org/CodeSystem/v3-ActReason",
              "code": "TRAIN"
            }
          ],
          "tag": [
            {
              "system": "https://synderai.net/fhir/CodeSystem/tags",
              "code": "synthetic",
              "display": "SYNDERAI Synthetic data"
            }
          ],
          "profile": [
            "http://hl7.eu/fhir/eps/StructureDefinition/composition-eu-eps"
          ]
        },
        "identifier": {
          "assigner": {
            "display": "HL7 Europe"
          },
          "system": "urn:oid:2.16.840.1.113883.2.51.999",
          "value": "e943969d-d755-40f0-a2f1-9ac72129c19d"
        },
        "type": {
          "coding": [
            {
              "system": "http://loinc.org",
              "code": "60591-5",
              "display": "Patient summary Document"
            }
          ],
          "text": "Patient summary Document"
        },
        "author": [
          {
            "reference": "urn:uuid:071915e1-0c9d-4d5e-9447-5625c8b4cda7"
          }
        ],
        "section": [
          {
            "text": {
              "status": "generated",
              "div": "<div xmlns=\"http://www.w3.org/1999/xhtml\"><table class=\"hl7__ips\"><tr><th>Condition</th><th>Onset Date</th><th>Status</th></tr><tr><td>Ischemic heart disease</td><td><span class=\"nb\">03-Nov-2006</span></td><td>active</td></tr><tr><td>Proteinuria due to type 2 diabetes mellitus</td><td><span class=\"nb\">19-Apr-2002</span></td><td>active</td></tr><tr><td>Acute ST segment elevation myocardial infarction</td><td><span class=\"nb\">13-Jan-2002</span></td><td>active</td></tr><tr><td>Chronic sinusitis</td><td><span class=\"nb\">23-Jun-1989</span></td><td>active</td></tr><tr><td>Microalbuminuria due to type 2 diabetes mellitus</td><td><span class=\"nb\">27-Jan-1989</span></td><td>active</td></tr><tr><td>Disorder of kidney due to diabetes mellitus</td><td><span class=\"nb\">20-Apr-1979</span></td><td>active</td></tr><tr><td>Essential hypertension</td><td><span class=\"nb\">03-Feb-1978</span></td><td>active</td></tr><tr><td>Prediabetes</td><td><span class=\"nb\">28-Jan-1972</span></td><td>active</td></tr><tr><td>Anemia</td><td><span class=\"nb\">28-Jan-1972</span></td><td>active</td></tr></table></div>"
            },
            "entry": [
              {
                "reference": "urn:uuid:f2eded00-604c-4fae-8697-b7f764b2ced8"
              },
              {
                "reference": "urn:uuid:2aa5e1ab-8bc8-4b15-a584-b837641c2b63"
              },
              {
                "reference": "urn:uuid:0bbe051a-55b5-4618-a05a-157371c5c89b"
              },
              {
                "reference": "urn:uuid:113984bb-99ad-4f47-8ccb-60e85933588c"
              },
              {
                "reference": "urn:uuid:46b9ecb6-a4b9-4b98-b029-d769462df42d"
              },
              {
                "reference": "urn:uuid:da6adf1f-a083-45ef-a819-53f1603b5641"
              },
              {
                "reference": "urn:uuid:cbda8034-cac7-4d24-970d-5ed229dfca60"
              },
              {
                "reference": "urn:uuid:fed49c90-143b-42f2-89f9-69ea319eee77"
              },
              {
                "reference": "urn:uuid:9d4ab7cf-05aa-491e-98a4-bbc23338d52f"
              }
            ],
            "code": {
              "coding": [
                {
                  "system": "http://loinc.org",
                  "code": "11450-4",
                  "display": "Problem list - Reported"
                }
              ]
            },
            "title": "Problem list"
          },
          {
            "text": {
              "status": "generated",
              "div": "<div xmlns=\"http://www.w3.org/1999/xhtml\"><table class=\"hl7__ips\"><tr><th>Medication</th><th>Since</th><th>Form</th><th>Dosage</th><th>Reason</th></tr><tr><td>insulin isophane human 70 UNT/ML / insulin regular human 30 UNT/ML Injectable Suspension [Humulin]</td><td><span class=\"nb\">2024-11-01</span></td><td>-</td><td>10 units subcutaneously before breakfast and dinner</td><td>Prediabetes</td></tr><tr><td>Ibuprofen 400 mg oral tablet</td><td><span class=\"nb\">2024-11-01</span></td><td>-</td><td>1 tablet (400 mg) every 8 hours as needed</td><td>-</td></tr><tr><td>Amlodipine (as amlodipine besylate) 2.5 mg oral tablet</td><td><span class=\"nb\">2024-11-01</span></td><td>-</td><td>1 tablet (2.5 mg) by mouth once daily</td><td>Essential hypertension (disorder)</td></tr><tr><td>Hydrochlorothiazide 25 mg oral tablet</td><td><span class=\"nb\">2024-11-01</span></td><td>-</td><td>1 tablet (25 mg) by mouth once daily</td><td>Essential hypertension (disorder)</td></tr><tr><td>24 HR tacrolimus 1 MG Extended Release Oral Tablet</td><td><span class=\"nb\">2024-11-01</span></td><td>-</td><td>1 tablet (1 mg) by mouth once daily</td><td>History of renal transplant (situation)</td></tr><tr><td>Clopidogrel (as clopidogrel bisulfate) 75 mg oral tablet</td><td><span class=\"nb\">2006-11-10</span></td><td>-</td><td>1 tablet (75 mg) once daily</td><td>-</td></tr><tr><td>Nitroglycerin 400 microgram/actuation sublingual spray</td><td><span class=\"nb\">2006-11-10</span></td><td>-</td><td>400 micrograms per spray, spray one dose under the tongue as needed for chest pain, may repeat every 5 minutes as needed, up to 3 sprays in 15 minutes</td><td>-</td></tr><tr><td>Metoprolol tartrate (as metoprolol succinate) 100 mg prolonged-release oral tablet</td><td><span class=\"nb\">2006-11-10</span></td><td>-</td><td>1 tablet (100 mg) once daily</td><td>-</td></tr><tr><td>Aspirin 81 mg gastro-resistant oral tablet</td><td><span class=\"nb\">2002-01-13</span></td><td>-</td><td>1 tablet (81 mg) once daily</td><td>-</td></tr><tr><td>Simvastatin 20 mg oral tablet</td><td><span class=\"nb\">2002-01-13</span></td><td>-</td><td>1 tablet (20 mg) by mouth once daily</td><td>-</td></tr><tr><td>Carvedilol 3.125 mg oral tablet</td><td><span class=\"nb\">2002-01-13</span></td><td>-</td><td>1 tablet (3.125 mg) by mouth twice daily</td><td>-</td></tr><tr><td>Prasugrel (as prasugrel hydrochloride) 10 mg oral tablet</td><td><span class=\"nb\">2002-01-13</span></td><td>-</td><td>1 tablet (10 mg) once daily</td><td>-</td></tr><tr><td>Losartan potassium 100 mg oral tablet</td><td><span class=\"nb\">2002-01-13</span></td><td>-</td><td>1 tablet (100 mg) by mouth once daily</td><td>-</td></tr></table></div>"
            },
            "entry": [
              {
                "reference": "urn:uuid:38755c7c-97f4-4a99-a9d3-a201dba43627"
              },
              {
                "reference": "urn:uuid:4a98d6fe-7659-424b-8bc8-7d1d31369e31"
              },
              {
                "reference": "urn:uuid:3a8698f4-ce5e-49a4-905e-28a88799ce21"
              },
              {
                "reference": "urn:uuid:52a1f560-0894-405b-b3f9-ce0450eaa9ee"
              },
              {
                "reference": "urn:uuid:69ad1b2b-dde5-448e-ab7f-bef357949444"
              },
              {
                "reference": "urn:uuid:4ec9c978-2279-490e-86e3-5bd68df2926a"
              },
              {
                "reference": "urn:uuid:ae3f0c07-48ac-4b11-af68-7cd16c1c89a2"
              },
              {
                "reference": "urn:uuid:23242601-69ff-4f97-8cc7-42cd999352e8"
              },
              {
                "reference": "urn:uuid:4dcd08a7-10e0-4eea-9d08-6bab86e792a5"
              },
              {
                "reference": "urn:uuid:e906396d-0e61-4b43-8d21-95275c6645b8"
              },
              {
                "reference": "urn:uuid:16f9ee51-c3d6-475a-bb0a-f377926e1474"
              },
              {
                "reference": "urn:uuid:e315ff7b-b248-4a6b-9b8f-86f9e3c4b38f"
              },
              {
                "reference": "urn:uuid:31c29c24-e6b1-46b2-8d15-4e2d690b89fe"
              }
            ],
            "code": {
              "coding": [
                {
                  "system": "http://loinc.org",
                  "code": "10160-0",
                  "display": "History of Medication use Narrative"
                }
              ]
            },
            "title": "Medication list"
          },
          {
            "text": {
              "status": "generated",
              "div": "<div xmlns=\"http://www.w3.org/1999/xhtml\"><table class=\"hl7__ips\"><tr><th>Vaccine</th><th>Date</th></tr><tr><td>Influenza virus antigen only vaccine product</td><td><span class=\"nb\">01-Nov-2024</span></td></tr><tr><td>SARS-CoV-2 mRNA vaccine</td><td><span class=\"nb\">26-Feb-2021</span></td></tr><tr><td>Clostridium tetani toxoid antigen adsorbed only vaccine product</td><td><span class=\"nb\">11-Sep-2015</span></td></tr></table></div>"
            },
            "entry": [
              {
                "reference": "urn:uuid:c8f83bdc-2ef6-4a6f-ace5-5694c2f4ba7b"
              },
              {
                "reference": "urn:uuid:9bd01b58-6039-4bae-bf73-e9c3c8e66e45"
              },
              {
                "reference": "urn:uuid:e05e1141-51e4-47a6-8ff4-38929014bc81"
              }
            ],
            "code": {
              "coding": [
                {
                  "system": "http://loinc.org",
                  "code": "11369-6",
                  "display": "History of Immunization note"
                }
              ]
            },
            "title": "Immunizations list"
          },
          {
            "text": {
              "status": "generated",
              "div": "<div xmlns=\"http://www.w3.org/1999/xhtml\"><table class=\"hl7__ips\"><tr><th>Procedure</th><th>Date</th><th>Reason</th></tr><tr><td>Patient discharge</td><td><span class=\"nb\">16-Dec-2018</span></td><td>-</td></tr><tr><td>Hospice care</td><td><span class=\"nb\">15-Dec-2018</span></td><td>-</td></tr><tr><td>Notifications</td><td><span class=\"nb\">23-Nov-2018</span></td><td>-</td></tr><tr><td>Certification procedure</td><td><span class=\"nb\">23-Nov-2018</span></td><td>-</td></tr><tr><td>Initial patient assessment</td><td><span class=\"nb\">23-Nov-2018</span></td><td>-</td></tr><tr><td>Development of individualized plan of care</td><td><span class=\"nb\">23-Nov-2018</span></td><td>-</td></tr><tr><td>Referral to home health care service</td><td><span class=\"nb\">01-Sep-2017</span></td><td>-</td></tr><tr><td>Medication reconciliation</td><td><span class=\"nb\">23-Dec-2016</span></td><td>-</td></tr><tr><td>Assessment of health and social care needs</td><td><span class=\"nb\">16-Dec-2016</span></td><td>-</td></tr><tr><td>Assessment using AUDIT-C (Alcohol Use Disorders Identification Test - Consumption)</td><td><span class=\"nb\">16-Dec-2016</span></td><td>-</td></tr><tr><td>Screening for domestic abuse</td><td><span class=\"nb\">16-Dec-2016</span></td><td>-</td></tr><tr><td>Assessment of substance use</td><td><span class=\"nb\">16-Dec-2016</span></td><td>-</td></tr></table></div>"
            },
            "entry": [
              {
                "reference": "urn:uuid:2b415552-44f2-48df-bed6-2a71ef490aa2"
              },
              {
                "reference": "urn:uuid:33f9e446-cd0e-47a1-a6f7-59c9bb17a257"
              },
              {
                "reference": "urn:uuid:c6a44e1a-8ca7-41ed-bf10-934037371fcb"
              },
              {
                "reference": "urn:uuid:76781284-7d0f-4161-98fc-48deaf6940b2"
              },
              {
                "reference": "urn:uuid:be22918a-35c2-47a3-b33d-1365e4e04a2d"
              },
              {
                "reference": "urn:uuid:43ff1229-b933-48fd-b5f8-db807fca687d"
              },
              {
                "reference": "urn:uuid:ece3ba4e-44d4-4729-9b5b-ef8237502f0e"
              },
              {
                "reference": "urn:uuid:efbdc768-4f2e-4722-a6e9-91fcae0fd47b"
              },
              {
                "reference": "urn:uuid:f478deca-5d60-40a1-98d5-747da3f42fe1"
              },
              {
                "reference": "urn:uuid:e3207685-307f-4805-94b0-3c1cdc291fb7"
              },
              {
                "reference": "urn:uuid:8241ca0a-29c9-4009-bbe3-7a92e1940689"
              },
              {
                "reference": "urn:uuid:738eba8e-b36f-4646-b51b-165d96b01535"
              }
            ],
            "code": {
              "coding": [
                {
                  "system": "http://loinc.org",
                  "code": "47519-4",
                  "display": "History of Procedures Document"
                }
              ]
            },
            "title": "Procedure History list"
          },
          {
            "text": {
              "status": "generated",
              "div": "<div xmlns=\"http://www.w3.org/1999/xhtml\"><table class=\"hl7__ips\"><tr><th>Allergy/Intolerance</th><th>Onset Date</th><th>Status</th><th>Type</th><th>Reaction</th></tr><tr><td></td><td>?</td><td>active</td><td>?</td><td></td></tr></table></div>"
            },
            "entry": [
              {
                "reference": "urn:uuid:0a855401-64e8-40d9-83a5-fa8aa7760a33"
              }
            ],
            "code": {
              "coding": [
                {
                  "system": "http://loinc.org",
                  "code": "48765-2",
                  "display": "Allergies and adverse reactions Document"
                }
              ]
            },
            "title": "Allergies and Intolerances"
          },
          {
            "text": {
              "status": "generated",
              "div": "<div xmlns=\"http://www.w3.org/1999/xhtml\"><table class=\"hl7__ips\"><tr><th>Active Planned Care / Goals</th><th>Start Date</th><th>Reason</th></tr><tr><td>Care plan</td><td><span class=\"nb\">03-Dec-2013</span></td><td>-</td></tr><tr><td>Dialysis care plan</td><td><span class=\"nb\">08-Sep-2008</span></td><td>-</td></tr><tr><td>Discharge care plan</td><td><span class=\"nb\">13-Jan-2002</span></td><td>-</td></tr><tr><td>Musculoskeletal care</td><td><span class=\"nb\">17-Sep-1993</span></td><td>Localized primary osteoarthritis of the hand</td></tr><tr><td><ul><li>Reduce severity of hand pain associated with osteoarthritis</li><li>Improve ability to perform daily activities using hands</li><li>Increase grip strength in affected hand</li></ul></td><td></td><td></td></tr><tr><td>Lifestyle education regarding hypertension</td><td><span class=\"nb\">03-Feb-1978</span></td><td>Essential hypertension (disorder)</td></tr><tr><td><ul><li>Maintain blood pressure below 130/80 mmHg through lifestyle modification and education.</li><li>Patient will demonstrate adherence to recommended lifestyle modifications for hypertension, including dietary changes, increased physical activity, and reduced sodium intake.</li></ul></td><td></td><td></td></tr><tr><td>Diabetes self management plan</td><td><span class=\"nb\">28-Jan-1972</span></td><td>Prediabetes</td></tr><tr><td><ul><li>Patient will demonstrate understanding of diabetes self-management strategies including diet, exercise, and medication adherence.</li><li>Maintain hemoglobin A1c below 7% to reduce risk of diabetes complications.</li><li>Maintain fasting blood glucose below 100 mg/dL.</li><li>Maintain blood pressure below 130/80 mmHg as part of diabetes self-management.</li><li>Achieve at least 5% reduction in body weight to improve glycemic control.</li></ul></td><td></td><td></td></tr><tr><th>Immunization Recommendation</th><th>Due Date</th><th>Reason</th></tr><tr><td>Vaccine product containing only Influenza virus antigen (medicinal product)</td><td><span class=\"nb\">01-Oct-2025</span></td><td>Annual seasonal influenza vaccination</td></tr></table></div>"
            },
            "entry": [
              {
                "reference": "urn:uuid:f78692f3-4b27-4ff7-81e0-b0f06da8f534"
              },
              {
                "reference": "urn:uuid:3c4554c8-1e52-46cf-bdc9-1dd0d0c39a23"
              },
              {
                "reference": "urn:uuid:a617915c-e514-4874-8ba1-28a1391d66af"
              },
              {
                "reference": "urn:uuid:f5f61bee-b92c-4335-a248-4ca964aeaf7c"
              },
              {
                "reference": "urn:uuid:91e59aa2-d924-47df-9ebd-118df49b087c"
              },
              {
                "reference": "urn:uuid:d85220db-9559-4da2-8b3f-183f99bdde99"
              },
              {
                "reference": "urn:uuid:8d946614-3a40-436a-94f5-14c4cab3fcfd"
              }
            ],
            "code": {
              "coding": [
                {
                  "system": "http://loinc.org",
                  "code": "18776-5",
                  "display": "Plan of care note"
                }
              ]
            },
            "title": "Care Plan"
          },
          {
            "text": {
              "status": "generated",
              "div": "<div xmlns=\"http://www.w3.org/1999/xhtml\"><table class=\"hl7__ips\"><tr><th>Vital Signs</th><th>2024-11-01</th><th>2023-10-27</th></tr><tr><td>Body Height</td><td>183.6 cm</td><td>183.6 cm</td></tr><tr><td>Pain severity - 0-10 verbal numeric rating [Score] - Reported</td><td>2 {score}</td><td>2 {score}</td></tr><tr><td>Body Weight</td><td>93.8 kg</td><td>93.8 kg</td></tr><tr><td>Body mass index (BMI) [Ratio]</td><td>27.8 kg/m2</td><td>27.8 kg/m2</td></tr><tr><td>Diastolic Blood Pressure</td><td>81 mm[Hg]</td><td>78 mm[Hg]</td></tr><tr><td>Systolic Blood Pressure</td><td>88 mm[Hg]</td><td>96 mm[Hg]</td></tr><tr><td>Heart rate</td><td>75 /min</td><td>68 /min</td></tr><tr><td>Respiratory rate</td><td>16 /min</td><td>15 /min</td></tr></table></div>"
            },
            "entry": [
              {
                "reference": "urn:uuid:7e6b60ab-cb20-4e11-8464-fc8e49f5b093"
              },
              {
                "reference": "urn:uuid:6686bd11-dfcb-47ea-9320-558474d96f0d"
              },
              {
                "reference": "urn:uuid:85a28ed4-a157-40d6-8e0e-134f668917cc"
              },
              {
                "reference": "urn:uuid:7a060631-0bc4-4bb3-8d1c-5a1bc8c73057"
              },
              {
                "reference": "urn:uuid:7f6a7baa-d67e-4fe7-b133-3683032542c0"
              },
              {
                "reference": "urn:uuid:1fc698dd-f331-405e-ab3f-da50e704aa53"
              },
              {
                "reference": "urn:uuid:1ec80928-3f18-43c5-852c-65198f7d0696"
              },
              {
                "reference": "urn:uuid:20cbad28-cf33-49f6-9f35-ba383bdc603a"
              },
              {
                "reference": "urn:uuid:e43e5fa4-a918-47a8-9fdf-5509a51ba02d"
              },
              {
                "reference": "urn:uuid:f9e4ccf1-fd69-4dbc-b333-c5b00e369d19"
              },
              {
                "reference": "urn:uuid:a760ff2e-c985-4650-a52b-ff4e1668e94a"
              },
              {
                "reference": "urn:uuid:7dd32711-0e5f-46dd-b73b-6df6c2a72274"
              },
              {
                "reference": "urn:uuid:ff28d0a1-6a71-42e1-8af3-67c0e42e7344"
              },
              {
                "reference": "urn:uuid:f63f02f7-0c32-4e3f-abbc-9c281a9d70b3"
              },
              {
                "reference": "urn:uuid:6d8849f9-7894-40f3-936e-c3ffdcf1d40c"
              },
              {
                "reference": "urn:uuid:55620360-3ea2-4ea9-beac-ae5bd65fb9e4"
              }
            ],
            "code": {
              "coding": [
                {
                  "system": "http://loinc.org",
                  "code": "8716-3",
                  "display": "Vital signs note"
                }
              ]
            },
            "title": "Vital Signs"
          },
          {
            "text": {
              "status": "generated",
              "div": "<div xmlns=\"http://www.w3.org/1999/xhtml\"><table class=\"hl7__ips\"><table class=\"hl7__ips\"><thead><tr><th>Recent Lab Observations</th><th>01-NOV-2024</th><th>Reference&#xA0;Range</th><th>Unit</th></tr></thead><tbody><tr><td>Hemoglobin A1c/Hemoglobin.total in Blood</td><td><strong>4.0 L</strong></td><td>4.6 - 6.4</td><td>%</td></tr><tr><td>Glucose [Mass/volume] in Blood</td><td>90.0</td><td>70 - 110</td><td>mg/dL</td></tr><tr><td>Urea nitrogen [Mass/volume] in Blood</td><td>12.7</td><td>7 - 43</td><td>mg/dL</td></tr><tr><td>Creatinine [Mass/volume] in Blood</td><td><strong>0.8 L</strong></td><td>0.9 - 1.3</td><td>mg/dL</td></tr><tr><td>Calcium [Mass/volume] in Blood</td><td>8.6</td><td>8.5 - 10.5</td><td>mg/dL</td></tr><tr><td>Sodium [Moles/volume] in Blood</td><td>141.1</td><td>135 - 145</td><td>mmol/L</td></tr><tr><td>Potassium [Moles/volume] in Blood</td><td>4.7</td><td>3.5 - 5.3</td><td>mmol/L</td></tr><tr><td>Chloride [Moles/volume] in Blood</td><td>101.5</td><td>98 - 108</td><td>mmol/L</td></tr><tr><td>Carbon dioxide, total [Moles/volume] in Blood</td><td>23.8</td><td>22 - 29</td><td>mmol/L</td></tr></tbody></table></table></div>"
            },
            "entry": [
              {
                "reference": "urn:uuid:b74b7c86-dada-400a-8ff0-2f9fb964f6d8"
              },
              {
                "reference": "urn:uuid:8dcc664f-f023-46ef-9423-591ba3374298"
              },
              {
                "reference": "urn:uuid:fd31a024-b59b-492e-b693-85693b5dd48e"
              },
              {
                "reference": "urn:uuid:63edc1d8-82ad-4afb-9f0e-2c80cdcdd10c"
              },
              {
                "reference": "urn:uuid:1b6594f8-5ef1-40ea-aa37-ac0a3d88aad7"
              },
              {
                "reference": "urn:uuid:70a79c97-084a-4f01-ae72-dd586af39663"
              },
              {
                "reference": "urn:uuid:06094e8b-887b-402c-825a-7920b4c0e1a0"
              },
              {
                "reference": "urn:uuid:253f8d25-d925-4ba4-8c05-aac57a9fa22c"
              },
              {
                "reference": "urn:uuid:3095593a-1c86-4109-870c-f03b6e2148f5"
              }
            ],
            "code": {
              "coding": [
                {
                  "system": "http://loinc.org",
                  "code": "30954-2",
                  "display": "Relevant diagnostic tests/laboratory data note"
                }
              ]
            },
            "title": "Relevant diagnostic tests/laboratory data"
          },
          {
            "text": {
              "status": "generated",
              "div": "<div xmlns=\"http://www.w3.org/1999/xhtml\"><table class=\"hl7__ips\"><tr><th>Device</th><th>Date (since)</th></tr><tr><td>Home nebulizer (physical object)</td><td><span class=\"nb\">23-Jun-1989</span></td></tr><tr><td>Blood glucose meter (physical object)</td><td><span class=\"nb\">28-Jan-1972</span></td></tr></table></div>"
            },
            "entry": [
              {
                "reference": "urn:uuid:8c8e4af9-ed30-46aa-a7b7-ce5d7795542d"
              },
              {
                "reference": "urn:uuid:2136224d-2ac4-4385-bcf3-edfb0b3881fb"
              }
            ],
            "code": {
              "coding": [
                {
                  "system": "http://loinc.org",
                  "code": "46264-8",
                  "display": "History of medical device use"
                }
              ]
            },
            "title": "Device Use"
          }
        ],
        "title": "European Patient Summary",
        "status": "final",
        "subject": {
          "reference": "urn:uuid:38a01245-e632-4521-b4da-3964d204fa3c",
          "display": "Gabrielius Gaičiūnas"
        },
        "custodian": {
          "reference": "urn:uuid:bd8387a5-d6b4-4070-9dc4-6b466bd25c87"
        },
        "date": "2024-11-01",
        "confidentiality": "N"
      }
    },
    {
      "fullUrl": "urn:uuid:38a01245-e632-4521-b4da-3964d204fa3c",
      "resource": {
        "resourceType": "Patient",
        "id": "38a01245-e632-4521-b4da-3964d204fa3c",
        "meta": {
          "security": [
            {
              "system": "http://terminology.hl7.org/CodeSystem/v3-ActReason",
              "code": "HTEST"
            },
            {
              "system": "http://terminology.hl7.org/CodeSystem/v3-ActReason",
              "code": "TRAIN"
            }
          ],
          "tag": [
            {
              "system": "https://synderai.net/fhir/CodeSystem/tags",
              "code": "synthetic",
              "display": "SYNDERAI Synthetic data"
            }
          ],
          "profile": [
            "http://hl7.eu/fhir/eps/StructureDefinition/patient-eu-eps"
          ]
        },
        "identifier": [
          {
            "type": {
              "coding": [
                {
                  "code": "PT",
                  "system": "http://terminology.hl7.org/CodeSystem/v2-0203"
                }
              ]
            },
            "system": "http://ec.europa.eu/identifier/eci",
            "value": "5711-320329-3"
          },
          {
            "type": {
              "coding": [
                {
                  "code": "MR",
                  "system": "http://terminology.hl7.org/CodeSystem/v2-0203"
                }
              ]
            },
            "system": "http://local.setting.eu/identifier",
            "value": "b2cdf95b-c12d-3f56-84e4-d085f70edd0c"
          }
        ],
        "name": [
          {
            "family": "Gaičiūnas"
          },
          {
            "given": [
              "Gabrielius"
            ]
          },
          {
            "text": "Gabrielius Gaičiūnas"
          }
        ],
        "address": [
          {
            "line": [
              "5951 Monika Rapid"
            ],
            "use": "home",
            "type": "physical",
            "postalCode": "97190",
            "city": "Poškaton",
            "country": "Lithuania"
          }
        ],
        "telecom": [
          {
            "system": "phone",
            "value": "+370 71605146"
          }
        ],
        "extension": [
          {
            "url": "http://hl7.org/fhir/StructureDefinition/patient-nationality",
            "valueCodeableConcept": {
              "coding": [
                {
                  "code": "LT",
                  "system": "http://hl7.org/fhir/ValueSet/country"
                }
              ]
            }
          }
        ],
        "text": {
          "status": "generated",
          "div": "<div xmlns=\"http://www.w3.org/1999/xhtml\"><table class=\"hl7__ips\"><tr><td>Gabrielius Gaičiūnas</td><td>male</td><td>19-May-1948</td></tr></table></div>"
        },
        "gender": "male",
        "birthDate": "1948-05-19"
      }
    },
    {
      "fullUrl": "urn:uuid:071915e1-0c9d-4d5e-9447-5625c8b4cda7",
      "resource": {
        "resourceType": "PractitionerRole",
        "id": "071915e1-0c9d-4d5e-9447-5625c8b4cda7",
        "meta": {
          "profile": [
            "http://hl7.eu/fhir/base/StructureDefinition/practitionerRole-eu"
          ]
        },
        "text": {
          "status": "generated",
          "div": "<div xmlns=\"http://www.w3.org/1999/xhtml\"><table class=\"hl7__ips\">Provider Role Id 071915e1-0c9d-4d5e-9447-5625c8b4cda7</table></div>"
        },
        "practitioner": {
          "reference": "urn:uuid:9beaeda5-b86b-4dcc-8a80-e24879698e73"
        },
        "organization": {
          "reference": "urn:uuid:bd8387a5-d6b4-4070-9dc4-6b466bd25c87"
        }
      }
    },
    {
      "fullUrl": "urn:uuid:9beaeda5-b86b-4dcc-8a80-e24879698e73",
      "resource": {
        "resourceType": "Practitioner",
        "id": "9beaeda5-b86b-4dcc-8a80-e24879698e73",
        "meta": {
          "profile": [
            "http://hl7.eu/fhir/base/StructureDefinition/practitioner-eu"
          ]
        },
        "name": [
          {
            "prefix": [
              "Dr."
            ],
            "given": [
              "Hel"
            ],
            "family": "Ping"
          }
        ],
        "text": {
          "status": "generated",
          "div": "<div xmlns=\"http://www.w3.org/1999/xhtml\"><table class=\"hl7__ips\">Dr. Hel Ping</table></div>"
        }
      }
    },
    {
      "fullUrl": "urn:uuid:bd8387a5-d6b4-4070-9dc4-6b466bd25c87",
      "resource": {
        "resourceType": "Organization",
        "id": "bd8387a5-d6b4-4070-9dc4-6b466bd25c87",
        "meta": {
          "profile": [
            "http://hl7.eu/fhir/base/StructureDefinition/organization-eu"
          ]
        },
        "identifier": [
          {
            "assigner": {
              "display": "HL7 Europe"
            },
            "system": "urn:oid:2.16.840.1.113883.2.51.999",
            "value": "6e86ebc0-ce84-47b3-a194-d9ae7b40dfa7"
          }
        ],
        "address": [
          {
            "line": [
              "182 Savanorių pr."
            ],
            "city": "Klaipėda",
            "postalCode": "LT-91200",
            "country": "Lithuania"
          }
        ],
        "text": {
          "status": "generated",
          "div": "<div xmlns=\"http://www.w3.org/1999/xhtml\"><table class=\"hl7__ips\">Dr. Tomas Bakas</table></div>"
        },
        "name": "Dr. Tomas Bakas"
      }
    },
    {
      "fullUrl": "urn:uuid:f2eded00-604c-4fae-8697-b7f764b2ced8",
      "resource": {
        "resourceType": "Condition",
        "id": "f2eded00-604c-4fae-8697-b7f764b2ced8",
        "meta": {
          "profile": [
            "http://hl7.org/fhir/uv/ips/StructureDefinition/Condition-uv-ips"
          ]
        },
        "category": [
          {
            "coding": [
              {
                "code": "problem-list-item",
                "system": "http://terminology.hl7.org/CodeSystem/condition-category",
                "display": "Problem List Item"
              }
            ]
          }
        ],
        "code": {
          "coding": [
            {
              "code": "414545008",
              "system": "http://snomed.info/sct",
              "display": "Ischemic heart disease (disorder)"
            }
          ],
          "text": "Ischemic heart disease"
        },
        "text": {
          "status": "generated",
          "div": "<div xmlns=\"http://www.w3.org/1999/xhtml\"><table class=\"hl7__ips\"><tr><td>Ischemic heart disease</td><td><span class=\"nb\">03-Nov-2006</span></td><td>active</td></tr></table></div>"
        },
        "onsetDateTime": "2006-11-03",
        "subject": {
          "reference": "urn:uuid:",
          "display": "Gabrielius Gaičiūnas"
        },
        "asserter": {
          "reference": "urn:uuid:",
          "display": "Dr. Tomas Bakas"
        }
      }
    },
    {
      "fullUrl": "urn:uuid:2aa5e1ab-8bc8-4b15-a584-b837641c2b63",
      "resource": {
        "resourceType": "Condition",
        "id": "2aa5e1ab-8bc8-4b15-a584-b837641c2b63",
        "meta": {
          "profile": [
            "http://hl7.org/fhir/uv/ips/StructureDefinition/Condition-uv-ips"
          ]
        },
        "category": [
          {
            "coding": [
              {
                "code": "problem-list-item",
                "system": "http://terminology.hl7.org/CodeSystem/condition-category",
                "display": "Problem List Item"
              }
            ]
          }
        ],
        "code": {
          "coding": [
            {
              "code": "157141000119108",
              "system": "http://snomed.info/sct",
              "display": "Proteinuria due to type 2 diabetes mellitus (disorder)"
            }
          ],
          "text": "Proteinuria due to type 2 diabetes mellitus"
        },
        "text": {
          "status": "generated",
          "div": "<div xmlns=\"http://www.w3.org/1999/xhtml\"><table class=\"hl7__ips\"><tr><td>Proteinuria due to type 2 diabetes mellitus</td><td><span class=\"nb\">19-Apr-2002</span></td><td>active</td></tr></table></div>"
        },
        "onsetDateTime": "2002-04-19",
        "subject": {
          "reference": "urn:uuid:",
          "display": "Gabrielius Gaičiūnas"
        },
        "asserter": {
          "reference": "urn:uuid:",
          "display": "Dr. Tomas Bakas"
        }
      }
    },
    {
      "fullUrl": "urn:uuid:0bbe051a-55b5-4618-a05a-157371c5c89b",
      "resource": {
        "resourceType": "Condition",
        "id": "0bbe051a-55b5-4618-a05a-157371c5c89b",
        "meta": {
          "profile": [
            "http://hl7.org/fhir/uv/ips/StructureDefinition/Condition-uv-ips"
          ]
        },
        "category": [
          {
            "coding": [
              {
                "code": "problem-list-item",
                "system": "http://terminology.hl7.org/CodeSystem/condition-category",
                "display": "Problem List Item"
              }
            ]
          }
        ],
        "code": {
          "coding": [
            {
              "code": "401303003",
              "system": "http://snomed.info/sct",
              "display": "Acute ST segment elevation myocardial infarction (disorder)"
            }
          ],
          "text": "Acute ST segment elevation myocardial infarction"
        },
        "text": {
          "status": "generated",
          "div": "<div xmlns=\"http://www.w3.org/1999/xhtml\"><table class=\"hl7__ips\"><tr><td>Acute ST segment elevation myocardial infarction</td><td><span class=\"nb\">13-Jan-2002</span></td><td>active</td></tr></table></div>"
        },
        "onsetDateTime": "2002-01-13",
        "subject": {
          "reference": "urn:uuid:",
          "display": "Gabrielius Gaičiūnas"
        },
        "asserter": {
          "reference": "urn:uuid:",
          "display": "Dr. Tomas Bakas"
        }
      }
    },
    {
      "fullUrl": "urn:uuid:113984bb-99ad-4f47-8ccb-60e85933588c",
      "resource": {
        "resourceType": "Condition",
        "id": "113984bb-99ad-4f47-8ccb-60e85933588c",
        "meta": {
          "profile": [
            "http://hl7.org/fhir/uv/ips/StructureDefinition/Condition-uv-ips"
          ]
        },
        "category": [
          {
            "coding": [
              {
                "code": "problem-list-item",
                "system": "http://terminology.hl7.org/CodeSystem/condition-category",
                "display": "Problem List Item"
              }
            ]
          }
        ],
        "code": {
          "coding": [
            {
              "code": "40055000",
              "system": "http://snomed.info/sct",
              "display": "Chronic sinusitis (disorder)"
            }
          ],
          "text": "Chronic sinusitis"
        },
        "text": {
          "status": "generated",
          "div": "<div xmlns=\"http://www.w3.org/1999/xhtml\"><table class=\"hl7__ips\"><tr><td>Chronic sinusitis</td><td><span class=\"nb\">23-Jun-1989</span></td><td>active</td></tr></table></div>"
        },
        "onsetDateTime": "1989-06-23",
        "subject": {
          "reference": "urn:uuid:",
          "display": "Gabrielius Gaičiūnas"
        },
        "asserter": {
          "reference": "urn:uuid:",
          "display": "Dr. Tomas Bakas"
        }
      }
    },
    {
      "fullUrl": "urn:uuid:46b9ecb6-a4b9-4b98-b029-d769462df42d",
      "resource": {
        "resourceType": "Condition",
        "id": "46b9ecb6-a4b9-4b98-b029-d769462df42d",
        "meta": {
          "profile": [
            "http://hl7.org/fhir/uv/ips/StructureDefinition/Condition-uv-ips"
          ]
        },
        "category": [
          {
            "coding": [
              {
                "code": "problem-list-item",
                "system": "http://terminology.hl7.org/CodeSystem/condition-category",
                "display": "Problem List Item"
              }
            ]
          }
        ],
        "code": {
          "coding": [
            {
              "code": "90781000119102",
              "system": "http://snomed.info/sct",
              "display": "Microalbuminuria due to type 2 diabetes mellitus (disorder)"
            }
          ],
          "text": "Microalbuminuria due to type 2 diabetes mellitus"
        },
        "text": {
          "status": "generated",
          "div": "<div xmlns=\"http://www.w3.org/1999/xhtml\"><table class=\"hl7__ips\"><tr><td>Microalbuminuria due to type 2 diabetes mellitus</td><td><span class=\"nb\">27-Jan-1989</span></td><td>active</td></tr></table></div>"
        },
        "onsetDateTime": "1989-01-27",
        "subject": {
          "reference": "urn:uuid:",
          "display": "Gabrielius Gaičiūnas"
        },
        "asserter": {
          "reference": "urn:uuid:",
          "display": "Dr. Tomas Bakas"
        }
      }
    },
    {
      "fullUrl": "urn:uuid:da6adf1f-a083-45ef-a819-53f1603b5641",
      "resource": {
        "resourceType": "Condition",
        "id": "da6adf1f-a083-45ef-a819-53f1603b5641",
        "meta": {
          "profile": [
            "http://hl7.org/fhir/uv/ips/StructureDefinition/Condition-uv-ips"
          ]
        },
        "category": [
          {
            "coding": [
              {
                "code": "problem-list-item",
                "system": "http://terminology.hl7.org/CodeSystem/condition-category",
                "display": "Problem List Item"
              }
            ]
          }
        ],
        "code": {
          "coding": [
            {
              "code": "127013003",
              "system": "http://snomed.info/sct",
              "display": "Disorder of kidney due to diabetes mellitus (disorder)"
            }
          ],
          "text": "Disorder of kidney due to diabetes mellitus"
        },
        "text": {
          "status": "generated",
          "div": "<div xmlns=\"http://www.w3.org/1999/xhtml\"><table class=\"hl7__ips\"><tr><td>Disorder of kidney due to diabetes mellitus</td><td><span class=\"nb\">20-Apr-1979</span></td><td>active</td></tr></table></div>"
        },
        "onsetDateTime": "1979-04-20",
        "subject": {
          "reference": "urn:uuid:",
          "display": "Gabrielius Gaičiūnas"
        },
        "asserter": {
          "reference": "urn:uuid:",
          "display": "Dr. Tomas Bakas"
        }
      }
    },
    {
      "fullUrl": "urn:uuid:cbda8034-cac7-4d24-970d-5ed229dfca60",
      "resource": {
        "resourceType": "Condition",
        "id": "cbda8034-cac7-4d24-970d-5ed229dfca60",
        "meta": {
          "profile": [
            "http://hl7.org/fhir/uv/ips/StructureDefinition/Condition-uv-ips"
          ]
        },
        "category": [
          {
            "coding": [
              {
                "code": "problem-list-item",
                "system": "http://terminology.hl7.org/CodeSystem/condition-category",
                "display": "Problem List Item"
              }
            ]
          }
        ],
        "code": {
          "coding": [
            {
              "code": "59621000",
              "system": "http://snomed.info/sct",
              "display": "Essential hypertension (disorder)"
            }
          ],
          "text": "Essential hypertension"
        },
        "text": {
          "status": "generated",
          "div": "<div xmlns=\"http://www.w3.org/1999/xhtml\"><table class=\"hl7__ips\"><tr><td>Essential hypertension</td><td><span class=\"nb\">03-Feb-1978</span></td><td>active</td></tr></table></div>"
        },
        "onsetDateTime": "1978-02-03",
        "subject": {
          "reference": "urn:uuid:",
          "display": "Gabrielius Gaičiūnas"
        },
        "asserter": {
          "reference": "urn:uuid:",
          "display": "Dr. Tomas Bakas"
        }
      }
    },
    {
      "fullUrl": "urn:uuid:fed49c90-143b-42f2-89f9-69ea319eee77",
      "resource": {
        "resourceType": "Condition",
        "id": "fed49c90-143b-42f2-89f9-69ea319eee77",
        "meta": {
          "profile": [
            "http://hl7.org/fhir/uv/ips/StructureDefinition/Condition-uv-ips"
          ]
        },
        "category": [
          {
            "coding": [
              {
                "code": "problem-list-item",
                "system": "http://terminology.hl7.org/CodeSystem/condition-category",
                "display": "Problem List Item"
              }
            ]
          }
        ],
        "code": {
          "coding": [
            {
              "code": "15777000",
              "system": "http://snomed.info/sct",
              "display": "Prediabetes (disorder)"
            }
          ],
          "text": "Prediabetes"
        },
        "text": {
          "status": "generated",
          "div": "<div xmlns=\"http://www.w3.org/1999/xhtml\"><table class=\"hl7__ips\"><tr><td>Prediabetes</td><td><span class=\"nb\">28-Jan-1972</span></td><td>active</td></tr></table></div>"
        },
        "onsetDateTime": "1972-01-28",
        "subject": {
          "reference": "urn:uuid:",
          "display": "Gabrielius Gaičiūnas"
        },
        "asserter": {
          "reference": "urn:uuid:",
          "display": "Dr. Tomas Bakas"
        }
      }
    },
    {
      "fullUrl": "urn:uuid:9d4ab7cf-05aa-491e-98a4-bbc23338d52f",
      "resource": {
        "resourceType": "Condition",
        "id": "9d4ab7cf-05aa-491e-98a4-bbc23338d52f",
        "meta": {
          "profile": [
            "http://hl7.org/fhir/uv/ips/StructureDefinition/Condition-uv-ips"
          ]
        },
        "category": [
          {
            "coding": [
              {
                "code": "problem-list-item",
                "system": "http://terminology.hl7.org/CodeSystem/condition-category",
                "display": "Problem List Item"
              }
            ]
          }
        ],
        "code": {
          "coding": [
            {
              "code": "271737000",
              "system": "http://snomed.info/sct",
              "display": "Anemia (disorder)"
            }
          ],
          "text": "Anemia"
        },
        "text": {
          "status": "generated",
          "div": "<div xmlns=\"http://www.w3.org/1999/xhtml\"><table class=\"hl7__ips\"><tr><td>Anemia</td><td><span class=\"nb\">28-Jan-1972</span></td><td>active</td></tr></table></div>"
        },
        "onsetDateTime": "1972-01-28",
        "subject": {
          "reference": "urn:uuid:",
          "display": "Gabrielius Gaičiūnas"
        },
        "asserter": {
          "reference": "urn:uuid:",
          "display": "Dr. Tomas Bakas"
        }
      }
    },
    {
      "fullUrl": "urn:uuid:692d27c1-0b73-4b37-a60b-f67ee5f900ee",
      "resource": {
        "resourceType": "Condition",
        "id": "692d27c1-0b73-4b37-a60b-f67ee5f900ee",
        "meta": {
          "profile": [
            "http://hl7.org/fhir/uv/ips/StructureDefinition/Condition-uv-ips"
          ]
        },
        "category": [
          {
            "coding": [
              {
                "code": "problem-list-item",
                "system": "http://terminology.hl7.org/CodeSystem/condition-category",
                "display": "Problem List Item"
              }
            ]
          }
        ],
        "code": {
          "coding": [
            {
              "code": "195662009",
              "system": "http://snomed.info/sct",
              "display": "Acute viral pharyngitis (disorder)"
            }
          ],
          "text": "Acute viral pharyngitis"
        },
        "text": {
          "status": "generated",
          "div": "<div xmlns=\"http://www.w3.org/1999/xhtml\"><table class=\"hl7__ips\"><tr><td><span class=\"grayedout\">Acute viral pharyngitis</span></td><td><span class=\"nb\">08-Dec-2016 - 21-Dec-2016</span></td><td><span class=\"grayedout\">inactive</span></td></tr></table></div>"
        },
        "onsetDateTime": "2016-12-08",
        "abatementDateTime": "2016-12-21",
        "subject": {
          "reference": "urn:uuid:",
          "display": "Gabrielius Gaičiūnas"
        },
        "asserter": {
          "reference": "urn:uuid:",
          "display": "Dr. Tomas Bakas"
        }
      }
    },
    {
      "fullUrl": "urn:uuid:6400a550-2f13-4f63-8b22-bf89fb608bed",
      "resource": {
        "resourceType": "Medication",
        "id": "6400a550-2f13-4f63-8b22-bf89fb608bed",
        "meta": {
          "profile": [
            "http://hl7.eu/fhir/eps/StructureDefinition/Medication-eu-eps"
          ]
        },
        "code": {
          "coding": [
            {
              "code": "106892",
              "system": "http://www.nlm.nih.gov/research/umls/rxnorm",
              "display": "insulin isophane  human 70 UNT/ML / insulin  regular  human 30 UNT/ML Injectable Suspension [Humulin]"
            }
          ],
          "text": "insulin isophane  human 70 UNT/ML / insulin  regular  human 30 UNT/ML Injectable Suspension [Humulin]"
        },
        "text": {
          "status": "generated",
          "div": "<div xmlns=\"http://www.w3.org/1999/xhtml\">insulin isophane human 70 UNT/ML / insulin regular human 30 UNT/ML Injectable Suspension [Humulin]</div>"
        }
      }
    },
    {
      "fullUrl": "urn:uuid:38755c7c-97f4-4a99-a9d3-a201dba43627",
      "resource": {
        "resourceType": "MedicationStatement",
        "id": "38755c7c-97f4-4a99-a9d3-a201dba43627",
        "meta": {
          "profile": [
            "http://hl7.eu/fhir/eps/StructureDefinition/MedicationStatement-eu-eps"
          ]
        },
        "effectivePeriod": {
          "start": "2024-11-01"
        },
        "dosage": [
          {
            "doseAndRate": [
              {
                "doseQuantity": {
                  "value": 10,
                  "unit": "U",
                  "system": "$ucum",
                  "code": "U"
                }
              }
            ],
            "timing": {
              "repeat": {
                "frequency": 2,
                "period": 1,
                "periodUnit": "d"
              }
            },
            "text": "10 units subcutaneously before breakfast and dinner",
            "asNeededBoolean": false
          }
        ],
        "reasonCode": [
          {
            "coding": [
              {
                "code": "15777000",
                "system": "http://snomed.info/sct",
                "display": "Prediabetes"
              }
            ]
          }
        ],
        "text": {
          "status": "generated",
          "div": "<div xmlns=\"http://www.w3.org/1999/xhtml\"><table class=\"hl7__ips first25\"><tr><th>Medication</th><th>Since</th><th>Form</th><th>Dosage</th><th>Reason</th></tr><tr><td>insulin isophane human 70 UNT/ML / insulin regular human 30 UNT/ML Injectable Suspension [Humulin]</td><td><span class=\"nb\">2024-11-01</span></td><td>-</td><td>10 units subcutaneously before breakfast and dinner</td><td>Prediabetes</td></tr></table></div>"
        },
        "status": "active",
        "medicationReference": {
          "reference": "urn:uuid:6400a550-2f13-4f63-8b22-bf89fb608bed",
          "display": "insulin isophane  human 70 UNT/ML / insulin  regular  human 30 UNT/ML Injectable Suspension [Humulin]"
        },
        "subject": {
          "reference": "urn:uuid:38a01245-e632-4521-b4da-3964d204fa3c",
          "display": "Gabrielius Gaičiūnas"
        }
      }
    },
    {
      "fullUrl": "urn:uuid:136d1490-be85-45fa-b86b-03ae5f18eb28",
      "resource": {
        "resourceType": "Medication",
        "id": "136d1490-be85-45fa-b86b-03ae5f18eb28",
        "meta": {
          "profile": [
            "http://hl7.eu/fhir/eps/StructureDefinition/Medication-eu-eps"
          ]
        },
        "code": {
          "coding": [
            {
              "code": "329653008",
              "system": "http://snomed.info/sct",
              "display": "Ibuprofen 400 mg oral tablet"
            }
          ],
          "text": "Ibuprofen 400 mg oral tablet"
        },
        "text": {
          "status": "generated",
          "div": "<div xmlns=\"http://www.w3.org/1999/xhtml\">Ibuprofen 400 mg oral tablet</div>"
        }
      }
    },
    {
      "fullUrl": "urn:uuid:4a98d6fe-7659-424b-8bc8-7d1d31369e31",
      "resource": {
        "resourceType": "MedicationStatement",
        "id": "4a98d6fe-7659-424b-8bc8-7d1d31369e31",
        "meta": {
          "profile": [
            "http://hl7.eu/fhir/eps/StructureDefinition/MedicationStatement-eu-eps"
          ]
        },
        "effectivePeriod": {
          "start": "2024-11-01"
        },
        "dosage": [
          {
            "doseAndRate": [
              {
                "doseQuantity": {
                  "value": 1,
                  "unit": "{tbl}",
                  "system": "$ucum",
                  "code": "{tbl}"
                }
              }
            ],
            "timing": {
              "repeat": {
                "frequency": 3,
                "period": 1,
                "periodUnit": "d"
              }
            },
            "text": "1 tablet (400 mg) every 8 hours as needed",
            "asNeededBoolean": true
          }
        ],
        "text": {
          "status": "generated",
          "div": "<div xmlns=\"http://www.w3.org/1999/xhtml\"><table class=\"hl7__ips first25\"><tr><th>Medication</th><th>Since</th><th>Form</th><th>Dosage</th><th>Reason</th></tr><tr><td>Ibuprofen 400 mg oral tablet</td><td><span class=\"nb\">2024-11-01</span></td><td>-</td><td>1 tablet (400 mg) every 8 hours as needed</td><td>-</td></tr></table></div>"
        },
        "status": "active",
        "medicationReference": {
          "reference": "urn:uuid:136d1490-be85-45fa-b86b-03ae5f18eb28",
          "display": "Ibuprofen 400 mg oral tablet"
        },
        "subject": {
          "reference": "urn:uuid:38a01245-e632-4521-b4da-3964d204fa3c",
          "display": "Gabrielius Gaičiūnas"
        }
      }
    },
    {
      "fullUrl": "urn:uuid:5f9b763f-3b44-4916-b11c-86707c4404e0",
      "resource": {
        "resourceType": "Medication",
        "id": "5f9b763f-3b44-4916-b11c-86707c4404e0",
        "meta": {
          "profile": [
            "http://hl7.eu/fhir/eps/StructureDefinition/Medication-eu-eps"
          ]
        },
        "code": {
          "coding": [
            {
              "code": "1153431000",
              "system": "http://snomed.info/sct",
              "display": "Amlodipine (as amlodipine besylate) 2.5 mg oral tablet"
            }
          ],
          "text": "Amlodipine (as amlodipine besylate) 2.5 mg oral tablet"
        },
        "text": {
          "status": "generated",
          "div": "<div xmlns=\"http://www.w3.org/1999/xhtml\">Amlodipine (as amlodipine besylate) 2.5 mg oral tablet</div>"
        }
      }
    },
    {
      "fullUrl": "urn:uuid:3a8698f4-ce5e-49a4-905e-28a88799ce21",
      "resource": {
        "resourceType": "MedicationStatement",
        "id": "3a8698f4-ce5e-49a4-905e-28a88799ce21",
        "meta": {
          "profile": [
            "http://hl7.eu/fhir/eps/StructureDefinition/MedicationStatement-eu-eps"
          ]
        },
        "effectivePeriod": {
          "start": "2024-11-01"
        },
        "dosage": [
          {
            "doseAndRate": [
              {
                "doseQuantity": {
                  "value": 1,
                  "unit": "{tbl}",
                  "code": "{tbl}"
                }
              }
            ],
            "timing": {
              "repeat": {
                "frequency": 1,
                "period": 1,
                "periodUnit": "d"
              }
            },
            "text": "1 tablet (2.5 mg) by mouth once daily",
            "asNeededBoolean": false
          }
        ],
        "reasonCode": [
          {
            "coding": [
              {
                "code": "59621000",
                "system": "http://snomed.info/sct",
                "display": "Essential hypertension (disorder)"
              }
            ]
          }
        ],
        "text": {
          "status": "generated",
          "div": "<div xmlns=\"http://www.w3.org/1999/xhtml\"><table class=\"hl7__ips first25\"><tr><th>Medication</th><th>Since</th><th>Form</th><th>Dosage</th><th>Reason</th></tr><tr><td>Amlodipine (as amlodipine besylate) 2.5 mg oral tablet</td><td><span class=\"nb\">2024-11-01</span></td><td>-</td><td>1 tablet (2.5 mg) by mouth once daily</td><td>Essential hypertension (disorder)</td></tr></table></div>"
        },
        "status": "active",
        "medicationReference": {
          "reference": "urn:uuid:5f9b763f-3b44-4916-b11c-86707c4404e0",
          "display": "Amlodipine (as amlodipine besylate) 2.5 mg oral tablet"
        },
        "subject": {
          "reference": "urn:uuid:38a01245-e632-4521-b4da-3964d204fa3c",
          "display": "Gabrielius Gaičiūnas"
        }
      }
    },
    {
      "fullUrl": "urn:uuid:a448a545-d7b1-4327-94af-b2b7eb8f49e1",
      "resource": {
        "resourceType": "Medication",
        "id": "a448a545-d7b1-4327-94af-b2b7eb8f49e1",
        "meta": {
          "profile": [
            "http://hl7.eu/fhir/eps/StructureDefinition/Medication-eu-eps"
          ]
        },
        "code": {
          "coding": [
            {
              "code": "376209006",
              "system": "http://snomed.info/sct",
              "display": "Hydrochlorothiazide 25 mg oral tablet"
            }
          ],
          "text": "Hydrochlorothiazide 25 mg oral tablet"
        },
        "text": {
          "status": "generated",
          "div": "<div xmlns=\"http://www.w3.org/1999/xhtml\">Hydrochlorothiazide 25 mg oral tablet</div>"
        }
      }
    },
    {
      "fullUrl": "urn:uuid:52a1f560-0894-405b-b3f9-ce0450eaa9ee",
      "resource": {
        "resourceType": "MedicationStatement",
        "id": "52a1f560-0894-405b-b3f9-ce0450eaa9ee",
        "meta": {
          "profile": [
            "http://hl7.eu/fhir/eps/StructureDefinition/MedicationStatement-eu-eps"
          ]
        },
        "effectivePeriod": {
          "start": "2024-11-01"
        },
        "dosage": [
          {
            "doseAndRate": [
              {
                "doseQuantity": {
                  "value": 1,
                  "unit": "{tbl} (25 mg)",
                  "system": "$ucum",
                  "code": "{tbl}"
                }
              }
            ],
            "timing": {
              "repeat": {
                "frequency": 1,
                "period": 1,
                "periodUnit": "d"
              }
            },
            "text": "1 tablet (25 mg) by mouth once daily",
            "asNeededBoolean": false
          }
        ],
        "reasonCode": [
          {
            "coding": [
              {
                "code": "59621000",
                "system": "http://snomed.info/sct",
                "display": "Essential hypertension (disorder)"
              }
            ]
          }
        ],
        "text": {
          "status": "generated",
          "div": "<div xmlns=\"http://www.w3.org/1999/xhtml\"><table class=\"hl7__ips first25\"><tr><th>Medication</th><th>Since</th><th>Form</th><th>Dosage</th><th>Reason</th></tr><tr><td>Hydrochlorothiazide 25 mg oral tablet</td><td><span class=\"nb\">2024-11-01</span></td><td>-</td><td>1 tablet (25 mg) by mouth once daily</td><td>Essential hypertension (disorder)</td></tr></table></div>"
        },
        "status": "active",
        "medicationReference": {
          "reference": "urn:uuid:a448a545-d7b1-4327-94af-b2b7eb8f49e1",
          "display": "Hydrochlorothiazide 25 mg oral tablet"
        },
        "subject": {
          "reference": "urn:uuid:38a01245-e632-4521-b4da-3964d204fa3c",
          "display": "Gabrielius Gaičiūnas"
        }
      }
    },
    {
      "fullUrl": "urn:uuid:61527d31-8bb9-4c74-917b-2430ab743690",
      "resource": {
        "resourceType": "Medication",
        "id": "61527d31-8bb9-4c74-917b-2430ab743690",
        "meta": {
          "profile": [
            "http://hl7.eu/fhir/eps/StructureDefinition/Medication-eu-eps"
          ]
        },
        "code": {
          "coding": [
            {
              "code": "1664463",
              "system": "http://www.nlm.nih.gov/research/umls/rxnorm",
              "display": "24 HR tacrolimus 1 MG Extended Release Oral Tablet"
            }
          ],
          "text": "24 HR tacrolimus 1 MG Extended Release Oral Tablet"
        },
        "text": {
          "status": "generated",
          "div": "<div xmlns=\"http://www.w3.org/1999/xhtml\">24 HR tacrolimus 1 MG Extended Release Oral Tablet</div>"
        }
      }
    },
    {
      "fullUrl": "urn:uuid:69ad1b2b-dde5-448e-ab7f-bef357949444",
      "resource": {
        "resourceType": "MedicationStatement",
        "id": "69ad1b2b-dde5-448e-ab7f-bef357949444",
        "meta": {
          "profile": [
            "http://hl7.eu/fhir/eps/StructureDefinition/MedicationStatement-eu-eps"
          ]
        },
        "effectivePeriod": {
          "start": "2024-11-01"
        },
        "dosage": [
          {
            "doseAndRate": [
              {
                "doseQuantity": {
                  "value": 1,
                  "unit": "{tbl} (1 mg)",
                  "system": "$ucum",
                  "code": "{tbl}"
                }
              }
            ],
            "timing": {
              "repeat": {
                "frequency": 1,
                "period": 1,
                "periodUnit": "d"
              }
            },
            "text": "1 tablet (1 mg) by mouth once daily",
            "asNeededBoolean": false
          }
        ],
        "reasonCode": [
          {
            "coding": [
              {
                "code": "161665007",
                "system": "http://snomed.info/sct",
                "display": "History of renal transplant (situation)"
              }
            ]
          }
        ],
        "text": {
          "status": "generated",
          "div": "<div xmlns=\"http://www.w3.org/1999/xhtml\"><table class=\"hl7__ips first25\"><tr><th>Medication</th><th>Since</th><th>Form</th><th>Dosage</th><th>Reason</th></tr><tr><td>24 HR tacrolimus 1 MG Extended Release Oral Tablet</td><td><span class=\"nb\">2024-11-01</span></td><td>-</td><td>1 tablet (1 mg) by mouth once daily</td><td>History of renal transplant (situation)</td></tr></table></div>"
        },
        "status": "active",
        "medicationReference": {
          "reference": "urn:uuid:61527d31-8bb9-4c74-917b-2430ab743690",
          "display": "24 HR tacrolimus 1 MG Extended Release Oral Tablet"
        },
        "subject": {
          "reference": "urn:uuid:38a01245-e632-4521-b4da-3964d204fa3c",
          "display": "Gabrielius Gaičiūnas"
        }
      }
    },
    {
      "fullUrl": "urn:uuid:f242078f-92c4-4a48-be25-3d1ca26bb54e",
      "resource": {
        "resourceType": "Medication",
        "id": "f242078f-92c4-4a48-be25-3d1ca26bb54e",
        "meta": {
          "profile": [
            "http://hl7.eu/fhir/eps/StructureDefinition/Medication-eu-eps"
          ]
        },
        "code": {
          "coding": [
            {
              "code": "783586007",
              "system": "http://snomed.info/sct",
              "display": "Clopidogrel (as clopidogrel bisulfate) 75 mg oral tablet"
            }
          ],
          "text": "Clopidogrel (as clopidogrel bisulfate) 75 mg oral tablet"
        },
        "text": {
          "status": "generated",
          "div": "<div xmlns=\"http://www.w3.org/1999/xhtml\">Clopidogrel (as clopidogrel bisulfate) 75 mg oral tablet</div>"
        }
      }
    },
    {
      "fullUrl": "urn:uuid:4ec9c978-2279-490e-86e3-5bd68df2926a",
      "resource": {
        "resourceType": "MedicationStatement",
        "id": "4ec9c978-2279-490e-86e3-5bd68df2926a",
        "meta": {
          "profile": [
            "http://hl7.eu/fhir/eps/StructureDefinition/MedicationStatement-eu-eps"
          ]
        },
        "effectivePeriod": {
          "start": "2006-11-10"
        },
        "dosage": [
          {
            "doseAndRate": [
              {
                "doseQuantity": {
                  "value": 1,
                  "unit": "{tbl}",
                  "code": "{tbl}"
                }
              }
            ],
            "timing": {
              "repeat": {
                "frequency": 1,
                "period": 1,
                "periodUnit": "d"
              }
            },
            "text": "1 tablet (75 mg) once daily",
            "asNeededBoolean": false
          }
        ],
        "text": {
          "status": "generated",
          "div": "<div xmlns=\"http://www.w3.org/1999/xhtml\"><table class=\"hl7__ips first25\"><tr><th>Medication</th><th>Since</th><th>Form</th><th>Dosage</th><th>Reason</th></tr><tr><td>Clopidogrel (as clopidogrel bisulfate) 75 mg oral tablet</td><td><span class=\"nb\">2006-11-10</span></td><td>-</td><td>1 tablet (75 mg) once daily</td><td>-</td></tr></table></div>"
        },
        "status": "active",
        "medicationReference": {
          "reference": "urn:uuid:f242078f-92c4-4a48-be25-3d1ca26bb54e",
          "display": "Clopidogrel (as clopidogrel bisulfate) 75 mg oral tablet"
        },
        "subject": {
          "reference": "urn:uuid:38a01245-e632-4521-b4da-3964d204fa3c",
          "display": "Gabrielius Gaičiūnas"
        }
      }
    },
    {
      "fullUrl": "urn:uuid:378a023b-9552-489c-8fa5-b7b9a1a504d8",
      "resource": {
        "resourceType": "Medication",
        "id": "378a023b-9552-489c-8fa5-b7b9a1a504d8",
        "meta": {
          "profile": [
            "http://hl7.eu/fhir/eps/StructureDefinition/Medication-eu-eps"
          ]
        },
        "code": {
          "coding": [
            {
              "code": "425176000",
              "system": "http://snomed.info/sct",
              "display": "Nitroglycerin 400 microgram/actuation sublingual spray"
            }
          ],
          "text": "Nitroglycerin 400 microgram/actuation sublingual spray"
        },
        "text": {
          "status": "generated",
          "div": "<div xmlns=\"http://www.w3.org/1999/xhtml\">Nitroglycerin 400 microgram/actuation sublingual spray</div>"
        }
      }
    },
    {
      "fullUrl": "urn:uuid:ae3f0c07-48ac-4b11-af68-7cd16c1c89a2",
      "resource": {
        "resourceType": "MedicationStatement",
        "id": "ae3f0c07-48ac-4b11-af68-7cd16c1c89a2",
        "meta": {
          "profile": [
            "http://hl7.eu/fhir/eps/StructureDefinition/MedicationStatement-eu-eps"
          ]
        },
        "effectivePeriod": {
          "start": "2006-11-10"
        },
        "dosage": [
          {
            "doseAndRate": [
              {
                "doseQuantity": {
                  "value": 400,
                  "unit": "microgram",
                  "code": "ug"
                }
              }
            ],
            "timing": {
              "repeat": {
                "frequency": 1,
                "period": 5,
                "periodUnit": "min"
              }
            },
            "text": "400 micrograms per spray, spray one dose under the tongue as needed for chest pain, may repeat every 5 minutes as needed, up to 3 sprays in 15 minutes",
            "asNeededBoolean": true
          }
        ],
        "text": {
          "status": "generated",
          "div": "<div xmlns=\"http://www.w3.org/1999/xhtml\"><table class=\"hl7__ips first25\"><tr><th>Medication</th><th>Since</th><th>Form</th><th>Dosage</th><th>Reason</th></tr><tr><td>Nitroglycerin 400 microgram/actuation sublingual spray</td><td><span class=\"nb\">2006-11-10</span></td><td>-</td><td>400 micrograms per spray, spray one dose under the tongue as needed for chest pain, may repeat every 5 minutes as needed, up to 3 sprays in 15 minutes</td><td>-</td></tr></table></div>"
        },
        "status": "active",
        "medicationReference": {
          "reference": "urn:uuid:378a023b-9552-489c-8fa5-b7b9a1a504d8",
          "display": "Nitroglycerin 400 microgram/actuation sublingual spray"
        },
        "subject": {
          "reference": "urn:uuid:38a01245-e632-4521-b4da-3964d204fa3c",
          "display": "Gabrielius Gaičiūnas"
        }
      }
    },
    {
      "fullUrl": "urn:uuid:18521788-c37d-4f12-b519-8e47d4862079",
      "resource": {
        "resourceType": "Medication",
        "id": "18521788-c37d-4f12-b519-8e47d4862079",
        "meta": {
          "profile": [
            "http://hl7.eu/fhir/eps/StructureDefinition/Medication-eu-eps"
          ]
        },
        "code": {
          "coding": [
            {
              "code": "879980009",
              "system": "http://snomed.info/sct",
              "display": "Metoprolol tartrate (as metoprolol succinate) 100 mg prolonged-release oral tablet"
            }
          ],
          "text": "Metoprolol tartrate (as metoprolol succinate) 100 mg prolonged-release oral tablet"
        },
        "text": {
          "status": "generated",
          "div": "<div xmlns=\"http://www.w3.org/1999/xhtml\">Metoprolol tartrate (as metoprolol succinate) 100 mg prolonged-release oral tablet</div>"
        }
      }
    },
    {
      "fullUrl": "urn:uuid:23242601-69ff-4f97-8cc7-42cd999352e8",
      "resource": {
        "resourceType": "MedicationStatement",
        "id": "23242601-69ff-4f97-8cc7-42cd999352e8",
        "meta": {
          "profile": [
            "http://hl7.eu/fhir/eps/StructureDefinition/MedicationStatement-eu-eps"
          ]
        },
        "effectivePeriod": {
          "start": "2006-11-10"
        },
        "dosage": [
          {
            "doseAndRate": [
              {
                "doseQuantity": {
                  "value": 1,
                  "unit": "{tbl}",
                  "code": "{tbl}"
                }
              }
            ],
            "timing": {
              "repeat": {
                "frequency": 1,
                "period": 1,
                "periodUnit": "d"
              }
            },
            "text": "1 tablet (100 mg) once daily",
            "asNeededBoolean": false
          }
        ],
        "text": {
          "status": "generated",
          "div": "<div xmlns=\"http://www.w3.org/1999/xhtml\"><table class=\"hl7__ips first25\"><tr><th>Medication</th><th>Since</th><th>Form</th><th>Dosage</th><th>Reason</th></tr><tr><td>Metoprolol tartrate (as metoprolol succinate) 100 mg prolonged-release oral tablet</td><td><span class=\"nb\">2006-11-10</span></td><td>-</td><td>1 tablet (100 mg) once daily</td><td>-</td></tr></table></div>"
        },
        "status": "active",
        "medicationReference": {
          "reference": "urn:uuid:18521788-c37d-4f12-b519-8e47d4862079",
          "display": "Metoprolol tartrate (as metoprolol succinate) 100 mg prolonged-release oral tablet"
        },
        "subject": {
          "reference": "urn:uuid:38a01245-e632-4521-b4da-3964d204fa3c",
          "display": "Gabrielius Gaičiūnas"
        }
      }
    },
    {
      "fullUrl": "urn:uuid:95993719-2ffd-4e28-b1d0-70b9a2077add",
      "resource": {
        "resourceType": "Medication",
        "id": "95993719-2ffd-4e28-b1d0-70b9a2077add",
        "meta": {
          "profile": [
            "http://hl7.eu/fhir/eps/StructureDefinition/Medication-eu-eps"
          ]
        },
        "code": {
          "coding": [
            {
              "code": "765570009",
              "system": "http://snomed.info/sct",
              "display": "Aspirin 81 mg gastro-resistant oral tablet"
            }
          ],
          "text": "Aspirin 81 mg gastro-resistant oral tablet"
        },
        "text": {
          "status": "generated",
          "div": "<div xmlns=\"http://www.w3.org/1999/xhtml\">Aspirin 81 mg gastro-resistant oral tablet</div>"
        }
      }
    },
    {
      "fullUrl": "urn:uuid:4dcd08a7-10e0-4eea-9d08-6bab86e792a5",
      "resource": {
        "resourceType": "MedicationStatement",
        "id": "4dcd08a7-10e0-4eea-9d08-6bab86e792a5",
        "meta": {
          "profile": [
            "http://hl7.eu/fhir/eps/StructureDefinition/MedicationStatement-eu-eps"
          ]
        },
        "effectivePeriod": {
          "start": "2002-01-13"
        },
        "dosage": [
          {
            "doseAndRate": [
              {
                "doseQuantity": {
                  "value": 1,
                  "unit": "{tbl}",
                  "system": "$ucum",
                  "code": "{tbl}"
                }
              }
            ],
            "timing": {
              "repeat": {
                "frequency": 1,
                "period": 1,
                "periodUnit": "d"
              }
            },
            "text": "1 tablet (81 mg) once daily",
            "asNeededBoolean": false
          }
        ],
        "text": {
          "status": "generated",
          "div": "<div xmlns=\"http://www.w3.org/1999/xhtml\"><table class=\"hl7__ips first25\"><tr><th>Medication</th><th>Since</th><th>Form</th><th>Dosage</th><th>Reason</th></tr><tr><td>Aspirin 81 mg gastro-resistant oral tablet</td><td><span class=\"nb\">2002-01-13</span></td><td>-</td><td>1 tablet (81 mg) once daily</td><td>-</td></tr></table></div>"
        },
        "status": "active",
        "medicationReference": {
          "reference": "urn:uuid:95993719-2ffd-4e28-b1d0-70b9a2077add",
          "display": "Aspirin 81 mg gastro-resistant oral tablet"
        },
        "subject": {
          "reference": "urn:uuid:38a01245-e632-4521-b4da-3964d204fa3c",
          "display": "Gabrielius Gaičiūnas"
        }
      }
    },
    {
      "fullUrl": "urn:uuid:3730e985-77dd-4f3a-92fa-89a050f01338",
      "resource": {
        "resourceType": "Medication",
        "id": "3730e985-77dd-4f3a-92fa-89a050f01338",
        "meta": {
          "profile": [
            "http://hl7.eu/fhir/eps/StructureDefinition/Medication-eu-eps"
          ]
        },
        "code": {
          "coding": [
            {
              "code": "319997009",
              "system": "http://snomed.info/sct",
              "display": "Simvastatin 20 mg oral tablet"
            }
          ],
          "text": "Simvastatin 20 mg oral tablet"
        },
        "text": {
          "status": "generated",
          "div": "<div xmlns=\"http://www.w3.org/1999/xhtml\">Simvastatin 20 mg oral tablet</div>"
        }
      }
    },
    {
      "fullUrl": "urn:uuid:e906396d-0e61-4b43-8d21-95275c6645b8",
      "resource": {
        "resourceType": "MedicationStatement",
        "id": "e906396d-0e61-4b43-8d21-95275c6645b8",
        "meta": {
          "profile": [
            "http://hl7.eu/fhir/eps/StructureDefinition/MedicationStatement-eu-eps"
          ]
        },
        "effectivePeriod": {
          "start": "2002-01-13"
        },
        "dosage": [
          {
            "doseAndRate": [
              {
                "doseQuantity": {
                  "value": 1,
                  "unit": "{tbl}",
                  "code": "{tbl}"
                }
              }
            ],
            "timing": {
              "repeat": {
                "frequency": 1,
                "period": 1,
                "periodUnit": "d"
              }
            },
            "text": "1 tablet (20 mg) by mouth once daily",
            "asNeededBoolean": false
          }
        ],
        "text": {
          "status": "generated",
          "div": "<div xmlns=\"http://www.w3.org/1999/xhtml\"><table class=\"hl7__ips first25\"><tr><th>Medication</th><th>Since</th><th>Form</th><th>Dosage</th><th>Reason</th></tr><tr><td>Simvastatin 20 mg oral tablet</td><td><span class=\"nb\">2002-01-13</span></td><td>-</td><td>1 tablet (20 mg) by mouth once daily</td><td>-</td></tr></table></div>"
        },
        "status": "active",
        "medicationReference": {
          "reference": "urn:uuid:3730e985-77dd-4f3a-92fa-89a050f01338",
          "display": "Simvastatin 20 mg oral tablet"
        },
        "subject": {
          "reference": "urn:uuid:38a01245-e632-4521-b4da-3964d204fa3c",
          "display": "Gabrielius Gaičiūnas"
        }
      }
    },
    {
      "fullUrl": "urn:uuid:58092a45-766a-4592-b027-283d64d8c04b",
      "resource": {
        "resourceType": "Medication",
        "id": "58092a45-766a-4592-b027-283d64d8c04b",
        "meta": {
          "profile": [
            "http://hl7.eu/fhir/eps/StructureDefinition/Medication-eu-eps"
          ]
        },
        "code": {
          "coding": [
            {
              "code": "318633000",
              "system": "http://snomed.info/sct",
              "display": "Carvedilol 3.125 mg oral tablet"
            }
          ],
          "text": "Carvedilol 3.125 mg oral tablet"
        },
        "text": {
          "status": "generated",
          "div": "<div xmlns=\"http://www.w3.org/1999/xhtml\">Carvedilol 3.125 mg oral tablet</div>"
        }
      }
    },
    {
      "fullUrl": "urn:uuid:16f9ee51-c3d6-475a-bb0a-f377926e1474",
      "resource": {
        "resourceType": "MedicationStatement",
        "id": "16f9ee51-c3d6-475a-bb0a-f377926e1474",
        "meta": {
          "profile": [
            "http://hl7.eu/fhir/eps/StructureDefinition/MedicationStatement-eu-eps"
          ]
        },
        "effectivePeriod": {
          "start": "2002-01-13"
        },
        "dosage": [
          {
            "doseAndRate": [
              {
                "doseQuantity": {
                  "value": 1,
                  "unit": "{tbl}",
                  "system": "$ucum",
                  "code": "{tbl}"
                }
              }
            ],
            "timing": {
              "repeat": {
                "frequency": 2,
                "period": 1,
                "periodUnit": "d"
              }
            },
            "text": "1 tablet (3.125 mg) by mouth twice daily",
            "asNeededBoolean": false
          }
        ],
        "text": {
          "status": "generated",
          "div": "<div xmlns=\"http://www.w3.org/1999/xhtml\"><table class=\"hl7__ips first25\"><tr><th>Medication</th><th>Since</th><th>Form</th><th>Dosage</th><th>Reason</th></tr><tr><td>Carvedilol 3.125 mg oral tablet</td><td><span class=\"nb\">2002-01-13</span></td><td>-</td><td>1 tablet (3.125 mg) by mouth twice daily</td><td>-</td></tr></table></div>"
        },
        "status": "active",
        "medicationReference": {
          "reference": "urn:uuid:58092a45-766a-4592-b027-283d64d8c04b",
          "display": "Carvedilol 3.125 mg oral tablet"
        },
        "subject": {
          "reference": "urn:uuid:38a01245-e632-4521-b4da-3964d204fa3c",
          "display": "Gabrielius Gaičiūnas"
        }
      }
    },
    {
      "fullUrl": "urn:uuid:4d5b7d16-b52d-4316-8b7b-c2d3325298fe",
      "resource": {
        "resourceType": "Medication",
        "id": "4d5b7d16-b52d-4316-8b7b-c2d3325298fe",
        "meta": {
          "profile": [
            "http://hl7.eu/fhir/eps/StructureDefinition/Medication-eu-eps"
          ]
        },
        "code": {
          "coding": [
            {
              "code": "783368008",
              "system": "http://snomed.info/sct",
              "display": "Prasugrel (as prasugrel hydrochloride) 10 mg oral tablet"
            }
          ],
          "text": "Prasugrel (as prasugrel hydrochloride) 10 mg oral tablet"
        },
        "text": {
          "status": "generated",
          "div": "<div xmlns=\"http://www.w3.org/1999/xhtml\">Prasugrel (as prasugrel hydrochloride) 10 mg oral tablet</div>"
        }
      }
    },
    {
      "fullUrl": "urn:uuid:e315ff7b-b248-4a6b-9b8f-86f9e3c4b38f",
      "resource": {
        "resourceType": "MedicationStatement",
        "id": "e315ff7b-b248-4a6b-9b8f-86f9e3c4b38f",
        "meta": {
          "profile": [
            "http://hl7.eu/fhir/eps/StructureDefinition/MedicationStatement-eu-eps"
          ]
        },
        "effectivePeriod": {
          "start": "2002-01-13"
        },
        "dosage": [
          {
            "doseAndRate": [
              {
                "doseQuantity": {
                  "value": 1,
                  "unit": "{tbl}",
                  "code": "{tbl}"
                }
              }
            ],
            "timing": {
              "repeat": {
                "frequency": 1,
                "period": 1,
                "periodUnit": "d"
              }
            },
            "text": "1 tablet (10 mg) once daily",
            "asNeededBoolean": false
          }
        ],
        "text": {
          "status": "generated",
          "div": "<div xmlns=\"http://www.w3.org/1999/xhtml\"><table class=\"hl7__ips first25\"><tr><th>Medication</th><th>Since</th><th>Form</th><th>Dosage</th><th>Reason</th></tr><tr><td>Prasugrel (as prasugrel hydrochloride) 10 mg oral tablet</td><td><span class=\"nb\">2002-01-13</span></td><td>-</td><td>1 tablet (10 mg) once daily</td><td>-</td></tr></table></div>"
        },
        "status": "active",
        "medicationReference": {
          "reference": "urn:uuid:4d5b7d16-b52d-4316-8b7b-c2d3325298fe",
          "display": "Prasugrel (as prasugrel hydrochloride) 10 mg oral tablet"
        },
        "subject": {
          "reference": "urn:uuid:38a01245-e632-4521-b4da-3964d204fa3c",
          "display": "Gabrielius Gaičiūnas"
        }
      }
    },
    {
      "fullUrl": "urn:uuid:eb017173-7c6c-4941-a327-bdedf85d9a94",
      "resource": {
        "resourceType": "Medication",
        "id": "eb017173-7c6c-4941-a327-bdedf85d9a94",
        "meta": {
          "profile": [
            "http://hl7.eu/fhir/eps/StructureDefinition/Medication-eu-eps"
          ]
        },
        "code": {
          "coding": [
            {
              "code": "407784004",
              "system": "http://snomed.info/sct",
              "display": "Losartan potassium 100 mg oral tablet"
            }
          ],
          "text": "Losartan potassium 100 mg oral tablet"
        },
        "text": {
          "status": "generated",
          "div": "<div xmlns=\"http://www.w3.org/1999/xhtml\">Losartan potassium 100 mg oral tablet</div>"
        }
      }
    },
    {
      "fullUrl": "urn:uuid:31c29c24-e6b1-46b2-8d15-4e2d690b89fe",
      "resource": {
        "resourceType": "MedicationStatement",
        "id": "31c29c24-e6b1-46b2-8d15-4e2d690b89fe",
        "meta": {
          "profile": [
            "http://hl7.eu/fhir/eps/StructureDefinition/MedicationStatement-eu-eps"
          ]
        },
        "effectivePeriod": {
          "start": "2002-01-13"
        },
        "dosage": [
          {
            "doseAndRate": [
              {
                "doseQuantity": {
                  "value": 1,
                  "unit": "{tbl}",
                  "system": "$ucum",
                  "code": "{tbl}"
                }
              }
            ],
            "timing": {
              "repeat": {
                "frequency": 1,
                "period": 1,
                "periodUnit": "d"
              }
            },
            "text": "1 tablet (100 mg) by mouth once daily",
            "asNeededBoolean": false
          }
        ],
        "text": {
          "status": "generated",
          "div": "<div xmlns=\"http://www.w3.org/1999/xhtml\"><table class=\"hl7__ips first25\"><tr><th>Medication</th><th>Since</th><th>Form</th><th>Dosage</th><th>Reason</th></tr><tr><td>Losartan potassium 100 mg oral tablet</td><td><span class=\"nb\">2002-01-13</span></td><td>-</td><td>1 tablet (100 mg) by mouth once daily</td><td>-</td></tr></table></div>"
        },
        "status": "active",
        "medicationReference": {
          "reference": "urn:uuid:eb017173-7c6c-4941-a327-bdedf85d9a94",
          "display": "Losartan potassium 100 mg oral tablet"
        },
        "subject": {
          "reference": "urn:uuid:38a01245-e632-4521-b4da-3964d204fa3c",
          "display": "Gabrielius Gaičiūnas"
        }
      }
    },
    {
      "fullUrl": "urn:uuid:c8f83bdc-2ef6-4a6f-ace5-5694c2f4ba7b",
      "resource": {
        "resourceType": "Immunization",
        "id": "c8f83bdc-2ef6-4a6f-ace5-5694c2f4ba7b",
        "meta": {
          "profile": [
            "http://hl7.org/fhir/uv/ips/StructureDefinition/Immunization-uv-ips"
          ]
        },
        "vaccineCode": {
          "coding": [
            {
              "code": "1181000221105",
              "system": "http://snomed.info/sct",
              "display": "Vaccine product containing Influenza virus antigen"
            },
            {
              "code": "J07BB02",
              "system": "http://www.whocc.no/atc",
              "display": "Influenza, inactivated, split virus"
            }
          ],
          "text": "Influenza virus antigen only vaccine product"
        },
        "site": {
          "coding": [
            {
              "code": "244979005",
              "system": "http://snomed.info/sct",
              "display": "Entire muscle of upper arm"
            }
          ],
          "text": "Entire muscle of upper arm"
        },
        "route": {
          "coding": [
            {
              "code": "78421000",
              "system": "http://snomed.info/sct",
              "display": "Intramuscular route"
            }
          ],
          "text": "Intramuscular route"
        },
        "text": {
          "status": "generated",
          "div": "<div xmlns=\"http://www.w3.org/1999/xhtml\"><table class=\"hl7__ips\"><tr><td>Influenza virus antigen only vaccine product</td><td><span class=\"nb\">01-Nov-2024</span></td></tr></table></div>"
        },
        "status": "completed",
        "patient": {
          "reference": "urn:uuid:38a01245-e632-4521-b4da-3964d204fa3c",
          "display": "Gabrielius Gaičiūnas"
        },
        "occurrenceDateTime": "2024-11-01",
        "lotNumber": "AA-nZZOq",
        "expirationDate": "2025-04-24"
      }
    },
    {
      "fullUrl": "urn:uuid:9bd01b58-6039-4bae-bf73-e9c3c8e66e45",
      "resource": {
        "resourceType": "Immunization",
        "id": "9bd01b58-6039-4bae-bf73-e9c3c8e66e45",
        "meta": {
          "profile": [
            "http://hl7.org/fhir/uv/ips/StructureDefinition/Immunization-uv-ips"
          ]
        },
        "vaccineCode": {
          "coding": [
            {
              "code": "1119349007",
              "system": "http://snomed.info/sct",
              "display": "Vaccine product containing SARS-CoV-2 mRNA"
            },
            {
              "code": "J07BX03",
              "system": "http://www.whocc.no/atc",
              "display": "COVID-19 mRNA vaccines"
            }
          ],
          "text": "SARS-CoV-2 mRNA vaccine"
        },
        "site": {
          "coding": [
            {
              "code": "244979005",
              "system": "http://snomed.info/sct",
              "display": "Entire muscle of upper arm"
            }
          ],
          "text": "Entire muscle of upper arm"
        },
        "route": {
          "coding": [
            {
              "code": "78421000",
              "system": "http://snomed.info/sct",
              "display": "Intramuscular route"
            }
          ],
          "text": "Intramuscular route"
        },
        "text": {
          "status": "generated",
          "div": "<div xmlns=\"http://www.w3.org/1999/xhtml\"><table class=\"hl7__ips\"><tr><td>SARS-CoV-2 mRNA vaccine</td><td><span class=\"nb\">26-Feb-2021</span></td></tr></table></div>"
        },
        "status": "completed",
        "patient": {
          "reference": "urn:uuid:38a01245-e632-4521-b4da-3964d204fa3c",
          "display": "Gabrielius Gaičiūnas"
        },
        "occurrenceDateTime": "2021-02-26",
        "lotNumber": "TS-cyiHxk",
        "expirationDate": "2021-04-17"
      }
    },
    {
      "fullUrl": "urn:uuid:e05e1141-51e4-47a6-8ff4-38929014bc81",
      "resource": {
        "resourceType": "Immunization",
        "id": "e05e1141-51e4-47a6-8ff4-38929014bc81",
        "meta": {
          "profile": [
            "http://hl7.org/fhir/uv/ips/StructureDefinition/Immunization-uv-ips"
          ]
        },
        "vaccineCode": {
          "coding": [
            {
              "code": "777725002",
              "system": "http://snomed.info/sct",
              "display": "Vaccine product containing only Clostridium tetani toxoid antigen adsorbed"
            },
            {
              "code": "J07AM51",
              "system": "http://www.whocc.no/atc",
              "display": "Diphtheria-tetanus vaccines, adult type"
            }
          ],
          "text": "Clostridium tetani toxoid antigen adsorbed only vaccine product"
        },
        "site": {
          "coding": [
            {
              "code": "244979005",
              "system": "http://snomed.info/sct",
              "display": "Entire muscle of upper arm"
            }
          ],
          "text": "Entire muscle of upper arm"
        },
        "route": {
          "coding": [
            {
              "code": "78421000",
              "system": "http://snomed.info/sct",
              "display": "Intramuscular route"
            }
          ],
          "text": "Intramuscular route"
        },
        "text": {
          "status": "generated",
          "div": "<div xmlns=\"http://www.w3.org/1999/xhtml\"><table class=\"hl7__ips\"><tr><td>Clostridium tetani toxoid antigen adsorbed only vaccine product</td><td><span class=\"nb\">11-Sep-2015</span></td></tr></table></div>"
        },
        "status": "completed",
        "patient": {
          "reference": "urn:uuid:38a01245-e632-4521-b4da-3964d204fa3c",
          "display": "Gabrielius Gaičiūnas"
        },
        "occurrenceDateTime": "2015-09-11",
        "lotNumber": "HW-XcbNrM",
        "expirationDate": "2016-04-17"
      }
    },
    {
      "fullUrl": "urn:uuid:2b415552-44f2-48df-bed6-2a71ef490aa2",
      "resource": {
        "resourceType": "Procedure",
        "id": "2b415552-44f2-48df-bed6-2a71ef490aa2",
        "meta": {
          "profile": [
            "http://hl7.org/fhir/uv/ips/StructureDefinition/Procedure-uv-ips"
          ]
        },
        "code": {
          "coding": [
            {
              "code": "58000006",
              "system": "http://snomed.info/sct",
              "display": "Patient discharge (procedure)"
            }
          ],
          "text": "Patient discharge"
        },
        "text": {
          "status": "generated",
          "div": "<div xmlns=\"http://www.w3.org/1999/xhtml\"><table class=\"hl7__ips\"><tr><td>Patient discharge</td><td><span class=\"nb\">16-Dec-2018</span></td><td>-</td></tr></table></div>"
        },
        "status": "completed",
        "performedDateTime": "2018-12-16",
        "subject": {
          "reference": "urn:uuid:",
          "display": "Gabrielius Gaičiūnas"
        }
      }
    },
    {
      "fullUrl": "urn:uuid:33f9e446-cd0e-47a1-a6f7-59c9bb17a257",
      "resource": {
        "resourceType": "Procedure",
        "id": "33f9e446-cd0e-47a1-a6f7-59c9bb17a257",
        "meta": {
          "profile": [
            "http://hl7.org/fhir/uv/ips/StructureDefinition/Procedure-uv-ips"
          ]
        },
        "code": {
          "coding": [
            {
              "code": "385763009",
              "system": "http://snomed.info/sct",
              "display": "Hospice care (regime/therapy)"
            }
          ],
          "text": "Hospice care"
        },
        "text": {
          "status": "generated",
          "div": "<div xmlns=\"http://www.w3.org/1999/xhtml\"><table class=\"hl7__ips\"><tr><td>Hospice care</td><td><span class=\"nb\">15-Dec-2018</span></td><td>-</td></tr></table></div>"
        },
        "status": "completed",
        "performedDateTime": "2018-12-15",
        "subject": {
          "reference": "urn:uuid:",
          "display": "Gabrielius Gaičiūnas"
        }
      }
    },
    {
      "fullUrl": "urn:uuid:c6a44e1a-8ca7-41ed-bf10-934037371fcb",
      "resource": {
        "resourceType": "Procedure",
        "id": "c6a44e1a-8ca7-41ed-bf10-934037371fcb",
        "meta": {
          "profile": [
            "http://hl7.org/fhir/uv/ips/StructureDefinition/Procedure-uv-ips"
          ]
        },
        "code": {
          "coding": [
            {
              "code": "185087000",
              "system": "http://snomed.info/sct",
              "display": "Notifications (procedure)"
            }
          ],
          "text": "Notifications"
        },
        "text": {
          "status": "generated",
          "div": "<div xmlns=\"http://www.w3.org/1999/xhtml\"><table class=\"hl7__ips\"><tr><td>Notifications</td><td><span class=\"nb\">23-Nov-2018</span></td><td>-</td></tr></table></div>"
        },
        "status": "completed",
        "performedDateTime": "2018-11-23",
        "subject": {
          "reference": "urn:uuid:",
          "display": "Gabrielius Gaičiūnas"
        }
      }
    },
    {
      "fullUrl": "urn:uuid:76781284-7d0f-4161-98fc-48deaf6940b2",
      "resource": {
        "resourceType": "Procedure",
        "id": "76781284-7d0f-4161-98fc-48deaf6940b2",
        "meta": {
          "profile": [
            "http://hl7.org/fhir/uv/ips/StructureDefinition/Procedure-uv-ips"
          ]
        },
        "code": {
          "coding": [
            {
              "code": "310417005",
              "system": "http://snomed.info/sct",
              "display": "Certification procedure (procedure)"
            }
          ],
          "text": "Certification procedure"
        },
        "text": {
          "status": "generated",
          "div": "<div xmlns=\"http://www.w3.org/1999/xhtml\"><table class=\"hl7__ips\"><tr><td>Certification procedure</td><td><span class=\"nb\">23-Nov-2018</span></td><td>-</td></tr></table></div>"
        },
        "status": "completed",
        "performedDateTime": "2018-11-23",
        "subject": {
          "reference": "urn:uuid:",
          "display": "Gabrielius Gaičiūnas"
        }
      }
    },
    {
      "fullUrl": "urn:uuid:be22918a-35c2-47a3-b33d-1365e4e04a2d",
      "resource": {
        "resourceType": "Procedure",
        "id": "be22918a-35c2-47a3-b33d-1365e4e04a2d",
        "meta": {
          "profile": [
            "http://hl7.org/fhir/uv/ips/StructureDefinition/Procedure-uv-ips"
          ]
        },
        "code": {
          "coding": [
            {
              "code": "315639002",
              "system": "http://snomed.info/sct",
              "display": "Initial patient assessment (procedure)"
            }
          ],
          "text": "Initial patient assessment"
        },
        "text": {
          "status": "generated",
          "div": "<div xmlns=\"http://www.w3.org/1999/xhtml\"><table class=\"hl7__ips\"><tr><td>Initial patient assessment</td><td><span class=\"nb\">23-Nov-2018</span></td><td>-</td></tr></table></div>"
        },
        "status": "completed",
        "performedDateTime": "2018-11-23",
        "subject": {
          "reference": "urn:uuid:",
          "display": "Gabrielius Gaičiūnas"
        }
      }
    },
    {
      "fullUrl": "urn:uuid:43ff1229-b933-48fd-b5f8-db807fca687d",
      "resource": {
        "resourceType": "Procedure",
        "id": "43ff1229-b933-48fd-b5f8-db807fca687d",
        "meta": {
          "profile": [
            "http://hl7.org/fhir/uv/ips/StructureDefinition/Procedure-uv-ips"
          ]
        },
        "code": {
          "coding": [
            {
              "code": "370789001",
              "system": "http://snomed.info/sct",
              "display": "Development of individualized plan of care (procedure)"
            }
          ],
          "text": "Development of individualized plan of care"
        },
        "text": {
          "status": "generated",
          "div": "<div xmlns=\"http://www.w3.org/1999/xhtml\"><table class=\"hl7__ips\"><tr><td>Development of individualized plan of care</td><td><span class=\"nb\">23-Nov-2018</span></td><td>-</td></tr></table></div>"
        },
        "status": "completed",
        "performedDateTime": "2018-11-23",
        "subject": {
          "reference": "urn:uuid:",
          "display": "Gabrielius Gaičiūnas"
        }
      }
    },
    {
      "fullUrl": "urn:uuid:ece3ba4e-44d4-4729-9b5b-ef8237502f0e",
      "resource": {
        "resourceType": "Procedure",
        "id": "ece3ba4e-44d4-4729-9b5b-ef8237502f0e",
        "meta": {
          "profile": [
            "http://hl7.org/fhir/uv/ips/StructureDefinition/Procedure-uv-ips"
          ]
        },
        "code": {
          "coding": [
            {
              "code": "417511005",
              "system": "http://snomed.info/sct",
              "display": "Referral to home health care service (procedure)"
            }
          ],
          "text": "Referral to home health care service"
        },
        "text": {
          "status": "generated",
          "div": "<div xmlns=\"http://www.w3.org/1999/xhtml\"><table class=\"hl7__ips\"><tr><td>Referral to home health care service</td><td><span class=\"nb\">01-Sep-2017</span></td><td>-</td></tr></table></div>"
        },
        "status": "completed",
        "performedDateTime": "2017-09-01",
        "subject": {
          "reference": "urn:uuid:",
          "display": "Gabrielius Gaičiūnas"
        }
      }
    },
    {
      "fullUrl": "urn:uuid:efbdc768-4f2e-4722-a6e9-91fcae0fd47b",
      "resource": {
        "resourceType": "Procedure",
        "id": "efbdc768-4f2e-4722-a6e9-91fcae0fd47b",
        "meta": {
          "profile": [
            "http://hl7.org/fhir/uv/ips/StructureDefinition/Procedure-uv-ips"
          ]
        },
        "code": {
          "coding": [
            {
              "code": "430193006",
              "system": "http://snomed.info/sct",
              "display": "Medication Reconciliation (procedure)"
            }
          ],
          "text": "Medication reconciliation"
        },
        "text": {
          "status": "generated",
          "div": "<div xmlns=\"http://www.w3.org/1999/xhtml\"><table class=\"hl7__ips\"><tr><td>Medication reconciliation</td><td><span class=\"nb\">23-Dec-2016</span></td><td>-</td></tr></table></div>"
        },
        "status": "completed",
        "performedDateTime": "2016-12-23",
        "subject": {
          "reference": "urn:uuid:",
          "display": "Gabrielius Gaičiūnas"
        }
      }
    },
    {
      "fullUrl": "urn:uuid:f478deca-5d60-40a1-98d5-747da3f42fe1",
      "resource": {
        "resourceType": "Procedure",
        "id": "f478deca-5d60-40a1-98d5-747da3f42fe1",
        "meta": {
          "profile": [
            "http://hl7.org/fhir/uv/ips/StructureDefinition/Procedure-uv-ips"
          ]
        },
        "code": {
          "coding": [
            {
              "code": "710824005",
              "system": "http://snomed.info/sct",
              "display": "Assessment of health and social care needs (procedure)"
            }
          ],
          "text": "Assessment of health and social care needs"
        },
        "text": {
          "status": "generated",
          "div": "<div xmlns=\"http://www.w3.org/1999/xhtml\"><table class=\"hl7__ips\"><tr><td>Assessment of health and social care needs</td><td><span class=\"nb\">16-Dec-2016</span></td><td>-</td></tr></table></div>"
        },
        "status": "completed",
        "performedDateTime": "2016-12-16",
        "subject": {
          "reference": "urn:uuid:",
          "display": "Gabrielius Gaičiūnas"
        }
      }
    },
    {
      "fullUrl": "urn:uuid:e3207685-307f-4805-94b0-3c1cdc291fb7",
      "resource": {
        "resourceType": "Procedure",
        "id": "e3207685-307f-4805-94b0-3c1cdc291fb7",
        "meta": {
          "profile": [
            "http://hl7.org/fhir/uv/ips/StructureDefinition/Procedure-uv-ips"
          ]
        },
        "code": {
          "coding": [
            {
              "code": "763302001",
              "system": "http://snomed.info/sct",
              "display": "Assessment using Alcohol Use Disorders Identification Test - Consumption (procedure)"
            }
          ],
          "text": "Assessment using AUDIT-C (Alcohol Use Disorders Identification Test - Consumption)"
        },
        "text": {
          "status": "generated",
          "div": "<div xmlns=\"http://www.w3.org/1999/xhtml\"><table class=\"hl7__ips\"><tr><td>Assessment using AUDIT-C (Alcohol Use Disorders Identification Test - Consumption)</td><td><span class=\"nb\">16-Dec-2016</span></td><td>-</td></tr></table></div>"
        },
        "status": "completed",
        "performedDateTime": "2016-12-16",
        "subject": {
          "reference": "urn:uuid:",
          "display": "Gabrielius Gaičiūnas"
        }
      }
    },
    {
      "fullUrl": "urn:uuid:8241ca0a-29c9-4009-bbe3-7a92e1940689",
      "resource": {
        "resourceType": "Procedure",
        "id": "8241ca0a-29c9-4009-bbe3-7a92e1940689",
        "meta": {
          "profile": [
            "http://hl7.org/fhir/uv/ips/StructureDefinition/Procedure-uv-ips"
          ]
        },
        "code": {
          "coding": [
            {
              "code": "866148006",
              "system": "http://snomed.info/sct",
              "display": "Screening for domestic abuse (procedure)"
            }
          ],
          "text": "Screening for domestic abuse"
        },
        "text": {
          "status": "generated",
          "div": "<div xmlns=\"http://www.w3.org/1999/xhtml\"><table class=\"hl7__ips\"><tr><td>Screening for domestic abuse</td><td><span class=\"nb\">16-Dec-2016</span></td><td>-</td></tr></table></div>"
        },
        "status": "completed",
        "performedDateTime": "2016-12-16",
        "subject": {
          "reference": "urn:uuid:",
          "display": "Gabrielius Gaičiūnas"
        }
      }
    },
    {
      "fullUrl": "urn:uuid:738eba8e-b36f-4646-b51b-165d96b01535",
      "resource": {
        "resourceType": "Procedure",
        "id": "738eba8e-b36f-4646-b51b-165d96b01535",
        "meta": {
          "profile": [
            "http://hl7.org/fhir/uv/ips/StructureDefinition/Procedure-uv-ips"
          ]
        },
        "code": {
          "coding": [
            {
              "code": "428211000124100",
              "system": "http://snomed.info/sct",
              "display": "Assessment of substance use (procedure)"
            }
          ],
          "text": "Assessment of substance use"
        },
        "text": {
          "status": "generated",
          "div": "<div xmlns=\"http://www.w3.org/1999/xhtml\"><table class=\"hl7__ips\"><tr><td>Assessment of substance use</td><td><span class=\"nb\">16-Dec-2016</span></td><td>-</td></tr></table></div>"
        },
        "status": "completed",
        "performedDateTime": "2016-12-16",
        "subject": {
          "reference": "urn:uuid:",
          "display": "Gabrielius Gaičiūnas"
        }
      }
    },
    {
      "fullUrl": "urn:uuid:0a855401-64e8-40d9-83a5-fa8aa7760a33",
      "resource": {
        "resourceType": "AllergyIntolerance",
        "id": "0a855401-64e8-40d9-83a5-fa8aa7760a33",
        "meta": {
          "profile": [
            "http://hl7.eu/fhir/eps/StructureDefinition/allergyIntolerance-eu-eps"
          ]
        },
        "code": {
          "text": ""
        },
        "clinicalStatus": {
          "coding": [
            {
              "code": "active",
              "system": "http://terminology.hl7.org/CodeSystem/allergyintolerance-clinical"
            }
          ]
        },
        "text": {
          "status": "generated",
          "div": "<div xmlns=\"http://www.w3.org/1999/xhtml\"><table class=\"hl7__ips\"><tr><th>Allergy/Intolerance</th><th>Onset Date</th><th>Status</th><th>Type</th><th>Reaction</th></tr><tr><td></td><td>?</td><td>active</td><td>?</td><td></td></tr></table></div>"
        },
        "verificationStatus": {
          "coding": [
            {
              "code": "confirmed",
              "system": "http://terminology.hl7.org/CodeSystem/allergyintolerance-verification"
            }
          ]
        },
        "patient": {
          "reference": "urn:uuid:38a01245-e632-4521-b4da-3964d204fa3c",
          "display": "Gabrielius Gaičiūnas"
        },
        "_onsetDateTime": {
          "extension": [
            {
              "url": "http://hl7.org/fhir/StructureDefinition/data-absent-reason",
              "valueCode": "unknown"
            }
          ]
        }
      }
    },
    {
      "fullUrl": "urn:uuid:f78692f3-4b27-4ff7-81e0-b0f06da8f534",
      "resource": {
        "resourceType": "CarePlan",
        "id": "f78692f3-4b27-4ff7-81e0-b0f06da8f534",
        "category": [
          {
            "coding": [
              {
                "code": "assess-plan",
                "system": "http://terminology.hl7.org/CodeSystem/care-plan-category",
                "display": "Assessment and Plan"
              }
            ]
          }
        ],
        "activity": [
          {
            "detail": {
              "code": {
                "coding": [
                  {
                    "code": "734163000",
                    "system": "http://snomed.info/sct",
                    "display": "Care plan (record artifact)"
                  }
                ]
              },
              "status": "unknown",
              "description": "Care plan",
              "kind": "Appointment"
            }
          }
        ],
        "period": {
          "start": "2013-12-03"
        },
        "text": {
          "status": "generated",
          "div": "<div xmlns=\"http://www.w3.org/1999/xhtml\"><table class=\"hl7__ips first25\"><tr><th>Active Planned Care / Goals</th><th>Start Date</th><th>Reason</th></tr><tr><td>Care plan</td><td><span class=\"nb\">03-Dec-2013</span></td><td>-</td></tr></table></div>"
        },
        "status": "active",
        "intent": "plan",
        "subject": {
          "reference": "urn:uuid:38a01245-e632-4521-b4da-3964d204fa3c",
          "display": "Gabrielius Gaičiūnas"
        }
      }
    },
    {
      "fullUrl": "urn:uuid:3c4554c8-1e52-46cf-bdc9-1dd0d0c39a23",
      "resource": {
        "resourceType": "CarePlan",
        "id": "3c4554c8-1e52-46cf-bdc9-1dd0d0c39a23",
        "category": [
          {
            "coding": [
              {
                "code": "assess-plan",
                "system": "http://terminology.hl7.org/CodeSystem/care-plan-category",
                "display": "Assessment and Plan"
              }
            ]
          }
        ],
        "activity": [
          {
            "detail": {
              "code": {
                "coding": [
                  {
                    "code": "736690008",
                    "system": "http://snomed.info/sct",
                    "display": "Dialysis care plan (record artifact)"
                  }
                ]
              },
              "status": "unknown",
              "description": "Dialysis care plan",
              "kind": "Appointment"
            }
          }
        ],
        "period": {
          "start": "2008-09-08"
        },
        "text": {
          "status": "generated",
          "div": "<div xmlns=\"http://www.w3.org/1999/xhtml\"><table class=\"hl7__ips first25\"><tr><th>Active Planned Care / Goals</th><th>Start Date</th><th>Reason</th></tr><tr><td>Dialysis care plan</td><td><span class=\"nb\">08-Sep-2008</span></td><td>-</td></tr></table></div>"
        },
        "status": "active",
        "intent": "plan",
        "subject": {
          "reference": "urn:uuid:38a01245-e632-4521-b4da-3964d204fa3c",
          "display": "Gabrielius Gaičiūnas"
        }
      }
    },
    {
      "fullUrl": "urn:uuid:a617915c-e514-4874-8ba1-28a1391d66af",
      "resource": {
        "resourceType": "CarePlan",
        "id": "a617915c-e514-4874-8ba1-28a1391d66af",
        "category": [
          {
            "coding": [
              {
                "code": "assess-plan",
                "system": "http://terminology.hl7.org/CodeSystem/care-plan-category",
                "display": "Assessment and Plan"
              }
            ]
          }
        ],
        "activity": [
          {
            "detail": {
              "code": {
                "coding": [
                  {
                    "code": "736372004",
                    "system": "http://snomed.info/sct",
                    "display": "Discharge care plan (record artifact)"
                  }
                ]
              },
              "status": "unknown",
              "description": "Discharge care plan",
              "kind": "Appointment"
            }
          }
        ],
        "period": {
          "start": "2002-01-13"
        },
        "text": {
          "status": "generated",
          "div": "<div xmlns=\"http://www.w3.org/1999/xhtml\"><table class=\"hl7__ips first25\"><tr><th>Active Planned Care / Goals</th><th>Start Date</th><th>Reason</th></tr><tr><td>Discharge care plan</td><td><span class=\"nb\">13-Jan-2002</span></td><td>-</td></tr></table></div>"
        },
        "status": "active",
        "intent": "plan",
        "subject": {
          "reference": "urn:uuid:38a01245-e632-4521-b4da-3964d204fa3c",
          "display": "Gabrielius Gaičiūnas"
        }
      }
    },
    {
      "fullUrl": "urn:uuid:f5f61bee-b92c-4335-a248-4ca964aeaf7c",
      "resource": {
        "resourceType": "CarePlan",
        "id": "f5f61bee-b92c-4335-a248-4ca964aeaf7c",
        "category": [
          {
            "coding": [
              {
                "code": "assess-plan",
                "system": "http://terminology.hl7.org/CodeSystem/care-plan-category",
                "display": "Assessment and Plan"
              }
            ]
          }
        ],
        "activity": [
          {
            "detail": {
              "code": {
                "coding": [
                  {
                    "code": "408869004",
                    "system": "http://snomed.info/sct",
                    "display": "Musculoskeletal care (regime/therapy)"
                  }
                ]
              },
              "reasonCode": [
                {
                  "coding": [
                    {
                      "code": "201834006",
                      "system": "http://snomed.info/sct",
                      "display": "Localized  primary osteoarthritis of the hand"
                    }
                  ]
                }
              ],
              "status": "unknown",
              "description": "Musculoskeletal care",
              "kind": "Appointment"
            }
          }
        ],
        "period": {
          "start": "1993-09-17"
        },
        "goal": [
          {
            "reference": "urn:uuid:f4fc43be-876e-432d-8224-5eda90b307b7"
          },
          {
            "reference": "urn:uuid:74865e98-16dd-49d9-8754-434ca32958f7"
          },
          {
            "reference": "urn:uuid:138323a1-5b61-48ce-830f-6a8ce2a46a80"
          }
        ],
        "text": {
          "status": "generated",
          "div": "<div xmlns=\"http://www.w3.org/1999/xhtml\"><table class=\"hl7__ips first25\"><tr><th>Active Planned Care / Goals</th><th>Start Date</th><th>Reason</th></tr><tr><td>Musculoskeletal care</td><td><span class=\"nb\">17-Sep-1993</span></td><td>Localized primary osteoarthritis of the hand</td></tr><tr><td><ul><li>Reduce severity of hand pain associated with osteoarthritis</li><li>Improve ability to perform daily activities using hands</li><li>Increase grip strength in affected hand</li></ul></td><td></td><td></td></tr></table></div>"
        },
        "status": "active",
        "intent": "plan",
        "subject": {
          "reference": "urn:uuid:38a01245-e632-4521-b4da-3964d204fa3c",
          "display": "Gabrielius Gaičiūnas"
        }
      }
    },
    {
      "fullUrl": "urn:uuid:91e59aa2-d924-47df-9ebd-118df49b087c",
      "resource": {
        "resourceType": "CarePlan",
        "id": "91e59aa2-d924-47df-9ebd-118df49b087c",
        "category": [
          {
            "coding": [
              {
                "code": "assess-plan",
                "system": "http://terminology.hl7.org/CodeSystem/care-plan-category",
                "display": "Assessment and Plan"
              }
            ]
          }
        ],
        "activity": [
          {
            "detail": {
              "code": {
                "coding": [
                  {
                    "code": "443402002",
                    "system": "http://snomed.info/sct",
                    "display": "Lifestyle education regarding hypertension (procedure)"
                  }
                ]
              },
              "reasonCode": [
                {
                  "coding": [
                    {
                      "code": "59621000",
                      "system": "http://snomed.info/sct",
                      "display": "Essential hypertension (disorder)"
                    }
                  ]
                }
              ],
              "status": "unknown",
              "description": "Lifestyle education regarding hypertension",
              "kind": "Appointment"
            }
          }
        ],
        "period": {
          "start": "1978-02-03"
        },
        "goal": [
          {
            "reference": "urn:uuid:1017c5db-a985-43c2-83b3-fd2f2d25a254"
          },
          {
            "reference": "urn:uuid:8584bb82-ffe4-4504-9dfb-fc5342cb4fea"
          }
        ],
        "text": {
          "status": "generated",
          "div": "<div xmlns=\"http://www.w3.org/1999/xhtml\"><table class=\"hl7__ips first25\"><tr><th>Active Planned Care / Goals</th><th>Start Date</th><th>Reason</th></tr><tr><td>Lifestyle education regarding hypertension</td><td><span class=\"nb\">03-Feb-1978</span></td><td>Essential hypertension (disorder)</td></tr><tr><td><ul><li>Maintain blood pressure below 130/80 mmHg through lifestyle modification and education.</li><li>Patient will demonstrate adherence to recommended lifestyle modifications for hypertension, including dietary changes, increased physical activity, and reduced sodium intake.</li></ul></td><td></td><td></td></tr></table></div>"
        },
        "status": "active",
        "intent": "plan",
        "subject": {
          "reference": "urn:uuid:38a01245-e632-4521-b4da-3964d204fa3c",
          "display": "Gabrielius Gaičiūnas"
        }
      }
    },
    {
      "fullUrl": "urn:uuid:d85220db-9559-4da2-8b3f-183f99bdde99",
      "resource": {
        "resourceType": "CarePlan",
        "id": "d85220db-9559-4da2-8b3f-183f99bdde99",
        "category": [
          {
            "coding": [
              {
                "code": "assess-plan",
                "system": "http://terminology.hl7.org/CodeSystem/care-plan-category",
                "display": "Assessment and Plan"
              }
            ]
          }
        ],
        "activity": [
          {
            "detail": {
              "code": {
                "coding": [
                  {
                    "code": "698360004",
                    "system": "http://snomed.info/sct",
                    "display": "Diabetes self management plan (qualifier value)"
                  }
                ]
              },
              "reasonCode": [
                {
                  "coding": [
                    {
                      "code": "15777000",
                      "system": "http://snomed.info/sct",
                      "display": "Prediabetes"
                    }
                  ]
                }
              ],
              "status": "unknown",
              "description": "Diabetes self management plan",
              "kind": "Appointment"
            }
          }
        ],
        "period": {
          "start": "1972-01-28"
        },
        "goal": [
          {
            "reference": "urn:uuid:28a71d92-0e52-42ab-945c-709a5538868c"
          },
          {
            "reference": "urn:uuid:431d5ac7-b997-4fcc-993a-c8f9dc9b0794"
          },
          {
            "reference": "urn:uuid:56171de5-2cc8-43d0-9a5c-f2b6eaea1a8a"
          },
          {
            "reference": "urn:uuid:574585a7-2624-454b-87e7-b3bf3b84e6da"
          },
          {
            "reference": "urn:uuid:981a84ce-07d3-4b29-9ec8-93d597db7b5e"
          }
        ],
        "text": {
          "status": "generated",
          "div": "<div xmlns=\"http://www.w3.org/1999/xhtml\"><table class=\"hl7__ips first25\"><tr><th>Active Planned Care / Goals</th><th>Start Date</th><th>Reason</th></tr><tr><td>Diabetes self management plan</td><td><span class=\"nb\">28-Jan-1972</span></td><td>Prediabetes</td></tr><tr><td><ul><li>Patient will demonstrate understanding of diabetes self-management strategies including diet, exercise, and medication adherence.</li><li>Maintain hemoglobin A1c below 7% to reduce risk of diabetes complications.</li><li>Maintain fasting blood glucose below 100 mg/dL.</li><li>Maintain blood pressure below 130/80 mmHg as part of diabetes self-management.</li><li>Achieve at least 5% reduction in body weight to improve glycemic control.</li></ul></td><td></td><td></td></tr></table></div>"
        },
        "status": "active",
        "intent": "plan",
        "subject": {
          "reference": "urn:uuid:38a01245-e632-4521-b4da-3964d204fa3c",
          "display": "Gabrielius Gaičiūnas"
        }
      }
    },
    {
      "fullUrl": "urn:uuid:8d946614-3a40-436a-94f5-14c4cab3fcfd",
      "resource": {
        "resourceType": "ImmunizationRecommendation",
        "id": "8d946614-3a40-436a-94f5-14c4cab3fcfd",
        "recommendation": [
          {
            "vaccineCode": [
              {
                "coding": [
                  {
                    "code": "1181000221105",
                    "system": "http://snomed.info/sct",
                    "display": "Vaccine product containing only Influenza virus antigen (medicinal product)"
                  }
                ]
              }
            ],
            "dateCriterion": [
              {
                "code": {
                  "coding": [
                    {
                      "code": "30980-7",
                      "system": "http://loinc.org",
                      "display": "Date vaccine due"
                    }
                  ]
                },
                "value": "2025-10-01"
              }
            ],
            "targetDisease": {
              "coding": [
                {
                  "code": "6142004",
                  "system": "http://snomed.info/sct",
                  "display": "Influenza (disorder)"
                }
              ]
            },
            "series": "Annual seasonal influenza vaccination",
            "forecastStatus": {
              "coding": [
                {
                  "code": "due",
                  "system": "http://terminology.hl7.org/CodeSystem/immunization-recommendation-status",
                  "display": "Due"
                }
              ]
            }
          }
        ],
        "text": {
          "status": "generated",
          "div": "<div xmlns=\"http://www.w3.org/1999/xhtml\"><table class=\"hl7__ips\"><tr><td>Vaccine product containing only Influenza virus antigen (medicinal product)</td><td><span class=\"nb\">01-Oct-2025</span></td><td>Annual seasonal influenza vaccination</td></tr></table></div>"
        },
        "date": "2025-10-22",
        "patient": {
          "reference": "urn:uuid:38a01245-e632-4521-b4da-3964d204fa3c",
          "display": "Gabrielius Gaičiūnas"
        }
      }
    },
    {
      "fullUrl": "urn:uuid:7e6b60ab-cb20-4e11-8464-fc8e49f5b093",
      "resource": {
        "resourceType": "Observation",
        "id": "7e6b60ab-cb20-4e11-8464-fc8e49f5b093",
        "meta": {
          "profile": [
            "http://hl7.org/fhir/StructureDefinition/vitalsigns"
          ]
        },
        "category": [
          {
            "coding": [
              {
                "system": "http://terminology.hl7.org/CodeSystem/observation-category",
                "code": "vital-signs",
                "display": "Vital Signs"
              }
            ]
          }
        ],
        "valueQuantity": {
          "value": 183.6,
          "code": "cm",
          "unit": "cm"
        },
        "text": {
          "status": "generated",
          "div": "<div xmlns=\"http://www.w3.org/1999/xhtml\"><table class=\"hl7__ips\"><tr><th>Vital Sign</th><th>Date</th><th>Measurement</th></tr><tr><td>Body Height</td><td>01-Nov-2024</td><td>183.6 cm</td></tr></table></div>"
        },
        "status": "final",
        "code": {
          "coding": [
            {
              "code": "$8302-2",
              "system": "http://loinc.org",
              "display": "Body Height"
            }
          ]
        },
        "subject": {
          "reference": "urn:uuid:38a01245-e632-4521-b4da-3964d204fa3c",
          "display": "Gabrielius Gaičiūnas"
        },
        "effectiveDateTime": "2024-11-01"
      }
    },
    {
      "fullUrl": "urn:uuid:6686bd11-dfcb-47ea-9320-558474d96f0d",
      "resource": {
        "resourceType": "Observation",
        "id": "6686bd11-dfcb-47ea-9320-558474d96f0d",
        "meta": {
          "profile": [
            "http://hl7.org/fhir/StructureDefinition/vitalsigns"
          ]
        },
        "category": [
          {
            "coding": [
              {
                "system": "http://terminology.hl7.org/CodeSystem/observation-category",
                "code": "vital-signs",
                "display": "Vital Signs"
              }
            ]
          }
        ],
        "valueQuantity": {
          "value": 2,
          "code": "{score}",
          "unit": "{score}"
        },
        "text": {
          "status": "generated",
          "div": "<div xmlns=\"http://www.w3.org/1999/xhtml\"><table class=\"hl7__ips\"><tr><th>Vital Sign</th><th>Date</th><th>Measurement</th></tr><tr><td>Pain severity - 0-10 verbal numeric rating [Score] - Reported</td><td>01-Nov-2024</td><td>2 {score}</td></tr></table></div>"
        },
        "status": "final",
        "code": {
          "coding": [
            {
              "code": "$72514-3",
              "system": "http://loinc.org",
              "display": "Pain severity - 0-10 verbal numeric rating [Score] - Reported"
            }
          ]
        },
        "subject": {
          "reference": "urn:uuid:38a01245-e632-4521-b4da-3964d204fa3c",
          "display": "Gabrielius Gaičiūnas"
        },
        "effectiveDateTime": "2024-11-01"
      }
    },
    {
      "fullUrl": "urn:uuid:85a28ed4-a157-40d6-8e0e-134f668917cc",
      "resource": {
        "resourceType": "Observation",
        "id": "85a28ed4-a157-40d6-8e0e-134f668917cc",
        "meta": {
          "profile": [
            "http://hl7.org/fhir/StructureDefinition/vitalsigns"
          ]
        },
        "category": [
          {
            "coding": [
              {
                "system": "http://terminology.hl7.org/CodeSystem/observation-category",
                "code": "vital-signs",
                "display": "Vital Signs"
              }
            ]
          }
        ],
        "valueQuantity": {
          "value": 93.8,
          "code": "kg",
          "unit": "kg"
        },
        "text": {
          "status": "generated",
          "div": "<div xmlns=\"http://www.w3.org/1999/xhtml\"><table class=\"hl7__ips\"><tr><th>Vital Sign</th><th>Date</th><th>Measurement</th></tr><tr><td>Body Weight</td><td>01-Nov-2024</td><td>93.8 kg</td></tr></table></div>"
        },
        "status": "final",
        "code": {
          "coding": [
            {
              "code": "$29463-7",
              "system": "http://loinc.org",
              "display": "Body Weight"
            }
          ]
        },
        "subject": {
          "reference": "urn:uuid:38a01245-e632-4521-b4da-3964d204fa3c",
          "display": "Gabrielius Gaičiūnas"
        },
        "effectiveDateTime": "2024-11-01"
      }
    },
    {
      "fullUrl": "urn:uuid:7a060631-0bc4-4bb3-8d1c-5a1bc8c73057",
      "resource": {
        "resourceType": "Observation",
        "id": "7a060631-0bc4-4bb3-8d1c-5a1bc8c73057",
        "meta": {
          "profile": [
            "http://hl7.org/fhir/StructureDefinition/vitalsigns"
          ]
        },
        "category": [
          {
            "coding": [
              {
                "system": "http://terminology.hl7.org/CodeSystem/observation-category",
                "code": "vital-signs",
                "display": "Vital Signs"
              }
            ]
          }
        ],
        "valueQuantity": {
          "value": 27.8,
          "code": "kg/m2",
          "unit": "kg/m2"
        },
        "text": {
          "status": "generated",
          "div": "<div xmlns=\"http://www.w3.org/1999/xhtml\"><table class=\"hl7__ips\"><tr><th>Vital Sign</th><th>Date</th><th>Measurement</th></tr><tr><td>Body mass index (BMI) [Ratio]</td><td>01-Nov-2024</td><td>27.8 kg/m2</td></tr></table></div>"
        },
        "status": "final",
        "code": {
          "coding": [
            {
              "code": "$39156-5",
              "system": "http://loinc.org",
              "display": "Body mass index (BMI) [Ratio]"
            }
          ]
        },
        "subject": {
          "reference": "urn:uuid:38a01245-e632-4521-b4da-3964d204fa3c",
          "display": "Gabrielius Gaičiūnas"
        },
        "effectiveDateTime": "2024-11-01"
      }
    },
    {
      "fullUrl": "urn:uuid:7f6a7baa-d67e-4fe7-b133-3683032542c0",
      "resource": {
        "resourceType": "Observation",
        "id": "7f6a7baa-d67e-4fe7-b133-3683032542c0",
        "meta": {
          "profile": [
            "http://hl7.org/fhir/StructureDefinition/vitalsigns"
          ]
        },
        "category": [
          {
            "coding": [
              {
                "system": "http://terminology.hl7.org/CodeSystem/observation-category",
                "code": "vital-signs",
                "display": "Vital Signs"
              }
            ]
          }
        ],
        "valueQuantity": {
          "value": 81,
          "code": "mm[Hg]",
          "unit": "mm[Hg]"
        },
        "text": {
          "status": "generated",
          "div": "<div xmlns=\"http://www.w3.org/1999/xhtml\"><table class=\"hl7__ips\"><tr><th>Vital Sign</th><th>Date</th><th>Measurement</th></tr><tr><td>Diastolic Blood Pressure</td><td>01-Nov-2024</td><td>81 mm[Hg]</td></tr></table></div>"
        },
        "status": "final",
        "code": {
          "coding": [
            {
              "code": "$8462-4",
              "system": "http://loinc.org",
              "display": "Diastolic Blood Pressure"
            }
          ]
        },
        "subject": {
          "reference": "urn:uuid:38a01245-e632-4521-b4da-3964d204fa3c",
          "display": "Gabrielius Gaičiūnas"
        },
        "effectiveDateTime": "2024-11-01"
      }
    },
    {
      "fullUrl": "urn:uuid:1fc698dd-f331-405e-ab3f-da50e704aa53",
      "resource": {
        "resourceType": "Observation",
        "id": "1fc698dd-f331-405e-ab3f-da50e704aa53",
        "meta": {
          "profile": [
            "http://hl7.org/fhir/StructureDefinition/vitalsigns"
          ]
        },
        "category": [
          {
            "coding": [
              {
                "system": "http://terminology.hl7.org/CodeSystem/observation-category",
                "code": "vital-signs",
                "display": "Vital Signs"
              }
            ]
          }
        ],
        "valueQuantity": {
          "value": 88,
          "code": "mm[Hg]",
          "unit": "mm[Hg]"
        },
        "text": {
          "status": "generated",
          "div": "<div xmlns=\"http://www.w3.org/1999/xhtml\"><table class=\"hl7__ips\"><tr><th>Vital Sign</th><th>Date</th><th>Measurement</th></tr><tr><td>Systolic Blood Pressure</td><td>01-Nov-2024</td><td>88 mm[Hg]</td></tr></table></div>"
        },
        "status": "final",
        "code": {
          "coding": [
            {
              "code": "$8480-6",
              "system": "http://loinc.org",
              "display": "Systolic Blood Pressure"
            }
          ]
        },
        "subject": {
          "reference": "urn:uuid:38a01245-e632-4521-b4da-3964d204fa3c",
          "display": "Gabrielius Gaičiūnas"
        },
        "effectiveDateTime": "2024-11-01"
      }
    },
    {
      "fullUrl": "urn:uuid:1ec80928-3f18-43c5-852c-65198f7d0696",
      "resource": {
        "resourceType": "Observation",
        "id": "1ec80928-3f18-43c5-852c-65198f7d0696",
        "meta": {
          "profile": [
            "http://hl7.org/fhir/StructureDefinition/vitalsigns"
          ]
        },
        "category": [
          {
            "coding": [
              {
                "system": "http://terminology.hl7.org/CodeSystem/observation-category",
                "code": "vital-signs",
                "display": "Vital Signs"
              }
            ]
          }
        ],
        "valueQuantity": {
          "value": 75,
          "code": "/min",
          "unit": "/min"
        },
        "text": {
          "status": "generated",
          "div": "<div xmlns=\"http://www.w3.org/1999/xhtml\"><table class=\"hl7__ips\"><tr><th>Vital Sign</th><th>Date</th><th>Measurement</th></tr><tr><td>Heart rate</td><td>01-Nov-2024</td><td>75 /min</td></tr></table></div>"
        },
        "status": "final",
        "code": {
          "coding": [
            {
              "code": "$8867-4",
              "system": "http://loinc.org",
              "display": "Heart rate"
            }
          ]
        },
        "subject": {
          "reference": "urn:uuid:38a01245-e632-4521-b4da-3964d204fa3c",
          "display": "Gabrielius Gaičiūnas"
        },
        "effectiveDateTime": "2024-11-01"
      }
    },
    {
      "fullUrl": "urn:uuid:20cbad28-cf33-49f6-9f35-ba383bdc603a",
      "resource": {
        "resourceType": "Observation",
        "id": "20cbad28-cf33-49f6-9f35-ba383bdc603a",
        "meta": {
          "profile": [
            "http://hl7.org/fhir/StructureDefinition/vitalsigns"
          ]
        },
        "category": [
          {
            "coding": [
              {
                "system": "http://terminology.hl7.org/CodeSystem/observation-category",
                "code": "vital-signs",
                "display": "Vital Signs"
              }
            ]
          }
        ],
        "valueQuantity": {
          "value": 16,
          "code": "/min",
          "unit": "/min"
        },
        "text": {
          "status": "generated",
          "div": "<div xmlns=\"http://www.w3.org/1999/xhtml\"><table class=\"hl7__ips\"><tr><th>Vital Sign</th><th>Date</th><th>Measurement</th></tr><tr><td>Respiratory rate</td><td>01-Nov-2024</td><td>16 /min</td></tr></table></div>"
        },
        "status": "final",
        "code": {
          "coding": [
            {
              "code": "$9279-1",
              "system": "http://loinc.org",
              "display": "Respiratory rate"
            }
          ]
        },
        "subject": {
          "reference": "urn:uuid:38a01245-e632-4521-b4da-3964d204fa3c",
          "display": "Gabrielius Gaičiūnas"
        },
        "effectiveDateTime": "2024-11-01"
      }
    },
    {
      "fullUrl": "urn:uuid:e43e5fa4-a918-47a8-9fdf-5509a51ba02d",
      "resource": {
        "resourceType": "Observation",
        "id": "e43e5fa4-a918-47a8-9fdf-5509a51ba02d",
        "meta": {
          "profile": [
            "http://hl7.org/fhir/StructureDefinition/vitalsigns"
          ]
        },
        "category": [
          {
            "coding": [
              {
                "system": "http://terminology.hl7.org/CodeSystem/observation-category",
                "code": "vital-signs",
                "display": "Vital Signs"
              }
            ]
          }
        ],
        "valueQuantity": {
          "value": 183.6,
          "code": "cm",
          "unit": "cm"
        },
        "text": {
          "status": "generated",
          "div": "<div xmlns=\"http://www.w3.org/1999/xhtml\"><table class=\"hl7__ips\"><tr><th>Vital Sign</th><th>Date</th><th>Measurement</th></tr><tr><td>Body Height</td><td>27-Oct-2023</td><td>183.6 cm</td></tr></table></div>"
        },
        "status": "final",
        "code": {
          "coding": [
            {
              "code": "$8302-2",
              "system": "http://loinc.org",
              "display": "Body Height"
            }
          ]
        },
        "subject": {
          "reference": "urn:uuid:38a01245-e632-4521-b4da-3964d204fa3c",
          "display": "Gabrielius Gaičiūnas"
        },
        "effectiveDateTime": "2023-10-27"
      }
    },
    {
      "fullUrl": "urn:uuid:f9e4ccf1-fd69-4dbc-b333-c5b00e369d19",
      "resource": {
        "resourceType": "Observation",
        "id": "f9e4ccf1-fd69-4dbc-b333-c5b00e369d19",
        "meta": {
          "profile": [
            "http://hl7.org/fhir/StructureDefinition/vitalsigns"
          ]
        },
        "category": [
          {
            "coding": [
              {
                "system": "http://terminology.hl7.org/CodeSystem/observation-category",
                "code": "vital-signs",
                "display": "Vital Signs"
              }
            ]
          }
        ],
        "valueQuantity": {
          "value": 2,
          "code": "{score}",
          "unit": "{score}"
        },
        "text": {
          "status": "generated",
          "div": "<div xmlns=\"http://www.w3.org/1999/xhtml\"><table class=\"hl7__ips\"><tr><th>Vital Sign</th><th>Date</th><th>Measurement</th></tr><tr><td>Pain severity - 0-10 verbal numeric rating [Score] - Reported</td><td>27-Oct-2023</td><td>2 {score}</td></tr></table></div>"
        },
        "status": "final",
        "code": {
          "coding": [
            {
              "code": "$72514-3",
              "system": "http://loinc.org",
              "display": "Pain severity - 0-10 verbal numeric rating [Score] - Reported"
            }
          ]
        },
        "subject": {
          "reference": "urn:uuid:38a01245-e632-4521-b4da-3964d204fa3c",
          "display": "Gabrielius Gaičiūnas"
        },
        "effectiveDateTime": "2023-10-27"
      }
    },
    {
      "fullUrl": "urn:uuid:a760ff2e-c985-4650-a52b-ff4e1668e94a",
      "resource": {
        "resourceType": "Observation",
        "id": "a760ff2e-c985-4650-a52b-ff4e1668e94a",
        "meta": {
          "profile": [
            "http://hl7.org/fhir/StructureDefinition/vitalsigns"
          ]
        },
        "category": [
          {
            "coding": [
              {
                "system": "http://terminology.hl7.org/CodeSystem/observation-category",
                "code": "vital-signs",
                "display": "Vital Signs"
              }
            ]
          }
        ],
        "valueQuantity": {
          "value": 93.8,
          "code": "kg",
          "unit": "kg"
        },
        "text": {
          "status": "generated",
          "div": "<div xmlns=\"http://www.w3.org/1999/xhtml\"><table class=\"hl7__ips\"><tr><th>Vital Sign</th><th>Date</th><th>Measurement</th></tr><tr><td>Body Weight</td><td>27-Oct-2023</td><td>93.8 kg</td></tr></table></div>"
        },
        "status": "final",
        "code": {
          "coding": [
            {
              "code": "$29463-7",
              "system": "http://loinc.org",
              "display": "Body Weight"
            }
          ]
        },
        "subject": {
          "reference": "urn:uuid:38a01245-e632-4521-b4da-3964d204fa3c",
          "display": "Gabrielius Gaičiūnas"
        },
        "effectiveDateTime": "2023-10-27"
      }
    },
    {
      "fullUrl": "urn:uuid:7dd32711-0e5f-46dd-b73b-6df6c2a72274",
      "resource": {
        "resourceType": "Observation",
        "id": "7dd32711-0e5f-46dd-b73b-6df6c2a72274",
        "meta": {
          "profile": [
            "http://hl7.org/fhir/StructureDefinition/vitalsigns"
          ]
        },
        "category": [
          {
            "coding": [
              {
                "system": "http://terminology.hl7.org/CodeSystem/observation-category",
                "code": "vital-signs",
                "display": "Vital Signs"
              }
            ]
          }
        ],
        "valueQuantity": {
          "value": 27.8,
          "code": "kg/m2",
          "unit": "kg/m2"
        },
        "text": {
          "status": "generated",
          "div": "<div xmlns=\"http://www.w3.org/1999/xhtml\"><table class=\"hl7__ips\"><tr><th>Vital Sign</th><th>Date</th><th>Measurement</th></tr><tr><td>Body mass index (BMI) [Ratio]</td><td>27-Oct-2023</td><td>27.8 kg/m2</td></tr></table></div>"
        },
        "status": "final",
        "code": {
          "coding": [
            {
              "code": "$39156-5",
              "system": "http://loinc.org",
              "display": "Body mass index (BMI) [Ratio]"
            }
          ]
        },
        "subject": {
          "reference": "urn:uuid:38a01245-e632-4521-b4da-3964d204fa3c",
          "display": "Gabrielius Gaičiūnas"
        },
        "effectiveDateTime": "2023-10-27"
      }
    },
    {
      "fullUrl": "urn:uuid:ff28d0a1-6a71-42e1-8af3-67c0e42e7344",
      "resource": {
        "resourceType": "Observation",
        "id": "ff28d0a1-6a71-42e1-8af3-67c0e42e7344",
        "meta": {
          "profile": [
            "http://hl7.org/fhir/StructureDefinition/vitalsigns"
          ]
        },
        "category": [
          {
            "coding": [
              {
                "system": "http://terminology.hl7.org/CodeSystem/observation-category",
                "code": "vital-signs",
                "display": "Vital Signs"
              }
            ]
          }
        ],
        "valueQuantity": {
          "value": 78,
          "code": "mm[Hg]",
          "unit": "mm[Hg]"
        },
        "text": {
          "status": "generated",
          "div": "<div xmlns=\"http://www.w3.org/1999/xhtml\"><table class=\"hl7__ips\"><tr><th>Vital Sign</th><th>Date</th><th>Measurement</th></tr><tr><td>Diastolic Blood Pressure</td><td>27-Oct-2023</td><td>78 mm[Hg]</td></tr></table></div>"
        },
        "status": "final",
        "code": {
          "coding": [
            {
              "code": "$8462-4",
              "system": "http://loinc.org",
              "display": "Diastolic Blood Pressure"
            }
          ]
        },
        "subject": {
          "reference": "urn:uuid:38a01245-e632-4521-b4da-3964d204fa3c",
          "display": "Gabrielius Gaičiūnas"
        },
        "effectiveDateTime": "2023-10-27"
      }
    },
    {
      "fullUrl": "urn:uuid:f63f02f7-0c32-4e3f-abbc-9c281a9d70b3",
      "resource": {
        "resourceType": "Observation",
        "id": "f63f02f7-0c32-4e3f-abbc-9c281a9d70b3",
        "meta": {
          "profile": [
            "http://hl7.org/fhir/StructureDefinition/vitalsigns"
          ]
        },
        "category": [
          {
            "coding": [
              {
                "system": "http://terminology.hl7.org/CodeSystem/observation-category",
                "code": "vital-signs",
                "display": "Vital Signs"
              }
            ]
          }
        ],
        "valueQuantity": {
          "value": 96,
          "code": "mm[Hg]",
          "unit": "mm[Hg]"
        },
        "text": {
          "status": "generated",
          "div": "<div xmlns=\"http://www.w3.org/1999/xhtml\"><table class=\"hl7__ips\"><tr><th>Vital Sign</th><th>Date</th><th>Measurement</th></tr><tr><td>Systolic Blood Pressure</td><td>27-Oct-2023</td><td>96 mm[Hg]</td></tr></table></div>"
        },
        "status": "final",
        "code": {
          "coding": [
            {
              "code": "$8480-6",
              "system": "http://loinc.org",
              "display": "Systolic Blood Pressure"
            }
          ]
        },
        "subject": {
          "reference": "urn:uuid:38a01245-e632-4521-b4da-3964d204fa3c",
          "display": "Gabrielius Gaičiūnas"
        },
        "effectiveDateTime": "2023-10-27"
      }
    },
    {
      "fullUrl": "urn:uuid:6d8849f9-7894-40f3-936e-c3ffdcf1d40c",
      "resource": {
        "resourceType": "Observation",
        "id": "6d8849f9-7894-40f3-936e-c3ffdcf1d40c",
        "meta": {
          "profile": [
            "http://hl7.org/fhir/StructureDefinition/vitalsigns"
          ]
        },
        "category": [
          {
            "coding": [
              {
                "system": "http://terminology.hl7.org/CodeSystem/observation-category",
                "code": "vital-signs",
                "display": "Vital Signs"
              }
            ]
          }
        ],
        "valueQuantity": {
          "value": 68,
          "code": "/min",
          "unit": "/min"
        },
        "text": {
          "status": "generated",
          "div": "<div xmlns=\"http://www.w3.org/1999/xhtml\"><table class=\"hl7__ips\"><tr><th>Vital Sign</th><th>Date</th><th>Measurement</th></tr><tr><td>Heart rate</td><td>27-Oct-2023</td><td>68 /min</td></tr></table></div>"
        },
        "status": "final",
        "code": {
          "coding": [
            {
              "code": "$8867-4",
              "system": "http://loinc.org",
              "display": "Heart rate"
            }
          ]
        },
        "subject": {
          "reference": "urn:uuid:38a01245-e632-4521-b4da-3964d204fa3c",
          "display": "Gabrielius Gaičiūnas"
        },
        "effectiveDateTime": "2023-10-27"
      }
    },
    {
      "fullUrl": "urn:uuid:55620360-3ea2-4ea9-beac-ae5bd65fb9e4",
      "resource": {
        "resourceType": "Observation",
        "id": "55620360-3ea2-4ea9-beac-ae5bd65fb9e4",
        "meta": {
          "profile": [
            "http://hl7.org/fhir/StructureDefinition/vitalsigns"
          ]
        },
        "category": [
          {
            "coding": [
              {
                "system": "http://terminology.hl7.org/CodeSystem/observation-category",
                "code": "vital-signs",
                "display": "Vital Signs"
              }
            ]
          }
        ],
        "valueQuantity": {
          "value": 15,
          "code": "/min",
          "unit": "/min"
        },
        "text": {
          "status": "generated",
          "div": "<div xmlns=\"http://www.w3.org/1999/xhtml\"><table class=\"hl7__ips\"><tr><th>Vital Sign</th><th>Date</th><th>Measurement</th></tr><tr><td>Respiratory rate</td><td>27-Oct-2023</td><td>15 /min</td></tr></table></div>"
        },
        "status": "final",
        "code": {
          "coding": [
            {
              "code": "$9279-1",
              "system": "http://loinc.org",
              "display": "Respiratory rate"
            }
          ]
        },
        "subject": {
          "reference": "urn:uuid:38a01245-e632-4521-b4da-3964d204fa3c",
          "display": "Gabrielius Gaičiūnas"
        },
        "effectiveDateTime": "2023-10-27"
      }
    },
    {
      "fullUrl": "urn:uuid:b74b7c86-dada-400a-8ff0-2f9fb964f6d8",
      "resource": {
        "resourceType": "Observation",
        "id": "b74b7c86-dada-400a-8ff0-2f9fb964f6d8",
        "meta": {
          "profile": [
            "http://hl7.eu/fhir/laboratory/StructureDefinition/Observation-resultslab-eu-lab"
          ]
        },
        "performer": [
          {
            "display": "The Central European Lab"
          }
        ],
        "category": [
          {
            "coding": [
              {
                "system": "http://terminology.hl7.org/CodeSystem/observation-category",
                "code": "laboratory"
              }
            ]
          }
        ],
        "code": {
          "coding": [
            {
              "code": "4548-4",
              "system": "http://loinc.org",
              "display": "Hemoglobin A1c/Hemoglobin.total in Blood"
            }
          ],
          "text": "Hemoglobin A1c/Hemoglobin.total in Blood"
        },
        "valueQuantity": {
          "system": "http://unitsofmeasure.org",
          "value": 4,
          "unit": "%",
          "code": "%"
        },
        "referenceRange": [
          {
            "low": {
              "value": 4.6,
              "code": "%",
              "system": "http://unitsofmeasure.org"
            }
          },
          {
            "high": {
              "value": 6.4,
              "code": "%",
              "system": "http://unitsofmeasure.org"
            }
          }
        ],
        "interpretation": [
          {
            "coding": [
              {
                "code": "L",
                "system": "http://terminology.hl7.org/CodeSystem/v3-ObservationInterpretation",
                "display": "Low"
              }
            ]
          }
        ],
        "text": {
          "status": "generated",
          "div": "<div xmlns=\"http://www.w3.org/1999/xhtml\"><table class=\"hl7__eu__lab__report\"><tr><th>Test</th><th>01-Nov-2024</th><th>Reference&#xA0;Range</th><th>Unit</th></tr><tr><td>Hemoglobin A1c/Hemoglobin.total in Blood</td><td>4.0</td><td>4.6 - 6.4</td><td>L</td><td>%</td></tr></table></div>"
        },
        "status": "final",
        "subject": {
          "reference": "urn:uuid:38a01245-e632-4521-b4da-3964d204fa3c",
          "display": "Gabrielius Gaičiūnas"
        },
        "effectiveDateTime": "2024-11-01T16:05:46Z"
      }
    },
    {
      "fullUrl": "urn:uuid:8dcc664f-f023-46ef-9423-591ba3374298",
      "resource": {
        "resourceType": "Observation",
        "id": "8dcc664f-f023-46ef-9423-591ba3374298",
        "meta": {
          "profile": [
            "http://hl7.eu/fhir/laboratory/StructureDefinition/Observation-resultslab-eu-lab"
          ]
        },
        "performer": [
          {
            "display": "The Central European Lab"
          }
        ],
        "category": [
          {
            "coding": [
              {
                "system": "http://terminology.hl7.org/CodeSystem/observation-category",
                "code": "laboratory"
              }
            ]
          }
        ],
        "code": {
          "coding": [
            {
              "code": "2339-0",
              "system": "http://loinc.org",
              "display": "Glucose [Mass/volume] in Blood"
            }
          ],
          "text": "Glucose [Mass/volume] in Blood"
        },
        "valueQuantity": {
          "system": "http://unitsofmeasure.org",
          "value": 90,
          "unit": "mg/dL",
          "code": "mg/dL"
        },
        "referenceRange": [
          {
            "low": {
              "value": 70,
              "code": "mg/dL",
              "system": "http://unitsofmeasure.org"
            }
          },
          {
            "high": {
              "value": 110,
              "code": "mg/dL",
              "system": "http://unitsofmeasure.org"
            }
          }
        ],
        "text": {
          "status": "generated",
          "div": "<div xmlns=\"http://www.w3.org/1999/xhtml\"><table class=\"hl7__eu__lab__report\"><tr><th>Test</th><th>01-Nov-2024</th><th>Reference&#xA0;Range</th><th>Unit</th></tr><tr><td>Glucose [Mass/volume] in Blood</td><td>90.0</td><td>70 - 110</td><td></td><td>mg/dL</td></tr></table></div>"
        },
        "status": "final",
        "subject": {
          "reference": "urn:uuid:38a01245-e632-4521-b4da-3964d204fa3c",
          "display": "Gabrielius Gaičiūnas"
        },
        "effectiveDateTime": "2024-11-01T16:05:46Z"
      }
    },
    {
      "fullUrl": "urn:uuid:fd31a024-b59b-492e-b693-85693b5dd48e",
      "resource": {
        "resourceType": "Observation",
        "id": "fd31a024-b59b-492e-b693-85693b5dd48e",
        "meta": {
          "profile": [
            "http://hl7.eu/fhir/laboratory/StructureDefinition/Observation-resultslab-eu-lab"
          ]
        },
        "performer": [
          {
            "display": "The Central European Lab"
          }
        ],
        "category": [
          {
            "coding": [
              {
                "system": "http://terminology.hl7.org/CodeSystem/observation-category",
                "code": "laboratory"
              }
            ]
          }
        ],
        "code": {
          "coding": [
            {
              "code": "6299-2",
              "system": "http://loinc.org",
              "display": "Urea nitrogen [Mass/volume] in Blood"
            }
          ],
          "text": "Urea nitrogen [Mass/volume] in Blood"
        },
        "valueQuantity": {
          "system": "http://unitsofmeasure.org",
          "value": 12.7,
          "unit": "mg/dL",
          "code": "mg/dL"
        },
        "referenceRange": [
          {
            "low": {
              "value": 7,
              "code": "mg/dL",
              "system": "http://unitsofmeasure.org"
            }
          },
          {
            "high": {
              "value": 43,
              "code": "mg/dL",
              "system": "http://unitsofmeasure.org"
            }
          }
        ],
        "text": {
          "status": "generated",
          "div": "<div xmlns=\"http://www.w3.org/1999/xhtml\"><table class=\"hl7__eu__lab__report\"><tr><th>Test</th><th>01-Nov-2024</th><th>Reference&#xA0;Range</th><th>Unit</th></tr><tr><td>Urea nitrogen [Mass/volume] in Blood</td><td>12.7</td><td>7 - 43</td><td></td><td>mg/dL</td></tr></table></div>"
        },
        "status": "final",
        "subject": {
          "reference": "urn:uuid:38a01245-e632-4521-b4da-3964d204fa3c",
          "display": "Gabrielius Gaičiūnas"
        },
        "effectiveDateTime": "2024-11-01T16:05:46Z"
      }
    },
    {
      "fullUrl": "urn:uuid:63edc1d8-82ad-4afb-9f0e-2c80cdcdd10c",
      "resource": {
        "resourceType": "Observation",
        "id": "63edc1d8-82ad-4afb-9f0e-2c80cdcdd10c",
        "meta": {
          "profile": [
            "http://hl7.eu/fhir/laboratory/StructureDefinition/Observation-resultslab-eu-lab"
          ]
        },
        "performer": [
          {
            "display": "The Central European Lab"
          }
        ],
        "category": [
          {
            "coding": [
              {
                "system": "http://terminology.hl7.org/CodeSystem/observation-category",
                "code": "laboratory"
              }
            ]
          }
        ],
        "code": {
          "coding": [
            {
              "code": "38483-4",
              "system": "http://loinc.org",
              "display": "Creatinine [Mass/volume] in Blood"
            }
          ],
          "text": "Creatinine [Mass/volume] in Blood"
        },
        "valueQuantity": {
          "system": "http://unitsofmeasure.org",
          "value": 0.8,
          "unit": "mg/dL",
          "code": "mg/dL"
        },
        "referenceRange": [
          {
            "low": {
              "value": 0.9,
              "code": "mg/dL",
              "system": "http://unitsofmeasure.org"
            }
          },
          {
            "high": {
              "value": 1.3,
              "code": "mg/dL",
              "system": "http://unitsofmeasure.org"
            }
          }
        ],
        "interpretation": [
          {
            "coding": [
              {
                "code": "L",
                "system": "http://terminology.hl7.org/CodeSystem/v3-ObservationInterpretation",
                "display": "Low"
              }
            ]
          }
        ],
        "text": {
          "status": "generated",
          "div": "<div xmlns=\"http://www.w3.org/1999/xhtml\"><table class=\"hl7__eu__lab__report\"><tr><th>Test</th><th>01-Nov-2024</th><th>Reference&#xA0;Range</th><th>Unit</th></tr><tr><td>Creatinine [Mass/volume] in Blood</td><td>0.8</td><td>0.9 - 1.3</td><td>L</td><td>mg/dL</td></tr></table></div>"
        },
        "status": "final",
        "subject": {
          "reference": "urn:uuid:38a01245-e632-4521-b4da-3964d204fa3c",
          "display": "Gabrielius Gaičiūnas"
        },
        "effectiveDateTime": "2024-11-01T16:05:46Z"
      }
    },
    {
      "fullUrl": "urn:uuid:1b6594f8-5ef1-40ea-aa37-ac0a3d88aad7",
      "resource": {
        "resourceType": "Observation",
        "id": "1b6594f8-5ef1-40ea-aa37-ac0a3d88aad7",
        "meta": {
          "profile": [
            "http://hl7.eu/fhir/laboratory/StructureDefinition/Observation-resultslab-eu-lab"
          ]
        },
        "performer": [
          {
            "display": "The Central European Lab"
          }
        ],
        "category": [
          {
            "coding": [
              {
                "system": "http://terminology.hl7.org/CodeSystem/observation-category",
                "code": "laboratory"
              }
            ]
          }
        ],
        "code": {
          "coding": [
            {
              "code": "49765-1",
              "system": "http://loinc.org",
              "display": "Calcium [Mass/volume] in Blood"
            }
          ],
          "text": "Calcium [Mass/volume] in Blood"
        },
        "valueQuantity": {
          "system": "http://unitsofmeasure.org",
          "value": 8.6,
          "unit": "mg/dL",
          "code": "mg/dL"
        },
        "referenceRange": [
          {
            "low": {
              "value": 8.5,
              "code": "mg/dL",
              "system": "http://unitsofmeasure.org"
            }
          },
          {
            "high": {
              "value": 10.5,
              "code": "mg/dL",
              "system": "http://unitsofmeasure.org"
            }
          }
        ],
        "text": {
          "status": "generated",
          "div": "<div xmlns=\"http://www.w3.org/1999/xhtml\"><table class=\"hl7__eu__lab__report\"><tr><th>Test</th><th>01-Nov-2024</th><th>Reference&#xA0;Range</th><th>Unit</th></tr><tr><td>Calcium [Mass/volume] in Blood</td><td>8.6</td><td>8.5 - 10.5</td><td></td><td>mg/dL</td></tr></table></div>"
        },
        "status": "final",
        "subject": {
          "reference": "urn:uuid:38a01245-e632-4521-b4da-3964d204fa3c",
          "display": "Gabrielius Gaičiūnas"
        },
        "effectiveDateTime": "2024-11-01T16:05:46Z"
      }
    },
    {
      "fullUrl": "urn:uuid:70a79c97-084a-4f01-ae72-dd586af39663",
      "resource": {
        "resourceType": "Observation",
        "id": "70a79c97-084a-4f01-ae72-dd586af39663",
        "meta": {
          "profile": [
            "http://hl7.eu/fhir/laboratory/StructureDefinition/Observation-resultslab-eu-lab"
          ]
        },
        "performer": [
          {
            "display": "The Central European Lab"
          }
        ],
        "category": [
          {
            "coding": [
              {
                "system": "http://terminology.hl7.org/CodeSystem/observation-category",
                "code": "laboratory"
              }
            ]
          }
        ],
        "code": {
          "coding": [
            {
              "code": "2947-0",
              "system": "http://loinc.org",
              "display": "Sodium [Moles/volume] in Blood"
            }
          ],
          "text": "Sodium [Moles/volume] in Blood"
        },
        "valueQuantity": {
          "system": "http://unitsofmeasure.org",
          "value": 141.1,
          "unit": "mmol/L",
          "code": "mmol/L"
        },
        "referenceRange": [
          {
            "low": {
              "value": 135,
              "code": "mmol/L",
              "system": "http://unitsofmeasure.org"
            }
          },
          {
            "high": {
              "value": 145,
              "code": "mmol/L",
              "system": "http://unitsofmeasure.org"
            }
          }
        ],
        "text": {
          "status": "generated",
          "div": "<div xmlns=\"http://www.w3.org/1999/xhtml\"><table class=\"hl7__eu__lab__report\"><tr><th>Test</th><th>01-Nov-2024</th><th>Reference&#xA0;Range</th><th>Unit</th></tr><tr><td>Sodium [Moles/volume] in Blood</td><td>141.1</td><td>135 - 145</td><td></td><td>mmol/L</td></tr></table></div>"
        },
        "status": "final",
        "subject": {
          "reference": "urn:uuid:38a01245-e632-4521-b4da-3964d204fa3c",
          "display": "Gabrielius Gaičiūnas"
        },
        "effectiveDateTime": "2024-11-01T16:05:46Z"
      }
    },
    {
      "fullUrl": "urn:uuid:06094e8b-887b-402c-825a-7920b4c0e1a0",
      "resource": {
        "resourceType": "Observation",
        "id": "06094e8b-887b-402c-825a-7920b4c0e1a0",
        "meta": {
          "profile": [
            "http://hl7.eu/fhir/laboratory/StructureDefinition/Observation-resultslab-eu-lab"
          ]
        },
        "performer": [
          {
            "display": "The Central European Lab"
          }
        ],
        "category": [
          {
            "coding": [
              {
                "system": "http://terminology.hl7.org/CodeSystem/observation-category",
                "code": "laboratory"
              }
            ]
          }
        ],
        "code": {
          "coding": [
            {
              "code": "6298-4",
              "system": "http://loinc.org",
              "display": "Potassium [Moles/volume] in Blood"
            }
          ],
          "text": "Potassium [Moles/volume] in Blood"
        },
        "valueQuantity": {
          "system": "http://unitsofmeasure.org",
          "value": 4.7,
          "unit": "mmol/L",
          "code": "mmol/L"
        },
        "referenceRange": [
          {
            "low": {
              "value": 3.5,
              "code": "mmol/L",
              "system": "http://unitsofmeasure.org"
            }
          },
          {
            "high": {
              "value": 5.3,
              "code": "mmol/L",
              "system": "http://unitsofmeasure.org"
            }
          }
        ],
        "text": {
          "status": "generated",
          "div": "<div xmlns=\"http://www.w3.org/1999/xhtml\"><table class=\"hl7__eu__lab__report\"><tr><th>Test</th><th>01-Nov-2024</th><th>Reference&#xA0;Range</th><th>Unit</th></tr><tr><td>Potassium [Moles/volume] in Blood</td><td>4.7</td><td>3.5 - 5.3</td><td></td><td>mmol/L</td></tr></table></div>"
        },
        "status": "final",
        "subject": {
          "reference": "urn:uuid:38a01245-e632-4521-b4da-3964d204fa3c",
          "display": "Gabrielius Gaičiūnas"
        },
        "effectiveDateTime": "2024-11-01T16:05:46Z"
      }
    },
    {
      "fullUrl": "urn:uuid:253f8d25-d925-4ba4-8c05-aac57a9fa22c",
      "resource": {
        "resourceType": "Observation",
        "id": "253f8d25-d925-4ba4-8c05-aac57a9fa22c",
        "meta": {
          "profile": [
            "http://hl7.eu/fhir/laboratory/StructureDefinition/Observation-resultslab-eu-lab"
          ]
        },
        "performer": [
          {
            "display": "The Central European Lab"
          }
        ],
        "category": [
          {
            "coding": [
              {
                "system": "http://terminology.hl7.org/CodeSystem/observation-category",
                "code": "laboratory"
              }
            ]
          }
        ],
        "code": {
          "coding": [
            {
              "code": "2069-3",
              "system": "http://loinc.org",
              "display": "Chloride [Moles/volume] in Blood"
            }
          ],
          "text": "Chloride [Moles/volume] in Blood"
        },
        "valueQuantity": {
          "system": "http://unitsofmeasure.org",
          "value": 101.5,
          "unit": "mmol/L",
          "code": "mmol/L"
        },
        "referenceRange": [
          {
            "low": {
              "value": 98,
              "code": "mmol/L",
              "system": "http://unitsofmeasure.org"
            }
          },
          {
            "high": {
              "value": 108,
              "code": "mmol/L",
              "system": "http://unitsofmeasure.org"
            }
          }
        ],
        "text": {
          "status": "generated",
          "div": "<div xmlns=\"http://www.w3.org/1999/xhtml\"><table class=\"hl7__eu__lab__report\"><tr><th>Test</th><th>01-Nov-2024</th><th>Reference&#xA0;Range</th><th>Unit</th></tr><tr><td>Chloride [Moles/volume] in Blood</td><td>101.5</td><td>98 - 108</td><td></td><td>mmol/L</td></tr></table></div>"
        },
        "status": "final",
        "subject": {
          "reference": "urn:uuid:38a01245-e632-4521-b4da-3964d204fa3c",
          "display": "Gabrielius Gaičiūnas"
        },
        "effectiveDateTime": "2024-11-01T16:05:46Z"
      }
    },
    {
      "fullUrl": "urn:uuid:3095593a-1c86-4109-870c-f03b6e2148f5",
      "resource": {
        "resourceType": "Observation",
        "id": "3095593a-1c86-4109-870c-f03b6e2148f5",
        "meta": {
          "profile": [
            "http://hl7.eu/fhir/laboratory/StructureDefinition/Observation-resultslab-eu-lab"
          ]
        },
        "performer": [
          {
            "display": "The Central European Lab"
          }
        ],
        "category": [
          {
            "coding": [
              {
                "system": "http://terminology.hl7.org/CodeSystem/observation-category",
                "code": "laboratory"
              }
            ]
          }
        ],
        "code": {
          "coding": [
            {
              "code": "20565-8",
              "system": "http://loinc.org",
              "display": "Carbon dioxide, total [Moles/volume] in Blood"
            }
          ],
          "text": "Carbon dioxide, total [Moles/volume] in Blood"
        },
        "valueQuantity": {
          "system": "http://unitsofmeasure.org",
          "value": 23.8,
          "unit": "mmol/L",
          "code": "mmol/L"
        },
        "referenceRange": [
          {
            "low": {
              "value": 22,
              "code": "mmol/L",
              "system": "http://unitsofmeasure.org"
            }
          },
          {
            "high": {
              "value": 29,
              "code": "mmol/L",
              "system": "http://unitsofmeasure.org"
            }
          }
        ],
        "text": {
          "status": "generated",
          "div": "<div xmlns=\"http://www.w3.org/1999/xhtml\"><table class=\"hl7__eu__lab__report\"><tr><th>Test</th><th>01-Nov-2024</th><th>Reference&#xA0;Range</th><th>Unit</th></tr><tr><td>Carbon dioxide, total [Moles/volume] in Blood</td><td>23.8</td><td>22 - 29</td><td></td><td>mmol/L</td></tr></table></div>"
        },
        "status": "final",
        "subject": {
          "reference": "urn:uuid:38a01245-e632-4521-b4da-3964d204fa3c",
          "display": "Gabrielius Gaičiūnas"
        },
        "effectiveDateTime": "2024-11-01T16:05:46Z"
      }
    },
    {
      "fullUrl": "urn:uuid:8c8e4af9-ed30-46aa-a7b7-ce5d7795542d",
      "resource": {
        "resourceType": "DeviceUseStatement",
        "id": "8c8e4af9-ed30-46aa-a7b7-ce5d7795542d",
        "meta": {
          "profile": [
            "http://hl7.eu/fhir/eps/StructureDefinition/deviceUseStatement-eu-eps"
          ]
        },
        "timingPeriod": {
          "start": "1989-06-23"
        },
        "text": {
          "status": "generated",
          "div": "<div xmlns=\"http://www.w3.org/1999/xhtml\"><table class=\"hl7__ips\"><tr><td>Home nebulizer (physical object)</td><td><span class=\"nb\">23-Jun-1989</span></td></tr></table></div>"
        },
        "status": "active",
        "device": {
          "reference": "urn:uuid:e3fbc9ec-5c31-458c-b0d5-69596e440b01",
          "display": "Home nebulizer (physical object)"
        },
        "subject": {
          "reference": "urn:uuid:38a01245-e632-4521-b4da-3964d204fa3c",
          "display": "Gabrielius Gaičiūnas"
        }
      }
    },
    {
      "fullUrl": "urn:uuid:e3fbc9ec-5c31-458c-b0d5-69596e440b01",
      "resource": {
        "resourceType": "Device",
        "id": "e3fbc9ec-5c31-458c-b0d5-69596e440b01",
        "meta": {
          "profile": [
            "http://hl7.eu/fhir/eps/StructureDefinition/device-eu-eps"
          ]
        },
        "udiCarrier": [
          {
            "id": "(01)46483900795704(11)890602(17)140617(10)36080240344876718(21)6897859932871537"
          }
        ],
        "status": "active",
        "patient": {
          "reference": "urn:uuid:38a01245-e632-4521-b4da-3964d204fa3c",
          "display": "Gabrielius Gaičiūnas"
        },
        "type": {
          "coding": [
            {
              "code": "170615005",
              "system": "http://snomed.info/sct",
              "display": "Home nebulizer (physical object)"
            }
          ]
        }
      }
    },
    {
      "fullUrl": "urn:uuid:2136224d-2ac4-4385-bcf3-edfb0b3881fb",
      "resource": {
        "resourceType": "DeviceUseStatement",
        "id": "2136224d-2ac4-4385-bcf3-edfb0b3881fb",
        "meta": {
          "profile": [
            "http://hl7.eu/fhir/eps/StructureDefinition/deviceUseStatement-eu-eps"
          ]
        },
        "timingPeriod": {
          "start": "1972-01-28"
        },
        "text": {
          "status": "generated",
          "div": "<div xmlns=\"http://www.w3.org/1999/xhtml\"><table class=\"hl7__ips\"><tr><td>Blood glucose meter (physical object)</td><td><span class=\"nb\">28-Jan-1972</span></td></tr></table></div>"
        },
        "status": "active",
        "device": {
          "reference": "urn:uuid:cd269b75-3865-452d-9778-0907d22eb243",
          "display": "Blood glucose meter (physical object)"
        },
        "subject": {
          "reference": "urn:uuid:38a01245-e632-4521-b4da-3964d204fa3c",
          "display": "Gabrielius Gaičiūnas"
        }
      }
    },
    {
      "fullUrl": "urn:uuid:cd269b75-3865-452d-9778-0907d22eb243",
      "resource": {
        "resourceType": "Device",
        "id": "cd269b75-3865-452d-9778-0907d22eb243",
        "meta": {
          "profile": [
            "http://hl7.eu/fhir/eps/StructureDefinition/device-eu-eps"
          ]
        },
        "udiCarrier": [
          {
            "id": "(01)92124840805951(11)720107(17)970121(10)7686436365610260918(21)470665388"
          }
        ],
        "status": "active",
        "patient": {
          "reference": "urn:uuid:38a01245-e632-4521-b4da-3964d204fa3c",
          "display": "Gabrielius Gaičiūnas"
        },
        "type": {
          "coding": [
            {
              "code": "337414009",
              "system": "http://snomed.info/sct",
              "display": "Blood glucose meter (physical object)"
            }
          ]
        }
      }
    },
    {
      "fullUrl": "urn:uuid:6a450e78-3b03-44ea-8f66-a0e8da4c44cd",
      "resource": {
        "resourceType": "Device",
        "id": "6a450e78-3b03-44ea-8f66-a0e8da4c44cd",
        "deviceName": [
          {
            "name": "SYNDERAI Synthetic Generator",
            "type": "manufacturer-name"
          }
        ],
        "version": [
          {
            "value": "5.0"
          }
        ],
        "text": {
          "status": "generated",
          "div": "<div xmlns=\"http://www.w3.org/1999/xhtml\">SYNDERAI Synthetic Generator v5.0</div>"
        },
        "status": "active\"",
        "distinctIdentifier": "synderai-generator-50",
        "manufacturer": "SYNDERAI Project"
      }
    },
    {
      "fullUrl": "urn:uuid:b535327e-0fee-4693-b505-94d8a70b91ca",
      "resource": {
        "resourceType": "Provenance",
        "id": "b535327e-0fee-4693-b505-94d8a70b91ca",
        "target": [
          {
            "reference": "Patient/38a01245-e632-4521-b4da-3964d204fa3c"
          },
          {
            "reference": "Bundle/6fbab12e-22e6-4037-90d0-f0cdbae11295"
          },
          {
            "reference": "Composition/9da5acbe-528a-44cc-9c54-2c2f75d67d5c"
          },
          {
            "reference": "PractitionerRole/071915e1-0c9d-4d5e-9447-5625c8b4cda7"
          },
          {
            "reference": "Organization/bd8387a5-d6b4-4070-9dc4-6b466bd25c87"
          },
          {
            "reference": "Practitioner/9beaeda5-b86b-4dcc-8a80-e24879698e73"
          }
        ],
        "activity": {
          "text": "Synthetic Example Data Generation"
        },
        "policy": [
          "https://synderai.net/synderai-synthetic-data-policy"
        ],
        "agent": [
          {
            "type": {
              "text": "author"
            },
            "who": {
              "reference": "Device/6a450e78-3b03-44ea-8f66-a0e8da4c44cd"
            }
          }
        ],
        "reason": [
          {
            "text": "Interoperability Testing and Training (non-clinical use)"
          }
        ],
        "text": {
          "status": "generated",
          "div": "<div xmlns=\"http://www.w3.org/1999/xhtml\">Provenance for SYNDERAI Synthetic Example Data Resource</div>"
        },
        "recorded": "2024-11-01T16:05:46Z"
      }
    }
  ],
  "type": "document",
  "timestamp": "2024-11-01T16:05:46Z"
}
