<Bundle xmlns="http://hl7.org/fhir">
   <id value="5643b57b-d9a5-4d4c-a7eb-4b7f574f8de4"/>
   <meta>
      <profile value="http://hl7.eu/fhir/eps/StructureDefinition/bundle-eu-eps"/>
   </meta>
   <identifier>
      <system value="urn:oid:2.16.840.1.113883.2.51.999"/>
      <value value="bd23149a-db4b-403a-b088-bb5972af18a6"/>
      <assigner>
         <display value="HL7 Europe"/>
      </assigner>
   </identifier>
   <type value="document"/>
   <timestamp value="2025-06-10T15:46:20Z"/>
   <entry>
      <fullUrl value="urn:uuid:47eda489-dd51-4977-93ee-68af296a8bec"/>
      <resource>
         <Composition>
            <id value="47eda489-dd51-4977-93ee-68af296a8bec"/>
            <meta>
               <profile value="http://hl7.eu/fhir/eps/StructureDefinition/composition-eu-eps"/>
               <security>
                  <system value="http://terminology.hl7.org/CodeSystem/v3-ActReason"/>
                  <code value="HTEST"/>
               </security>
               <security>
                  <system value="http://terminology.hl7.org/CodeSystem/v3-ActReason"/>
                  <code value="TRAIN"/>
               </security>
               <tag>
                  <system value="https://synderai.net/fhir/CodeSystem/tags"/>
                  <code value="synthetic"/>
                  <display value="SYNDERAI Synthetic data"/>
               </tag>
            </meta>
            <identifier>
               <system value="urn:oid:2.16.840.1.113883.2.51.999"/>
               <value value="233b9569-eb6a-46cc-8350-b794ebd0d8fa"/>
               <assigner>
                  <display value="HL7 Europe"/>
               </assigner>
            </identifier>
            <status value="final"/>
            <type>
               <coding>
                  <system value="http://loinc.org"/>
                  <code value="60591-5"/>
                  <display value="Patient summary Document"/>
               </coding>
               <text value="Patient summary Document"/>
            </type>
            <subject>
               <reference value="urn:uuid:cfdfc19b-20bf-428b-9034-586535c500ab"/>
               <display value="Gioele Fabbri"/>
            </subject>
            <date value="2025-06-10"/>
            <author>
               <reference value="urn:uuid:cfea9a97-e881-4589-9c3b-3b32ab6bf174"/>
            </author>
            <title value="European Patient Summary"/>
            <confidentiality value="N"/>
            <custodian>
               <reference value="urn:uuid:88b03ba0-6540-43fb-8946-05bc81d8fbc3"/>
            </custodian>
            <section>
               <title value="Problem list"/>
               <code>
                  <coding>
                     <system value="http://loinc.org"/>
                     <code value="11450-4"/>
                     <display value="Problem list - Reported"/>
                  </coding>
               </code>
               <text>
                  <status value="generated"/>
                  <div xmlns="http://www.w3.org/1999/xhtml">
                     <table class="hl7__ips">
                        <tr>
                           <th>Condition</th>
                           <th>Onset Date</th>
                           <th>Status</th>
                        </tr>
                        <tr>
                           <td>Anemia</td>
                           <td>
                              <span class="nb">22-May-2023</span>
                           </td>
                           <td>active</td>
                        </tr>
                        <tr>
                           <td>Prediabetes</td>
                           <td>
                              <span class="nb">16-May-2022</span>
                           </td>
                           <td>active</td>
                        </tr>
                        <tr>
                           <td>Recurrent rectal polyp</td>
                           <td>
                              <span class="nb">03-Jun-2020</span>
                           </td>
                           <td>active</td>
                        </tr>
                        <tr>
                           <td>Polyp of colon</td>
                           <td>
                              <span class="nb">06-May-2019</span>
                           </td>
                           <td>active</td>
                        </tr>
                        <tr>
                           <td>Hyperlipidemia</td>
                           <td>
                              <span class="nb">22-May-2017</span>
                           </td>
                           <td>active</td>
                        </tr>
                        <tr>
                           <td>Chronic intractable migraine without aura</td>
                           <td>
                              <span class="nb">20-Apr-1993</span>
                           </td>
                           <td>active</td>
                        </tr>
                     </table>
                  </div>
               </text>
               <entry>
                  <reference value="urn:uuid:95a51e27-c249-4656-85bd-f0a83bedc897"/>
               </entry>
               <entry>
                  <reference value="urn:uuid:aee4326d-e50a-4402-8b49-46668ed928b0"/>
               </entry>
               <entry>
                  <reference value="urn:uuid:fea9d9cf-989e-4a2a-b9e4-abfd8a0d441d"/>
               </entry>
               <entry>
                  <reference value="urn:uuid:fbf539a4-7831-42e2-b45d-cffd6b22799d"/>
               </entry>
               <entry>
                  <reference value="urn:uuid:d1aa187f-fc4c-418e-8154-2bf479faa9af"/>
               </entry>
               <entry>
                  <reference value="urn:uuid:cc553223-db44-4871-8871-53ddd6e62d40"/>
               </entry>
            </section>
            <section>
               <title value="Medication list"/>
               <code>
                  <coding>
                     <system value="http://loinc.org"/>
                     <code value="10160-0"/>
                     <display value="History of Medication use Narrative"/>
                  </coding>
               </code>
               <text>
                  <status value="generated"/>
                  <div xmlns="http://www.w3.org/1999/xhtml">
                     <table class="hl7__ips">
                        <tr>
                           <th>Medication</th>
                           <th>Since</th>
                           <th>Form</th>
                           <th>Dosage</th>
                           <th>Reason</th>
                        </tr>
                        <tr>
                           <td>Simvastatin 10 mg oral tablet</td>
                           <td>
                              <span class="nb">2025-06-10</span>
                           </td>
                           <td>-</td>
                           <td>1 tablet (10 mg) by mouth once daily</td>
                           <td>Hyperlipidemia</td>
                        </tr>
                     </table>
                  </div>
               </text>
               <entry>
                  <reference value="urn:uuid:9f870d5d-2d66-41b5-866d-32abde043e39"/>
               </entry>
            </section>
            <section>
               <title value="Immunizations list"/>
               <code>
                  <coding>
                     <system value="http://loinc.org"/>
                     <code value="11369-6"/>
                     <display value="History of Immunization note"/>
                  </coding>
               </code>
               <text>
                  <status value="generated"/>
                  <div xmlns="http://www.w3.org/1999/xhtml">
                     <table class="hl7__ips">
                        <tr>
                           <th>Vaccine</th>
                           <th>Date</th>
                        </tr>
                        <tr>
                           <td>Influenza virus antigen only vaccine product</td>
                           <td>
                              <span class="nb">02-Jun-2025</span>
                           </td>
                        </tr>
                        <tr>
                           <td>SARS-CoV-2 mRNA vaccine</td>
                           <td>
                              <span class="nb">03-May-2021</span>
                           </td>
                        </tr>
                        <tr>
                           <td>Clostridium tetani toxoid antigen adsorbed only vaccine product</td>
                           <td>
                              <span class="nb">04-May-2020</span>
                           </td>
                        </tr>
                        <tr>
                           <td>Live attenuated Human alphaherpesvirus 3 only vaccine product</td>
                           <td>
                              <span class="nb">04-May-2020</span>
                           </td>
                        </tr>
                     </table>
                  </div>
               </text>
               <entry>
                  <reference value="urn:uuid:0e949468-4fff-42bb-832a-82d146a8932e"/>
               </entry>
               <entry>
                  <reference value="urn:uuid:356f0a93-f21d-40fb-9b19-79f40ac67cea"/>
               </entry>
               <entry>
                  <reference value="urn:uuid:e6ad6aa8-067a-4fd0-af96-f409d5113cba"/>
               </entry>
               <entry>
                  <reference value="urn:uuid:f92bf7a7-5783-4645-9144-60db0d26b021"/>
               </entry>
            </section>
            <section>
               <title value="Procedure History list"/>
               <code>
                  <coding>
                     <system value="http://loinc.org"/>
                     <code value="47519-4"/>
                     <display value="History of Procedures Document"/>
                  </coding>
               </code>
               <text>
                  <status value="generated"/>
                  <div xmlns="http://www.w3.org/1999/xhtml">
                     <table class="hl7__ips">
                        <tr>
                           <th>Procedure</th>
                           <th>Date</th>
                           <th>Reason</th>
                        </tr>
                        <tr>
                           <td>Postoperative care</td>
                           <td>
                              <span class="nb">26-Jun-2020</span>
                           </td>
                           <td>Overlapping malignant neoplasm of colon</td>
                        </tr>
                        <tr>
                           <td>Partial resection of colon</td>
                           <td>
                              <span class="nb">20-Jun-2020</span>
                           </td>
                           <td>Overlapping malignant neoplasm of colon</td>
                        </tr>
                        <tr>
                           <td>Assessment of health and social care needs</td>
                           <td>
                              <span class="nb">24-Sep-2018</span>
                           </td>
                           <td>-</td>
                        </tr>
                        <tr>
                           <td>Assessment of anxiety</td>
                           <td>
                              <span class="nb">24-Sep-2018</span>
                           </td>
                           <td>-</td>
                        </tr>
                        <tr>
                           <td>Assessment using AUDIT-C (Alcohol Use Disorders Identification Test - Consumption)</td>
                           <td>
                              <span class="nb">24-Sep-2018</span>
                           </td>
                           <td>-</td>
                        </tr>
                        <tr>
                           <td>Assessment of substance use</td>
                           <td>
                              <span class="nb">24-Sep-2018</span>
                           </td>
                           <td>-</td>
                        </tr>
                     </table>
                  </div>
               </text>
               <entry>
                  <reference value="urn:uuid:7306e1fc-cc31-4338-9843-78d6fbac130d"/>
               </entry>
               <entry>
                  <reference value="urn:uuid:12cb6059-fc09-4f3b-8445-e186094aed94"/>
               </entry>
               <entry>
                  <reference value="urn:uuid:aec1282c-aa92-4e97-8beb-b16d5e9d37fd"/>
               </entry>
               <entry>
                  <reference value="urn:uuid:72c1e05a-a361-4994-a953-70dbb90cd6af"/>
               </entry>
               <entry>
                  <reference value="urn:uuid:97582998-c6cb-4131-93b4-c5379e90c5bd"/>
               </entry>
               <entry>
                  <reference value="urn:uuid:d77b9c84-70e9-46df-9ab7-1f9a39193746"/>
               </entry>
            </section>
            <section>
               <title value="Allergies and Intolerances"/>
               <code>
                  <coding>
                     <system value="http://loinc.org"/>
                     <code value="48765-2"/>
                     <display value="Allergies and adverse reactions Document"/>
                  </coding>
               </code>
               <text>
                  <status value="generated"/>
                  <div xmlns="http://www.w3.org/1999/xhtml">
                     <table class="hl7__ips">
                        <tr>
                           <th>Allergy/Intolerance</th>
                           <th>Onset Date</th>
                           <th>Status</th>
                           <th>Type</th>
                           <th>Reaction</th>
                        </tr>
                        <tr>
                           <td/>
                           <td>?</td>
                           <td>active</td>
                           <td>?</td>
                           <td/>
                        </tr>
                     </table>
                  </div>
               </text>
               <entry>
                  <reference value="urn:uuid:9d1ba09e-15c0-48ab-a9bc-ade6fa24709e"/>
               </entry>
            </section>
            <section>
               <title value="Care Plan"/>
               <code>
                  <coding>
                     <system value="http://loinc.org"/>
                     <code value="18776-5"/>
                     <display value="Plan of care note"/>
                  </coding>
               </code>
               <text>
                  <status value="generated"/>
                  <div xmlns="http://www.w3.org/1999/xhtml">
                     <table class="hl7__ips">
                        <tr>
                           <th>Active Planned Care / Goals</th>
                           <th>Start Date</th>
                           <th>Reason</th>
                        </tr>
                        <tr>
                           <td>Diabetes self management plan</td>
                           <td>
                              <span class="nb">16-May-2022</span>
                           </td>
                           <td>Prediabetes</td>
                        </tr>
                        <tr>
                           <td>
                              <ul>
                                 <li>Patient will demonstrate understanding of prediabetes self-management strategies including diet, exercise, and blood glucose monitoring.</li>
                                 <li>Maintain hemoglobin A1c below 5.7% to prevent progression to diabetes.</li>
                                 <li>Achieve and maintain at least 5% weight loss from baseline to reduce risk of developing diabetes.</li>
                                 <li>Engage in at least 150 minutes of moderate-intensity physical activity per week.</li>
                              </ul>
                           </td>
                           <td/>
                           <td/>
                        </tr>
                        <tr>
                           <td>Hyperlipidemia clinical management plan</td>
                           <td>
                              <span class="nb">12-Jun-2017</span>
                           </td>
                           <td>Hyperlipidemia</td>
                        </tr>
                        <tr>
                           <td>
                              <ul>
                                 <li>Achieve and maintain LDL cholesterol below 100 mg/dL</li>
                                 <li>Achieve and maintain total cholesterol below 200 mg/dL</li>
                                 <li>Achieve and maintain triglycerides below 150 mg/dL</li>
                                 <li>Achieve and maintain HDL cholesterol above 40 mg/dL</li>
                              </ul>
                           </td>
                           <td/>
                           <td/>
                        </tr>
                     </table>
                  </div>
               </text>
               <entry>
                  <reference value="urn:uuid:841255cb-0bf6-40e4-badf-791f27caa108"/>
               </entry>
               <entry>
                  <reference value="urn:uuid:3dc1a06e-0111-4083-82a9-1fc09efc8052"/>
               </entry>
            </section>
            <section>
               <title value="Vital Signs"/>
               <code>
                  <coding>
                     <system value="http://loinc.org"/>
                     <code value="8716-3"/>
                     <display value="Vital signs note"/>
                  </coding>
               </code>
               <text>
                  <status value="generated"/>
                  <div xmlns="http://www.w3.org/1999/xhtml">
                     <table class="hl7__ips">
                        <tr>
                           <th>Vital Signs</th>
                           <th>2025-06-02</th>
                           <th>2024-05-27</th>
                        </tr>
                        <tr>
                           <td>Body Height</td>
                           <td>177 cm</td>
                           <td>177 cm</td>
                        </tr>
                        <tr>
                           <td>Pain severity - 0-10 verbal numeric rating [Score] - Reported</td>
                           <td>3 {score}</td>
                           <td>3 {score}</td>
                        </tr>
                        <tr>
                           <td>Body Weight</td>
                           <td>87.9 kg</td>
                           <td>87.9 kg</td>
                        </tr>
                        <tr>
                           <td>Body mass index (BMI) [Ratio]</td>
                           <td>28.1 kg/m2</td>
                           <td>28.1 kg/m2</td>
                        </tr>
                        <tr>
                           <td>Diastolic Blood Pressure</td>
                           <td>83 mm[Hg]</td>
                           <td>84 mm[Hg]</td>
                        </tr>
                        <tr>
                           <td>Systolic Blood Pressure</td>
                           <td>125 mm[Hg]</td>
                           <td>123 mm[Hg]</td>
                        </tr>
                        <tr>
                           <td>Heart rate</td>
                           <td>70 /min</td>
                           <td>80 /min</td>
                        </tr>
                        <tr>
                           <td>Respiratory rate</td>
                           <td>15 /min</td>
                           <td>13 /min</td>
                        </tr>
                     </table>
                  </div>
               </text>
               <entry>
                  <reference value="urn:uuid:9aaa56fd-3ae2-4638-8a08-27f75c0c70cb"/>
               </entry>
               <entry>
                  <reference value="urn:uuid:8af2e43e-8d7f-4d54-8f22-0ed92ddb384c"/>
               </entry>
               <entry>
                  <reference value="urn:uuid:134e5000-0539-4cb3-80fb-49b22730e495"/>
               </entry>
               <entry>
                  <reference value="urn:uuid:45827c62-1194-4803-b9c7-37c3ad43e27e"/>
               </entry>
               <entry>
                  <reference value="urn:uuid:461686fa-07cc-4d2e-9f54-0b69d65e7330"/>
               </entry>
               <entry>
                  <reference value="urn:uuid:a50be08e-f582-497c-b9fb-c47a8dd1b3d9"/>
               </entry>
               <entry>
                  <reference value="urn:uuid:a3cb40eb-9f87-4b72-a558-2c02b1b3ac39"/>
               </entry>
               <entry>
                  <reference value="urn:uuid:61f490e2-b4fa-476e-9003-98dbdb9f64dc"/>
               </entry>
               <entry>
                  <reference value="urn:uuid:81fc9531-1b75-41ab-a839-49e7643b6b27"/>
               </entry>
               <entry>
                  <reference value="urn:uuid:3f8d316c-627a-4451-9a60-0f38eb267e48"/>
               </entry>
               <entry>
                  <reference value="urn:uuid:f4602bec-0f1b-4543-9ea6-7c01466d4b29"/>
               </entry>
               <entry>
                  <reference value="urn:uuid:e1be855c-7e74-4df7-a145-d76e1e825467"/>
               </entry>
               <entry>
                  <reference value="urn:uuid:db66aade-9b58-4c0e-bbe9-c0806ce07b3c"/>
               </entry>
               <entry>
                  <reference value="urn:uuid:b1e8f851-65fb-4108-94b1-7834f44de0e7"/>
               </entry>
               <entry>
                  <reference value="urn:uuid:6b66eabb-f218-4763-9e1e-fe158e1efc8d"/>
               </entry>
               <entry>
                  <reference value="urn:uuid:df72f511-b184-4538-8df4-7a7c17303440"/>
               </entry>
            </section>
            <section>
               <title value="Relevant diagnostic tests/laboratory data"/>
               <code>
                  <coding>
                     <system value="http://loinc.org"/>
                     <code value="30954-2"/>
                     <display value="Relevant diagnostic tests/laboratory data note"/>
                  </coding>
               </code>
               <text>
                  <status value="generated"/>
                  <div xmlns="http://www.w3.org/1999/xhtml">
                     <table class="hl7__ips">
                        <table class="hl7__ips">
                           <thead>
                              <tr>
                                 <th>Recent Lab Observations</th>
                                 <th>10-JUN-2025</th>
                                 <th>Reference Range</th>
                                 <th>Unit</th>
                              </tr>
                           </thead>
                           <tbody>
                              <tr>
                                 <td>Glucose [Mass/volume] in Blood</td>
                                 <td>77.7</td>
                                 <td>70 - 99</td>
                                 <td>mg/dL</td>
                              </tr>
                              <tr>
                                 <td>Urea nitrogen [Mass/volume] in Blood</td>
                                 <td>11.5</td>
                                 <td>7 - 20</td>
                                 <td>mg/dL</td>
                              </tr>
                              <tr>
                                 <td>Creatinine [Mass/volume] in Blood</td>
                                 <td>
                                    <strong>2.8 H</strong>
                                 </td>
                                 <td>0.7 - 1.3</td>
                                 <td>mg/dL</td>
                              </tr>
                              <tr>
                                 <td>Calcium [Mass/volume] in Blood</td>
                                 <td>9.3</td>
                                 <td>8.5 - 10.5</td>
                                 <td>mg/dL</td>
                              </tr>
                              <tr>
                                 <td>Sodium [Moles/volume] in Blood</td>
                                 <td>138.8</td>
                                 <td>135 - 145</td>
                                 <td>mmol/L</td>
                              </tr>
                              <tr>
                                 <td>Potassium [Moles/volume] in Blood</td>
                                 <td>4.9</td>
                                 <td>3.5 - 5</td>
                                 <td>mmol/L</td>
                              </tr>
                              <tr>
                                 <td>Chloride [Moles/volume] in Blood</td>
                                 <td>101.9</td>
                                 <td>98 - 107</td>
                                 <td>mmol/L</td>
                              </tr>
                              <tr>
                                 <td>Carbon dioxide, total [Moles/volume] in Blood</td>
                                 <td>27.5</td>
                                 <td>24 - 29</td>
                                 <td>mmol/L</td>
                              </tr>
                              <tr>
                                 <td>Protein [Mass/volume] in Serum or Plasma</td>
                                 <td>
                                    <strong>6.2 L</strong>
                                 </td>
                                 <td>6.6 - 8.3</td>
                                 <td>g/dL</td>
                              </tr>
                              <tr>
                                 <td>Albumin [Mass/volume] in Serum or Plasma</td>
                                 <td>3.8</td>
                                 <td>3.5 - 5.5</td>
                                 <td>g/dL</td>
                              </tr>
                              <tr>
                                 <td>Globulin [Mass/volume] in Serum by calculation</td>
                                 <td>3.4</td>
                                 <td>2 - 3.5</td>
                                 <td>g/L</td>
                              </tr>
                              <tr>
                                 <td>Bilirubin.total [Mass/volume] in Serum or Plasma</td>
                                 <td>0.6</td>
                                 <td>0.3 - 1.2</td>
                                 <td>mg/dL</td>
                              </tr>
                              <tr>
                                 <td>Alkaline phosphatase [Enzymatic activity/volume] in Serum or Plasma</td>
                                 <td>65.3</td>
                                 <td>39 - 136</td>
                                 <td>U/L</td>
                              </tr>
                              <tr>
                                 <td>Alanine aminotransferase [Enzymatic activity/volume] in Serum or Plasma</td>
                                 <td>40.7</td>
                                 <td>7 - 52</td>
                                 <td>U/L</td>
                              </tr>
                              <tr>
                                 <td>Aspartate aminotransferase [Enzymatic activity/volume] in Serum or Plasma</td>
                                 <td>12.3</td>
                                 <td>10 - 40</td>
                                 <td>U/L</td>
                              </tr>
                              <tr>
                                 <td>Cholesterol [Mass/volume] in Serum or Plasma</td>
                                 <td>
                                    <strong>200.4 H</strong>
                                 </td>
                                 <td>125 - 200</td>
                                 <td>mg/dL</td>
                              </tr>
                              <tr>
                                 <td>Triglyceride [Mass/volume] in Serum or Plasma</td>
                                 <td>100.5</td>
                                 <td>0 - 150</td>
                                 <td>mg/dL</td>
                              </tr>
                              <tr>
                                 <td>Cholesterol in LDL [Mass/volume] in Serum or Plasma by Direct assay</td>
                                 <td>106.5</td>
                                 <td>0 - 130</td>
                                 <td>mg/dL</td>
                              </tr>
                              <tr>
                                 <td>Cholesterol in HDL [Mass/volume] in Serum or Plasma</td>
                                 <td>
                                    <strong>31.4 L</strong>
                                 </td>
                                 <td>40 - 100</td>
                                 <td>mg/dL</td>
                              </tr>
                           </tbody>
                        </table>
                     </table>
                  </div>
               </text>
               <entry>
                  <reference value="urn:uuid:c9b6b4a0-5ff6-4ef2-a69f-c922fab65120"/>
               </entry>
               <entry>
                  <reference value="urn:uuid:ebb4617f-6b7c-411a-9194-1cc0d3310530"/>
               </entry>
               <entry>
                  <reference value="urn:uuid:72f69976-aa68-4f85-8633-1bd178207976"/>
               </entry>
               <entry>
                  <reference value="urn:uuid:5addd58b-8330-415c-8059-02445ba23040"/>
               </entry>
               <entry>
                  <reference value="urn:uuid:88d87ddb-f19c-4fc0-9abe-e7adc21e0612"/>
               </entry>
               <entry>
                  <reference value="urn:uuid:a96a1d0c-16fa-4e29-9c7f-f5992ff09008"/>
               </entry>
               <entry>
                  <reference value="urn:uuid:687aa329-6d49-4906-bbe4-7a732cf5fc6b"/>
               </entry>
               <entry>
                  <reference value="urn:uuid:439c0536-3f00-4b20-a059-456a20f6def3"/>
               </entry>
               <entry>
                  <reference value="urn:uuid:bd5f519b-3bf2-414d-b8b5-486aa04c3607"/>
               </entry>
               <entry>
                  <reference value="urn:uuid:6218efaf-dbdc-4af7-a2bf-800048140880"/>
               </entry>
               <entry>
                  <reference value="urn:uuid:93ef3c79-0d40-44ad-bdcf-b74220c54435"/>
               </entry>
               <entry>
                  <reference value="urn:uuid:f9c12403-2de5-448e-8600-5f005113797c"/>
               </entry>
               <entry>
                  <reference value="urn:uuid:f0767133-4cc4-4470-8b7b-0911fd205c59"/>
               </entry>
               <entry>
                  <reference value="urn:uuid:1983f1cc-d37d-40c4-bd9f-4a476c585551"/>
               </entry>
               <entry>
                  <reference value="urn:uuid:772c19c2-ed1b-4e34-8f8c-ed4cbb285ce8"/>
               </entry>
               <entry>
                  <reference value="urn:uuid:f3aad0d4-e481-4fd8-a696-767411f6a84b"/>
               </entry>
               <entry>
                  <reference value="urn:uuid:9f008e36-dfa2-406f-952d-eb65e6e7b4d5"/>
               </entry>
               <entry>
                  <reference value="urn:uuid:27471183-45c0-4892-bd4f-a780482c5c67"/>
               </entry>
               <entry>
                  <reference value="urn:uuid:fcf68ea9-fe79-41fa-a788-ec2bbd4144b7"/>
               </entry>
            </section>
            <section>
               <title value="Device Use"/>
               <code>
                  <coding>
                     <system value="http://loinc.org"/>
                     <code value="46264-8"/>
                     <display value="History of medical device use"/>
                  </coding>
               </code>
               <text>
                  <status value="generated"/>
                  <div xmlns="http://www.w3.org/1999/xhtml">
                     <table class="hl7__ips">
                        <tr>
                           <th>Device</th>
                           <th>Date (since)</th>
                        </tr>
                        <tr>
                           <td>Blood glucose meter (physical object)</td>
                           <td>
                              <span class="nb">16-May-2022</span>
                           </td>
                        </tr>
                     </table>
                  </div>
               </text>
               <entry>
                  <reference value="urn:uuid:13383900-f80e-427e-895e-5d30787f240f"/>
               </entry>
            </section>
         </Composition>
      </resource>
   </entry>
   <entry>
      <fullUrl value="urn:uuid:cfdfc19b-20bf-428b-9034-586535c500ab"/>
      <resource>
         <Patient>
            <id value="cfdfc19b-20bf-428b-9034-586535c500ab"/>
            <meta>
               <profile value="http://hl7.eu/fhir/eps/StructureDefinition/patient-eu-eps"/>
               <security>
                  <system value="http://terminology.hl7.org/CodeSystem/v3-ActReason"/>
                  <code value="HTEST"/>
               </security>
               <security>
                  <system value="http://terminology.hl7.org/CodeSystem/v3-ActReason"/>
                  <code value="TRAIN"/>
               </security>
               <tag>
                  <system value="https://synderai.net/fhir/CodeSystem/tags"/>
                  <code value="synthetic"/>
                  <display value="SYNDERAI Synthetic data"/>
               </tag>
            </meta>
            <text>
               <status value="generated"/>
               <div xmlns="http://www.w3.org/1999/xhtml">
                  <table class="hl7__ips">
                     <tr>
                        <td>Gioele Fabbri</td>
                        <td>male</td>
                        <td>12-Sep-1972</td>
                     </tr>
                  </table>
               </div>
            </text>
            <extension url="http://hl7.org/fhir/StructureDefinition/patient-nationality">
               <valueCodeableConcept>
                  <coding>
                     <system value="http://hl7.org/fhir/ValueSet/country"/>
                     <code value="IT"/>
                  </coding>
               </valueCodeableConcept>
            </extension>
            <identifier>
               <type>
                  <coding>
                     <system value="http://terminology.hl7.org/CodeSystem/v2-0203"/>
                     <code value="PT"/>
                  </coding>
               </type>
               <system value="http://ec.europa.eu/identifier/eci"/>
               <value value="3631-767680-1"/>
            </identifier>
            <identifier>
               <type>
                  <coding>
                     <system value="http://terminology.hl7.org/CodeSystem/v2-0203"/>
                     <code value="MR"/>
                  </coding>
               </type>
               <system value="http://local.setting.eu/identifier"/>
               <value value="0a14935e-e0f7-2e1e-46fa-42b10e75d1f9"/>
            </identifier>
            <name>
               <family value="Fabbri"/>
            </name>
            <name>
               <given value="Gioele"/>
            </name>
            <name>
               <text value="Gioele Fabbri"/>
            </name>
            <telecom>
               <system value="phone"/>
               <value value="+39 0423197768"/>
            </telecom>
            <gender value="male"/>
            <birthDate value="1972-09-12"/>
            <address>
               <use value="home"/>
               <type value="physical"/>
               <line value="Canale Armani, 25"/>
               <city value="Revislate"/>
               <postalCode value="23887"/>
               <country value="Italy"/>
            </address>
         </Patient>
      </resource>
   </entry>
   <entry>
      <fullUrl value="urn:uuid:cfea9a97-e881-4589-9c3b-3b32ab6bf174"/>
      <resource>
         <PractitionerRole>
            <id value="cfea9a97-e881-4589-9c3b-3b32ab6bf174"/>
            <meta>
               <profile value="http://hl7.eu/fhir/base/StructureDefinition/practitionerRole-eu"/>
            </meta>
            <text>
               <status value="generated"/>
               <div xmlns="http://www.w3.org/1999/xhtml">
                  <table class="hl7__ips">Provider Role Id cfea9a97-e881-4589-9c3b-3b32ab6bf174</table>
               </div>
            </text>
            <practitioner>
               <reference value="urn:uuid:acefdfac-3d42-4cfe-8c84-7251168a5091"/>
            </practitioner>
            <organization>
               <reference value="urn:uuid:88b03ba0-6540-43fb-8946-05bc81d8fbc3"/>
            </organization>
         </PractitionerRole>
      </resource>
   </entry>
   <entry>
      <fullUrl value="urn:uuid:acefdfac-3d42-4cfe-8c84-7251168a5091"/>
      <resource>
         <Practitioner>
            <id value="acefdfac-3d42-4cfe-8c84-7251168a5091"/>
            <meta>
               <profile value="http://hl7.eu/fhir/base/StructureDefinition/practitioner-eu"/>
            </meta>
            <text>
               <status value="generated"/>
               <div xmlns="http://www.w3.org/1999/xhtml">
                  <table class="hl7__ips">Dr. Hel Ping</table>
               </div>
            </text>
            <name>
               <family value="Ping"/>
               <given value="Hel"/>
               <prefix value="Dr."/>
            </name>
         </Practitioner>
      </resource>
   </entry>
   <entry>
      <fullUrl value="urn:uuid:88b03ba0-6540-43fb-8946-05bc81d8fbc3"/>
      <resource>
         <Organization>
            <id value="88b03ba0-6540-43fb-8946-05bc81d8fbc3"/>
            <meta>
               <profile value="http://hl7.eu/fhir/base/StructureDefinition/organization-eu"/>
            </meta>
            <text>
               <status value="generated"/>
               <div xmlns="http://www.w3.org/1999/xhtml">
                  <table class="hl7__ips">Ospedale di Calcinate "F.M. Passi"</table>
               </div>
            </text>
            <identifier>
               <system value="urn:oid:2.16.840.1.113883.2.51.999"/>
               <value value="92bcf049-342a-45e8-b32f-ddec32074380"/>
               <assigner>
                  <display value="HL7 Europe"/>
               </assigner>
            </identifier>
            <name value="Ospedale di Calcinate &amp;quot;F.M. Passi&amp;quot;"/>
            <address>
               <line value="Piazza Ospedale 3"/>
               <city value="Calcinate"/>
               <postalCode value="24050"/>
               <country value="Italy"/>
            </address>
         </Organization>
      </resource>
   </entry>
   <entry>
      <fullUrl value="urn:uuid:95a51e27-c249-4656-85bd-f0a83bedc897"/>
      <resource>
         <Condition>
            <id value="95a51e27-c249-4656-85bd-f0a83bedc897"/>
            <meta>
               <profile value="http://hl7.org/fhir/uv/ips/StructureDefinition/Condition-uv-ips"/>
            </meta>
            <text>
               <status value="generated"/>
               <div xmlns="http://www.w3.org/1999/xhtml">
                  <table class="hl7__ips">
                     <tr>
                        <td>Anemia</td>
                        <td>
                           <span class="nb">22-May-2023</span>
                        </td>
                        <td>active</td>
                     </tr>
                  </table>
               </div>
            </text>
            <category>
               <coding>
                  <system value="http://terminology.hl7.org/CodeSystem/condition-category"/>
                  <code value="problem-list-item"/>
                  <display value="Problem List Item"/>
               </coding>
            </category>
            <code>
               <coding>
                  <system value="http://snomed.info/sct"/>
                  <code value="271737000"/>
                  <display value="Anemia (disorder)"/>
               </coding>
               <text value="Anemia"/>
            </code>
            <subject>
               <reference value="urn:uuid:"/>
               <display value="Gioele Fabbri"/>
            </subject>
            <onsetDateTime value="2023-05-22"/>
            <asserter>
               <reference value="urn:uuid:"/>
               <display value="Ospedale di Calcinate &amp;quot;F.M. Passi&amp;quot;"/>
            </asserter>
         </Condition>
      </resource>
   </entry>
   <entry>
      <fullUrl value="urn:uuid:aee4326d-e50a-4402-8b49-46668ed928b0"/>
      <resource>
         <Condition>
            <id value="aee4326d-e50a-4402-8b49-46668ed928b0"/>
            <meta>
               <profile value="http://hl7.org/fhir/uv/ips/StructureDefinition/Condition-uv-ips"/>
            </meta>
            <text>
               <status value="generated"/>
               <div xmlns="http://www.w3.org/1999/xhtml">
                  <table class="hl7__ips">
                     <tr>
                        <td>Prediabetes</td>
                        <td>
                           <span class="nb">16-May-2022</span>
                        </td>
                        <td>active</td>
                     </tr>
                  </table>
               </div>
            </text>
            <category>
               <coding>
                  <system value="http://terminology.hl7.org/CodeSystem/condition-category"/>
                  <code value="problem-list-item"/>
                  <display value="Problem List Item"/>
               </coding>
            </category>
            <code>
               <coding>
                  <system value="http://snomed.info/sct"/>
                  <code value="15777000"/>
                  <display value="Prediabetes (disorder)"/>
               </coding>
               <text value="Prediabetes"/>
            </code>
            <subject>
               <reference value="urn:uuid:"/>
               <display value="Gioele Fabbri"/>
            </subject>
            <onsetDateTime value="2022-05-16"/>
            <asserter>
               <reference value="urn:uuid:"/>
               <display value="Ospedale di Calcinate &amp;quot;F.M. Passi&amp;quot;"/>
            </asserter>
         </Condition>
      </resource>
   </entry>
   <entry>
      <fullUrl value="urn:uuid:fea9d9cf-989e-4a2a-b9e4-abfd8a0d441d"/>
      <resource>
         <Condition>
            <id value="fea9d9cf-989e-4a2a-b9e4-abfd8a0d441d"/>
            <meta>
               <profile value="http://hl7.org/fhir/uv/ips/StructureDefinition/Condition-uv-ips"/>
            </meta>
            <text>
               <status value="generated"/>
               <div xmlns="http://www.w3.org/1999/xhtml">
                  <table class="hl7__ips">
                     <tr>
                        <td>Recurrent rectal polyp</td>
                        <td>
                           <span class="nb">03-Jun-2020</span>
                        </td>
                        <td>active</td>
                     </tr>
                  </table>
               </div>
            </text>
            <category>
               <coding>
                  <system value="http://terminology.hl7.org/CodeSystem/condition-category"/>
                  <code value="problem-list-item"/>
                  <display value="Problem List Item"/>
               </coding>
            </category>
            <code>
               <coding>
                  <system value="http://snomed.info/sct"/>
                  <code value="713197008"/>
                  <display value="Recurrent rectal polyp (disorder)"/>
               </coding>
               <text value="Recurrent rectal polyp"/>
            </code>
            <subject>
               <reference value="urn:uuid:"/>
               <display value="Gioele Fabbri"/>
            </subject>
            <onsetDateTime value="2020-06-03"/>
            <asserter>
               <reference value="urn:uuid:"/>
               <display value="Ospedale di Calcinate &amp;quot;F.M. Passi&amp;quot;"/>
            </asserter>
         </Condition>
      </resource>
   </entry>
   <entry>
      <fullUrl value="urn:uuid:fbf539a4-7831-42e2-b45d-cffd6b22799d"/>
      <resource>
         <Condition>
            <id value="fbf539a4-7831-42e2-b45d-cffd6b22799d"/>
            <meta>
               <profile value="http://hl7.org/fhir/uv/ips/StructureDefinition/Condition-uv-ips"/>
            </meta>
            <text>
               <status value="generated"/>
               <div xmlns="http://www.w3.org/1999/xhtml">
                  <table class="hl7__ips">
                     <tr>
                        <td>Polyp of colon</td>
                        <td>
                           <span class="nb">06-May-2019</span>
                        </td>
                        <td>active</td>
                     </tr>
                  </table>
               </div>
            </text>
            <category>
               <coding>
                  <system value="http://terminology.hl7.org/CodeSystem/condition-category"/>
                  <code value="problem-list-item"/>
                  <display value="Problem List Item"/>
               </coding>
            </category>
            <code>
               <coding>
                  <system value="http://snomed.info/sct"/>
                  <code value="68496003"/>
                  <display value="Polyp of colon (disorder)"/>
               </coding>
               <text value="Polyp of colon"/>
            </code>
            <subject>
               <reference value="urn:uuid:"/>
               <display value="Gioele Fabbri"/>
            </subject>
            <onsetDateTime value="2019-05-06"/>
            <asserter>
               <reference value="urn:uuid:"/>
               <display value="Ospedale di Calcinate &amp;quot;F.M. Passi&amp;quot;"/>
            </asserter>
         </Condition>
      </resource>
   </entry>
   <entry>
      <fullUrl value="urn:uuid:d1aa187f-fc4c-418e-8154-2bf479faa9af"/>
      <resource>
         <Condition>
            <id value="d1aa187f-fc4c-418e-8154-2bf479faa9af"/>
            <meta>
               <profile value="http://hl7.org/fhir/uv/ips/StructureDefinition/Condition-uv-ips"/>
            </meta>
            <text>
               <status value="generated"/>
               <div xmlns="http://www.w3.org/1999/xhtml">
                  <table class="hl7__ips">
                     <tr>
                        <td>Hyperlipidemia</td>
                        <td>
                           <span class="nb">22-May-2017</span>
                        </td>
                        <td>active</td>
                     </tr>
                  </table>
               </div>
            </text>
            <category>
               <coding>
                  <system value="http://terminology.hl7.org/CodeSystem/condition-category"/>
                  <code value="problem-list-item"/>
                  <display value="Problem List Item"/>
               </coding>
            </category>
            <code>
               <coding>
                  <system value="http://snomed.info/sct"/>
                  <code value="55822004"/>
                  <display value="Hyperlipidemia (disorder)"/>
               </coding>
               <text value="Hyperlipidemia"/>
            </code>
            <subject>
               <reference value="urn:uuid:"/>
               <display value="Gioele Fabbri"/>
            </subject>
            <onsetDateTime value="2017-05-22"/>
            <asserter>
               <reference value="urn:uuid:"/>
               <display value="Ospedale di Calcinate &amp;quot;F.M. Passi&amp;quot;"/>
            </asserter>
         </Condition>
      </resource>
   </entry>
   <entry>
      <fullUrl value="urn:uuid:cc553223-db44-4871-8871-53ddd6e62d40"/>
      <resource>
         <Condition>
            <id value="cc553223-db44-4871-8871-53ddd6e62d40"/>
            <meta>
               <profile value="http://hl7.org/fhir/uv/ips/StructureDefinition/Condition-uv-ips"/>
            </meta>
            <text>
               <status value="generated"/>
               <div xmlns="http://www.w3.org/1999/xhtml">
                  <table class="hl7__ips">
                     <tr>
                        <td>Chronic intractable migraine without aura</td>
                        <td>
                           <span class="nb">20-Apr-1993</span>
                        </td>
                        <td>active</td>
                     </tr>
                  </table>
               </div>
            </text>
            <category>
               <coding>
                  <system value="http://terminology.hl7.org/CodeSystem/condition-category"/>
                  <code value="problem-list-item"/>
                  <display value="Problem List Item"/>
               </coding>
            </category>
            <code>
               <coding>
                  <system value="http://snomed.info/sct"/>
                  <code value="124171000119105"/>
                  <display value="Chronic intractable migraine without aura (disorder)"/>
               </coding>
               <text value="Chronic intractable migraine without aura"/>
            </code>
            <subject>
               <reference value="urn:uuid:"/>
               <display value="Gioele Fabbri"/>
            </subject>
            <onsetDateTime value="1993-04-20"/>
            <asserter>
               <reference value="urn:uuid:"/>
               <display value="Ospedale di Calcinate &amp;quot;F.M. Passi&amp;quot;"/>
            </asserter>
         </Condition>
      </resource>
   </entry>
   <entry>
      <fullUrl value="urn:uuid:0f047a2c-ad5d-4fac-bd4e-0c9c0a53f6fe"/>
      <resource>
         <Condition>
            <id value="0f047a2c-ad5d-4fac-bd4e-0c9c0a53f6fe"/>
            <meta>
               <profile value="http://hl7.org/fhir/uv/ips/StructureDefinition/Condition-uv-ips"/>
            </meta>
            <text>
               <status value="generated"/>
               <div xmlns="http://www.w3.org/1999/xhtml">
                  <table class="hl7__ips">
                     <tr>
                        <td>
                           <span class="grayedout">Overlapping malignant neoplasm of colon</span>
                        </td>
                        <td>
                           <span class="nb">09-Jun-2020 - 17-Oct-2021</span>
                        </td>
                        <td>
                           <span class="grayedout">inactive</span>
                        </td>
                     </tr>
                  </table>
               </div>
            </text>
            <category>
               <coding>
                  <system value="http://terminology.hl7.org/CodeSystem/condition-category"/>
                  <code value="problem-list-item"/>
                  <display value="Problem List Item"/>
               </coding>
            </category>
            <code>
               <coding>
                  <system value="http://snomed.info/sct"/>
                  <code value="109838007"/>
                  <display value="Overlapping malignant neoplasm of colon (disorder)"/>
               </coding>
               <text value="Overlapping malignant neoplasm of colon"/>
            </code>
            <subject>
               <reference value="urn:uuid:"/>
               <display value="Gioele Fabbri"/>
            </subject>
            <onsetDateTime value="2020-06-09"/>
            <abatementDateTime value="2021-10-17"/>
            <asserter>
               <reference value="urn:uuid:"/>
               <display value="Ospedale di Calcinate &amp;quot;F.M. Passi&amp;quot;"/>
            </asserter>
         </Condition>
      </resource>
   </entry>
   <entry>
      <fullUrl value="urn:uuid:c089b691-ad4d-4f0d-ae28-5d7a384c1383"/>
      <resource>
         <Condition>
            <id value="c089b691-ad4d-4f0d-ae28-5d7a384c1383"/>
            <meta>
               <profile value="http://hl7.org/fhir/uv/ips/StructureDefinition/Condition-uv-ips"/>
            </meta>
            <text>
               <status value="generated"/>
               <div xmlns="http://www.w3.org/1999/xhtml">
                  <table class="hl7__ips">
                     <tr>
                        <td>
                           <span class="grayedout">Acute bronchitis</span>
                        </td>
                        <td>
                           <span class="nb">17-Sep-2018 - 06-Oct-2018</span>
                        </td>
                        <td>
                           <span class="grayedout">inactive</span>
                        </td>
                     </tr>
                  </table>
               </div>
            </text>
            <category>
               <coding>
                  <system value="http://terminology.hl7.org/CodeSystem/condition-category"/>
                  <code value="problem-list-item"/>
                  <display value="Problem List Item"/>
               </coding>
            </category>
            <code>
               <coding>
                  <system value="http://snomed.info/sct"/>
                  <code value="10509002"/>
                  <display value="Acute bronchitis (disorder)"/>
               </coding>
               <text value="Acute bronchitis"/>
            </code>
            <subject>
               <reference value="urn:uuid:"/>
               <display value="Gioele Fabbri"/>
            </subject>
            <onsetDateTime value="2018-09-17"/>
            <abatementDateTime value="2018-10-06"/>
            <asserter>
               <reference value="urn:uuid:"/>
               <display value="Ospedale di Calcinate &amp;quot;F.M. Passi&amp;quot;"/>
            </asserter>
         </Condition>
      </resource>
   </entry>
   <entry>
      <fullUrl value="urn:uuid:8e8b0d76-23f5-4cd7-9a83-0eb3ef8eb97b"/>
      <resource>
         <Condition>
            <id value="8e8b0d76-23f5-4cd7-9a83-0eb3ef8eb97b"/>
            <meta>
               <profile value="http://hl7.org/fhir/uv/ips/StructureDefinition/Condition-uv-ips"/>
            </meta>
            <text>
               <status value="generated"/>
               <div xmlns="http://www.w3.org/1999/xhtml">
                  <table class="hl7__ips">
                     <tr>
                        <td>
                           <span class="grayedout">Streptococcal sore throat</span>
                        </td>
                        <td>
                           <span class="nb">16-Jan-2018 - 28-Jan-2018</span>
                        </td>
                        <td>
                           <span class="grayedout">inactive</span>
                        </td>
                     </tr>
                  </table>
               </div>
            </text>
            <category>
               <coding>
                  <system value="http://terminology.hl7.org/CodeSystem/condition-category"/>
                  <code value="problem-list-item"/>
                  <display value="Problem List Item"/>
               </coding>
            </category>
            <code>
               <coding>
                  <system value="http://snomed.info/sct"/>
                  <code value="43878008"/>
                  <display value="Streptococcal sore throat (disorder)"/>
               </coding>
               <text value="Streptococcal sore throat"/>
            </code>
            <subject>
               <reference value="urn:uuid:"/>
               <display value="Gioele Fabbri"/>
            </subject>
            <onsetDateTime value="2018-01-16"/>
            <abatementDateTime value="2018-01-28"/>
            <asserter>
               <reference value="urn:uuid:"/>
               <display value="Ospedale di Calcinate &amp;quot;F.M. Passi&amp;quot;"/>
            </asserter>
         </Condition>
      </resource>
   </entry>
   <entry>
      <fullUrl value="urn:uuid:3daaf829-af87-403b-8b30-371ebaa4d850"/>
      <resource>
         <Medication>
            <id value="3daaf829-af87-403b-8b30-371ebaa4d850"/>
            <meta>
               <profile value="http://hl7.eu/fhir/eps/StructureDefinition/Medication-eu-eps"/>
            </meta>
            <text>
               <status value="generated"/>
               <div xmlns="http://www.w3.org/1999/xhtml">Simvastatin 10 mg oral tablet</div>
            </text>
            <code>
               <coding>
                  <system value="http://snomed.info/sct"/>
                  <code value="319996000"/>
                  <display value="Simvastatin 10 mg oral tablet"/>
               </coding>
               <text value="Simvastatin 10 mg oral tablet"/>
            </code>
         </Medication>
      </resource>
   </entry>
   <entry>
      <fullUrl value="urn:uuid:9f870d5d-2d66-41b5-866d-32abde043e39"/>
      <resource>
         <MedicationStatement>
            <id value="9f870d5d-2d66-41b5-866d-32abde043e39"/>
            <meta>
               <profile value="http://hl7.eu/fhir/eps/StructureDefinition/MedicationStatement-eu-eps"/>
            </meta>
            <text>
               <status value="generated"/>
               <div xmlns="http://www.w3.org/1999/xhtml">
                  <table class="hl7__ips first25">
                     <tr>
                        <th>Medication</th>
                        <th>Since</th>
                        <th>Form</th>
                        <th>Dosage</th>
                        <th>Reason</th>
                     </tr>
                     <tr>
                        <td>Simvastatin 10 mg oral tablet</td>
                        <td>
                           <span class="nb">2025-06-10</span>
                        </td>
                        <td>-</td>
                        <td>1 tablet (10 mg) by mouth once daily</td>
                        <td>Hyperlipidemia</td>
                     </tr>
                  </table>
               </div>
            </text>
            <status value="active"/>
            <medicationReference>
               <reference value="urn:uuid:3daaf829-af87-403b-8b30-371ebaa4d850"/>
               <display value="Simvastatin 10 mg oral tablet"/>
            </medicationReference>
            <subject>
               <reference value="urn:uuid:cfdfc19b-20bf-428b-9034-586535c500ab"/>
               <display value="Gioele Fabbri"/>
            </subject>
            <effectivePeriod>
               <start value="2025-06-10"/>
            </effectivePeriod>
            <reasonCode>
               <coding>
                  <system value="http://snomed.info/sct"/>
                  <code value="55822004"/>
                  <display value="Hyperlipidemia"/>
               </coding>
            </reasonCode>
            <dosage>
               <text value="1 tablet (10 mg) by mouth once daily"/>
               <timing>
                  <repeat>
                     <frequency value="1"/>
                     <period value="1"/>
                     <periodUnit value="d"/>
                  </repeat>
               </timing>
               <asNeededBoolean value="false"/>
               <doseAndRate>
                  <doseQuantity>
                     <value value="1"/>
                     <unit value="{tbl}"/>
                     <code value="{tbl}"/>
                  </doseQuantity>
               </doseAndRate>
            </dosage>
         </MedicationStatement>
      </resource>
   </entry>
   <entry>
      <fullUrl value="urn:uuid:0e949468-4fff-42bb-832a-82d146a8932e"/>
      <resource>
         <Immunization>
            <id value="0e949468-4fff-42bb-832a-82d146a8932e"/>
            <meta>
               <profile value="http://hl7.org/fhir/uv/ips/StructureDefinition/Immunization-uv-ips"/>
            </meta>
            <text>
               <status value="generated"/>
               <div xmlns="http://www.w3.org/1999/xhtml">
                  <table class="hl7__ips">
                     <tr>
                        <td>Influenza virus antigen only vaccine product</td>
                        <td>
                           <span class="nb">02-Jun-2025</span>
                        </td>
                     </tr>
                  </table>
               </div>
            </text>
            <status value="completed"/>
            <vaccineCode>
               <coding>
                  <system value="http://snomed.info/sct"/>
                  <code value="1181000221105"/>
                  <display value="Vaccine product containing Influenza virus antigen"/>
               </coding>
               <coding>
                  <system value="http://www.whocc.no/atc"/>
                  <code value="J07BB02"/>
                  <display value="Influenza, inactivated, split virus"/>
               </coding>
               <text value="Influenza virus antigen only vaccine product"/>
            </vaccineCode>
            <patient>
               <reference value="urn:uuid:cfdfc19b-20bf-428b-9034-586535c500ab"/>
               <display value="Gioele Fabbri"/>
            </patient>
            <occurrenceDateTime value="2025-06-02"/>
            <lotNumber value="EZ-GPvjd7lNH"/>
            <expirationDate value="2026-01-23"/>
            <site>
               <coding>
                  <system value="http://snomed.info/sct"/>
                  <code value="244979005"/>
                  <display value="Entire muscle of upper arm"/>
               </coding>
               <text value="Entire muscle of upper arm"/>
            </site>
            <route>
               <coding>
                  <system value="http://snomed.info/sct"/>
                  <code value="78421000"/>
                  <display value="Intramuscular route"/>
               </coding>
               <text value="Intramuscular route"/>
            </route>
         </Immunization>
      </resource>
   </entry>
   <entry>
      <fullUrl value="urn:uuid:356f0a93-f21d-40fb-9b19-79f40ac67cea"/>
      <resource>
         <Immunization>
            <id value="356f0a93-f21d-40fb-9b19-79f40ac67cea"/>
            <meta>
               <profile value="http://hl7.org/fhir/uv/ips/StructureDefinition/Immunization-uv-ips"/>
            </meta>
            <text>
               <status value="generated"/>
               <div xmlns="http://www.w3.org/1999/xhtml">
                  <table class="hl7__ips">
                     <tr>
                        <td>SARS-CoV-2 mRNA vaccine</td>
                        <td>
                           <span class="nb">03-May-2021</span>
                        </td>
                     </tr>
                  </table>
               </div>
            </text>
            <status value="completed"/>
            <vaccineCode>
               <coding>
                  <system value="http://snomed.info/sct"/>
                  <code value="1119349007"/>
                  <display value="Vaccine product containing SARS-CoV-2 mRNA"/>
               </coding>
               <coding>
                  <system value="http://www.whocc.no/atc"/>
                  <code value="J07BX03"/>
                  <display value="COVID-19 mRNA vaccines"/>
               </coding>
               <text value="SARS-CoV-2 mRNA vaccine"/>
            </vaccineCode>
            <patient>
               <reference value="urn:uuid:cfdfc19b-20bf-428b-9034-586535c500ab"/>
               <display value="Gioele Fabbri"/>
            </patient>
            <occurrenceDateTime value="2021-05-03"/>
            <lotNumber value="VE-Q84CGdUn"/>
            <expirationDate value="2022-05-07"/>
            <site>
               <coding>
                  <system value="http://snomed.info/sct"/>
                  <code value="244979005"/>
                  <display value="Entire muscle of upper arm"/>
               </coding>
               <text value="Entire muscle of upper arm"/>
            </site>
            <route>
               <coding>
                  <system value="http://snomed.info/sct"/>
                  <code value="78421000"/>
                  <display value="Intramuscular route"/>
               </coding>
               <text value="Intramuscular route"/>
            </route>
         </Immunization>
      </resource>
   </entry>
   <entry>
      <fullUrl value="urn:uuid:e6ad6aa8-067a-4fd0-af96-f409d5113cba"/>
      <resource>
         <Immunization>
            <id value="e6ad6aa8-067a-4fd0-af96-f409d5113cba"/>
            <meta>
               <profile value="http://hl7.org/fhir/uv/ips/StructureDefinition/Immunization-uv-ips"/>
            </meta>
            <text>
               <status value="generated"/>
               <div xmlns="http://www.w3.org/1999/xhtml">
                  <table class="hl7__ips">
                     <tr>
                        <td>Clostridium tetani toxoid antigen adsorbed only vaccine product</td>
                        <td>
                           <span class="nb">04-May-2020</span>
                        </td>
                     </tr>
                  </table>
               </div>
            </text>
            <status value="completed"/>
            <vaccineCode>
               <coding>
                  <system value="http://snomed.info/sct"/>
                  <code value="777725002"/>
                  <display value="Vaccine product containing only Clostridium tetani toxoid antigen adsorbed"/>
               </coding>
               <coding>
                  <system value="http://www.whocc.no/atc"/>
                  <code value="J07AM51"/>
                  <display value="Diphtheria-tetanus vaccines, adult type"/>
               </coding>
               <text value="Clostridium tetani toxoid antigen adsorbed only vaccine product"/>
            </vaccineCode>
            <patient>
               <reference value="urn:uuid:cfdfc19b-20bf-428b-9034-586535c500ab"/>
               <display value="Gioele Fabbri"/>
            </patient>
            <occurrenceDateTime value="2020-05-04"/>
            <lotNumber value="GS-vJbrF"/>
            <expirationDate value="2020-08-14"/>
            <site>
               <coding>
                  <system value="http://snomed.info/sct"/>
                  <code value="244979005"/>
                  <display value="Entire muscle of upper arm"/>
               </coding>
               <text value="Entire muscle of upper arm"/>
            </site>
            <route>
               <coding>
                  <system value="http://snomed.info/sct"/>
                  <code value="78421000"/>
                  <display value="Intramuscular route"/>
               </coding>
               <text value="Intramuscular route"/>
            </route>
         </Immunization>
      </resource>
   </entry>
   <entry>
      <fullUrl value="urn:uuid:f92bf7a7-5783-4645-9144-60db0d26b021"/>
      <resource>
         <Immunization>
            <id value="f92bf7a7-5783-4645-9144-60db0d26b021"/>
            <meta>
               <profile value="http://hl7.org/fhir/uv/ips/StructureDefinition/Immunization-uv-ips"/>
            </meta>
            <text>
               <status value="generated"/>
               <div xmlns="http://www.w3.org/1999/xhtml">
                  <table class="hl7__ips">
                     <tr>
                        <td>Live attenuated Human alphaherpesvirus 3 only vaccine product</td>
                        <td>
                           <span class="nb">04-May-2020</span>
                        </td>
                     </tr>
                  </table>
               </div>
            </text>
            <status value="completed"/>
            <vaccineCode>
               <coding>
                  <system value="http://snomed.info/sct"/>
                  <code value="2221000221107"/>
                  <display value="Live attenuated Varicella-zoster vaccine"/>
               </coding>
               <coding>
                  <system value="http://www.whocc.no/atc"/>
                  <code value="J07BK02"/>
                  <display value="Varicella-zoster vaccines"/>
               </coding>
               <text value="Live attenuated Human alphaherpesvirus 3 only vaccine product"/>
            </vaccineCode>
            <patient>
               <reference value="urn:uuid:cfdfc19b-20bf-428b-9034-586535c500ab"/>
               <display value="Gioele Fabbri"/>
            </patient>
            <occurrenceDateTime value="2020-05-04"/>
            <lotNumber value="TU-wLnIE"/>
            <expirationDate value="2020-09-01"/>
            <site>
               <coding>
                  <system value="http://snomed.info/sct"/>
                  <code value="368208006"/>
                  <display value="Left upper arm structure"/>
               </coding>
               <text value="Left upper arm structure"/>
            </site>
            <route>
               <coding>
                  <system value="http://snomed.info/sct"/>
                  <code value="34206005"/>
                  <display value="Subcutaneous route"/>
               </coding>
               <text value="Subcutaneous route"/>
            </route>
         </Immunization>
      </resource>
   </entry>
   <entry>
      <fullUrl value="urn:uuid:7306e1fc-cc31-4338-9843-78d6fbac130d"/>
      <resource>
         <Procedure>
            <id value="7306e1fc-cc31-4338-9843-78d6fbac130d"/>
            <meta>
               <profile value="http://hl7.org/fhir/uv/ips/StructureDefinition/Procedure-uv-ips"/>
            </meta>
            <text>
               <status value="generated"/>
               <div xmlns="http://www.w3.org/1999/xhtml">
                  <table class="hl7__ips">
                     <tr>
                        <td>Postoperative care</td>
                        <td>
                           <span class="nb">26-Jun-2020</span>
                        </td>
                        <td>Overlapping malignant neoplasm of colon</td>
                     </tr>
                  </table>
               </div>
            </text>
            <status value="completed"/>
            <code>
               <coding>
                  <system value="http://snomed.info/sct"/>
                  <code value="133899007"/>
                  <display value="Postoperative care (regime/therapy)"/>
               </coding>
               <text value="Postoperative care"/>
            </code>
            <subject>
               <reference value="urn:uuid:"/>
               <display value="Gioele Fabbri"/>
            </subject>
            <performedDateTime value="2020-06-26"/>
            <reasonCode>
               <coding>
                  <system value="http://snomed.info/sct"/>
                  <code value="109838007"/>
                  <display value="Overlapping malignant neoplasm of colon"/>
               </coding>
            </reasonCode>
         </Procedure>
      </resource>
   </entry>
   <entry>
      <fullUrl value="urn:uuid:12cb6059-fc09-4f3b-8445-e186094aed94"/>
      <resource>
         <Procedure>
            <id value="12cb6059-fc09-4f3b-8445-e186094aed94"/>
            <meta>
               <profile value="http://hl7.org/fhir/uv/ips/StructureDefinition/Procedure-uv-ips"/>
            </meta>
            <text>
               <status value="generated"/>
               <div xmlns="http://www.w3.org/1999/xhtml">
                  <table class="hl7__ips">
                     <tr>
                        <td>Partial resection of colon</td>
                        <td>
                           <span class="nb">20-Jun-2020</span>
                        </td>
                        <td>Overlapping malignant neoplasm of colon</td>
                     </tr>
                  </table>
               </div>
            </text>
            <status value="completed"/>
            <code>
               <coding>
                  <system value="http://snomed.info/sct"/>
                  <code value="43075005"/>
                  <display value="Partial resection of colon"/>
               </coding>
               <text value="Partial resection of colon"/>
            </code>
            <subject>
               <reference value="urn:uuid:"/>
               <display value="Gioele Fabbri"/>
            </subject>
            <performedDateTime value="2020-06-20"/>
            <reasonCode>
               <coding>
                  <system value="http://snomed.info/sct"/>
                  <code value="109838007"/>
                  <display value="Overlapping malignant neoplasm of colon"/>
               </coding>
            </reasonCode>
         </Procedure>
      </resource>
   </entry>
   <entry>
      <fullUrl value="urn:uuid:aec1282c-aa92-4e97-8beb-b16d5e9d37fd"/>
      <resource>
         <Procedure>
            <id value="aec1282c-aa92-4e97-8beb-b16d5e9d37fd"/>
            <meta>
               <profile value="http://hl7.org/fhir/uv/ips/StructureDefinition/Procedure-uv-ips"/>
            </meta>
            <text>
               <status value="generated"/>
               <div xmlns="http://www.w3.org/1999/xhtml">
                  <table class="hl7__ips">
                     <tr>
                        <td>Assessment of health and social care needs</td>
                        <td>
                           <span class="nb">24-Sep-2018</span>
                        </td>
                        <td>-</td>
                     </tr>
                  </table>
               </div>
            </text>
            <status value="completed"/>
            <code>
               <coding>
                  <system value="http://snomed.info/sct"/>
                  <code value="710824005"/>
                  <display value="Assessment of health and social care needs (procedure)"/>
               </coding>
               <text value="Assessment of health and social care needs"/>
            </code>
            <subject>
               <reference value="urn:uuid:"/>
               <display value="Gioele Fabbri"/>
            </subject>
            <performedDateTime value="2018-09-24"/>
         </Procedure>
      </resource>
   </entry>
   <entry>
      <fullUrl value="urn:uuid:72c1e05a-a361-4994-a953-70dbb90cd6af"/>
      <resource>
         <Procedure>
            <id value="72c1e05a-a361-4994-a953-70dbb90cd6af"/>
            <meta>
               <profile value="http://hl7.org/fhir/uv/ips/StructureDefinition/Procedure-uv-ips"/>
            </meta>
            <text>
               <status value="generated"/>
               <div xmlns="http://www.w3.org/1999/xhtml">
                  <table class="hl7__ips">
                     <tr>
                        <td>Assessment of anxiety</td>
                        <td>
                           <span class="nb">24-Sep-2018</span>
                        </td>
                        <td>-</td>
                     </tr>
                  </table>
               </div>
            </text>
            <status value="completed"/>
            <code>
               <coding>
                  <system value="http://snomed.info/sct"/>
                  <code value="710841007"/>
                  <display value="Assessment of anxiety (procedure)"/>
               </coding>
               <text value="Assessment of anxiety"/>
            </code>
            <subject>
               <reference value="urn:uuid:"/>
               <display value="Gioele Fabbri"/>
            </subject>
            <performedDateTime value="2018-09-24"/>
         </Procedure>
      </resource>
   </entry>
   <entry>
      <fullUrl value="urn:uuid:97582998-c6cb-4131-93b4-c5379e90c5bd"/>
      <resource>
         <Procedure>
            <id value="97582998-c6cb-4131-93b4-c5379e90c5bd"/>
            <meta>
               <profile value="http://hl7.org/fhir/uv/ips/StructureDefinition/Procedure-uv-ips"/>
            </meta>
            <text>
               <status value="generated"/>
               <div xmlns="http://www.w3.org/1999/xhtml">
                  <table class="hl7__ips">
                     <tr>
                        <td>Assessment using AUDIT-C (Alcohol Use Disorders Identification Test - Consumption)</td>
                        <td>
                           <span class="nb">24-Sep-2018</span>
                        </td>
                        <td>-</td>
                     </tr>
                  </table>
               </div>
            </text>
            <status value="completed"/>
            <code>
               <coding>
                  <system value="http://snomed.info/sct"/>
                  <code value="763302001"/>
                  <display value="Assessment using Alcohol Use Disorders Identification Test - Consumption (procedure)"/>
               </coding>
               <text value="Assessment using AUDIT-C (Alcohol Use Disorders Identification Test - Consumption)"/>
            </code>
            <subject>
               <reference value="urn:uuid:"/>
               <display value="Gioele Fabbri"/>
            </subject>
            <performedDateTime value="2018-09-24"/>
         </Procedure>
      </resource>
   </entry>
   <entry>
      <fullUrl value="urn:uuid:d77b9c84-70e9-46df-9ab7-1f9a39193746"/>
      <resource>
         <Procedure>
            <id value="d77b9c84-70e9-46df-9ab7-1f9a39193746"/>
            <meta>
               <profile value="http://hl7.org/fhir/uv/ips/StructureDefinition/Procedure-uv-ips"/>
            </meta>
            <text>
               <status value="generated"/>
               <div xmlns="http://www.w3.org/1999/xhtml">
                  <table class="hl7__ips">
                     <tr>
                        <td>Assessment of substance use</td>
                        <td>
                           <span class="nb">24-Sep-2018</span>
                        </td>
                        <td>-</td>
                     </tr>
                  </table>
               </div>
            </text>
            <status value="completed"/>
            <code>
               <coding>
                  <system value="http://snomed.info/sct"/>
                  <code value="428211000124100"/>
                  <display value="Assessment of substance use (procedure)"/>
               </coding>
               <text value="Assessment of substance use"/>
            </code>
            <subject>
               <reference value="urn:uuid:"/>
               <display value="Gioele Fabbri"/>
            </subject>
            <performedDateTime value="2018-09-24"/>
         </Procedure>
      </resource>
   </entry>
   <entry>
      <fullUrl value="urn:uuid:9d1ba09e-15c0-48ab-a9bc-ade6fa24709e"/>
      <resource>
         <AllergyIntolerance>
            <id value="9d1ba09e-15c0-48ab-a9bc-ade6fa24709e"/>
            <meta>
               <profile value="http://hl7.eu/fhir/eps/StructureDefinition/allergyIntolerance-eu-eps"/>
            </meta>
            <text>
               <status value="generated"/>
               <div xmlns="http://www.w3.org/1999/xhtml">
                  <table class="hl7__ips">
                     <tr>
                        <th>Allergy/Intolerance</th>
                        <th>Onset Date</th>
                        <th>Status</th>
                        <th>Type</th>
                        <th>Reaction</th>
                     </tr>
                     <tr>
                        <td/>
                        <td>?</td>
                        <td>active</td>
                        <td>?</td>
                        <td/>
                     </tr>
                  </table>
               </div>
            </text>
            <clinicalStatus>
               <coding>
                  <system value="http://terminology.hl7.org/CodeSystem/allergyintolerance-clinical"/>
                  <code value="active"/>
               </coding>
            </clinicalStatus>
            <verificationStatus>
               <coding>
                  <system value="http://terminology.hl7.org/CodeSystem/allergyintolerance-verification"/>
                  <code value="confirmed"/>
               </coding>
            </verificationStatus>
            <code>
               <text/>
            </code>
            <patient>
               <reference value="urn:uuid:cfdfc19b-20bf-428b-9034-586535c500ab"/>
               <display value="Gioele Fabbri"/>
            </patient>
            <onsetDateTime>
               <extension url="http://hl7.org/fhir/StructureDefinition/data-absent-reason">
                  <valueCode value="unknown"/>
               </extension>
            </onsetDateTime>
         </AllergyIntolerance>
      </resource>
   </entry>
   <entry>
      <fullUrl value="urn:uuid:841255cb-0bf6-40e4-badf-791f27caa108"/>
      <resource>
         <CarePlan>
            <id value="841255cb-0bf6-40e4-badf-791f27caa108"/>
            <text>
               <status value="generated"/>
               <div xmlns="http://www.w3.org/1999/xhtml">
                  <table class="hl7__ips first25">
                     <tr>
                        <th>Active Planned Care / Goals</th>
                        <th>Start Date</th>
                        <th>Reason</th>
                     </tr>
                     <tr>
                        <td>Diabetes self management plan</td>
                        <td>
                           <span class="nb">16-May-2022</span>
                        </td>
                        <td>Prediabetes</td>
                     </tr>
                     <tr>
                        <td>
                           <ul>
                              <li>Patient will demonstrate understanding of prediabetes self-management strategies including diet, exercise, and blood glucose monitoring.</li>
                              <li>Maintain hemoglobin A1c below 5.7% to prevent progression to diabetes.</li>
                              <li>Achieve and maintain at least 5% weight loss from baseline to reduce risk of developing diabetes.</li>
                              <li>Engage in at least 150 minutes of moderate-intensity physical activity per week.</li>
                           </ul>
                        </td>
                        <td/>
                        <td/>
                     </tr>
                  </table>
               </div>
            </text>
            <status value="active"/>
            <intent value="plan"/>
            <category>
               <coding>
                  <system value="http://terminology.hl7.org/CodeSystem/care-plan-category"/>
                  <code value="assess-plan"/>
                  <display value="Assessment and Plan"/>
               </coding>
            </category>
            <subject>
               <reference value="urn:uuid:cfdfc19b-20bf-428b-9034-586535c500ab"/>
               <display value="Gioele Fabbri"/>
            </subject>
            <period>
               <start value="2022-05-16"/>
            </period>
            <goal>
               <reference value="urn:uuid:e13c9ddb-562d-4714-8717-bdcc31819962"/>
            </goal>
            <goal>
               <reference value="urn:uuid:f29ae372-4c2f-45d9-8716-8a3e53ce3d20"/>
            </goal>
            <goal>
               <reference value="urn:uuid:257e7236-521d-438c-ac96-5f9f816e10ff"/>
            </goal>
            <goal>
               <reference value="urn:uuid:5c48c81f-f13a-4099-b934-9f02425b9ce3"/>
            </goal>
            <activity>
               <detail>
                  <kind value="Appointment"/>
                  <code>
                     <coding>
                        <system value="http://snomed.info/sct"/>
                        <code value="698360004"/>
                        <display value="Diabetes self management plan (qualifier value)"/>
                     </coding>
                  </code>
                  <reasonCode>
                     <coding>
                        <system value="http://snomed.info/sct"/>
                        <code value="15777000"/>
                        <display value="Prediabetes"/>
                     </coding>
                  </reasonCode>
                  <status value="unknown"/>
                  <description value="Diabetes self management plan"/>
               </detail>
            </activity>
         </CarePlan>
      </resource>
   </entry>
   <entry>
      <fullUrl value="urn:uuid:3dc1a06e-0111-4083-82a9-1fc09efc8052"/>
      <resource>
         <CarePlan>
            <id value="3dc1a06e-0111-4083-82a9-1fc09efc8052"/>
            <text>
               <status value="generated"/>
               <div xmlns="http://www.w3.org/1999/xhtml">
                  <table class="hl7__ips first25">
                     <tr>
                        <th>Active Planned Care / Goals</th>
                        <th>Start Date</th>
                        <th>Reason</th>
                     </tr>
                     <tr>
                        <td>Hyperlipidemia clinical management plan</td>
                        <td>
                           <span class="nb">12-Jun-2017</span>
                        </td>
                        <td>Hyperlipidemia</td>
                     </tr>
                     <tr>
                        <td>
                           <ul>
                              <li>Achieve and maintain LDL cholesterol below 100 mg/dL</li>
                              <li>Achieve and maintain total cholesterol below 200 mg/dL</li>
                              <li>Achieve and maintain triglycerides below 150 mg/dL</li>
                              <li>Achieve and maintain HDL cholesterol above 40 mg/dL</li>
                           </ul>
                        </td>
                        <td/>
                        <td/>
                     </tr>
                  </table>
               </div>
            </text>
            <status value="active"/>
            <intent value="plan"/>
            <category>
               <coding>
                  <system value="http://terminology.hl7.org/CodeSystem/care-plan-category"/>
                  <code value="assess-plan"/>
                  <display value="Assessment and Plan"/>
               </coding>
            </category>
            <subject>
               <reference value="urn:uuid:cfdfc19b-20bf-428b-9034-586535c500ab"/>
               <display value="Gioele Fabbri"/>
            </subject>
            <period>
               <start value="2017-06-12"/>
            </period>
            <goal>
               <reference value="urn:uuid:def51fb9-02a6-47b6-b181-f78968a7a9f0"/>
            </goal>
            <goal>
               <reference value="urn:uuid:1fbbf721-495d-48c6-bb2f-c116d0ae771e"/>
            </goal>
            <goal>
               <reference value="urn:uuid:2675e052-48d8-4bda-bd39-435967589511"/>
            </goal>
            <goal>
               <reference value="urn:uuid:22a9fe46-a9c3-4038-b9e4-39de318c49e8"/>
            </goal>
            <activity>
               <detail>
                  <kind value="Appointment"/>
                  <code>
                     <coding>
                        <system value="http://snomed.info/sct"/>
                        <code value="736285004"/>
                        <display value="Hyperlipidemia clinical management plan (record artifact)"/>
                     </coding>
                  </code>
                  <reasonCode>
                     <coding>
                        <system value="http://snomed.info/sct"/>
                        <code value="55822004"/>
                        <display value="Hyperlipidemia"/>
                     </coding>
                  </reasonCode>
                  <status value="unknown"/>
                  <description value="Hyperlipidemia clinical management plan"/>
               </detail>
            </activity>
         </CarePlan>
      </resource>
   </entry>
   <entry>
      <fullUrl value="urn:uuid:9aaa56fd-3ae2-4638-8a08-27f75c0c70cb"/>
      <resource>
         <Observation>
            <id value="9aaa56fd-3ae2-4638-8a08-27f75c0c70cb"/>
            <meta>
               <profile value="http://hl7.org/fhir/StructureDefinition/vitalsigns"/>
            </meta>
            <text>
               <status value="generated"/>
               <div xmlns="http://www.w3.org/1999/xhtml">
                  <table class="hl7__ips">
                     <tr>
                        <th>Vital Sign</th>
                        <th>Date</th>
                        <th>Measurement</th>
                     </tr>
                     <tr>
                        <td>Body Height</td>
                        <td>02-Jun-2025</td>
                        <td>177 cm</td>
                     </tr>
                  </table>
               </div>
            </text>
            <status value="final"/>
            <category>
               <coding>
                  <system value="http://terminology.hl7.org/CodeSystem/observation-category"/>
                  <code value="vital-signs"/>
                  <display value="Vital Signs"/>
               </coding>
            </category>
            <code>
               <coding>
                  <system value="http://loinc.org"/>
                  <code value="$8302-2"/>
                  <display value="Body Height"/>
               </coding>
            </code>
            <subject>
               <reference value="urn:uuid:cfdfc19b-20bf-428b-9034-586535c500ab"/>
               <display value="Gioele Fabbri"/>
            </subject>
            <effectiveDateTime value="2025-06-02"/>
            <valueQuantity>
               <value value="177"/>
               <unit value="cm"/>
               <code value="cm"/>
            </valueQuantity>
         </Observation>
      </resource>
   </entry>
   <entry>
      <fullUrl value="urn:uuid:8af2e43e-8d7f-4d54-8f22-0ed92ddb384c"/>
      <resource>
         <Observation>
            <id value="8af2e43e-8d7f-4d54-8f22-0ed92ddb384c"/>
            <meta>
               <profile value="http://hl7.org/fhir/StructureDefinition/vitalsigns"/>
            </meta>
            <text>
               <status value="generated"/>
               <div xmlns="http://www.w3.org/1999/xhtml">
                  <table class="hl7__ips">
                     <tr>
                        <th>Vital Sign</th>
                        <th>Date</th>
                        <th>Measurement</th>
                     </tr>
                     <tr>
                        <td>Pain severity - 0-10 verbal numeric rating [Score] - Reported</td>
                        <td>02-Jun-2025</td>
                        <td>3 {score}</td>
                     </tr>
                  </table>
               </div>
            </text>
            <status value="final"/>
            <category>
               <coding>
                  <system value="http://terminology.hl7.org/CodeSystem/observation-category"/>
                  <code value="vital-signs"/>
                  <display value="Vital Signs"/>
               </coding>
            </category>
            <code>
               <coding>
                  <system value="http://loinc.org"/>
                  <code value="$72514-3"/>
                  <display value="Pain severity - 0-10 verbal numeric rating [Score] - Reported"/>
               </coding>
            </code>
            <subject>
               <reference value="urn:uuid:cfdfc19b-20bf-428b-9034-586535c500ab"/>
               <display value="Gioele Fabbri"/>
            </subject>
            <effectiveDateTime value="2025-06-02"/>
            <valueQuantity>
               <value value="3"/>
               <unit value="{score}"/>
               <code value="{score}"/>
            </valueQuantity>
         </Observation>
      </resource>
   </entry>
   <entry>
      <fullUrl value="urn:uuid:134e5000-0539-4cb3-80fb-49b22730e495"/>
      <resource>
         <Observation>
            <id value="134e5000-0539-4cb3-80fb-49b22730e495"/>
            <meta>
               <profile value="http://hl7.org/fhir/StructureDefinition/vitalsigns"/>
            </meta>
            <text>
               <status value="generated"/>
               <div xmlns="http://www.w3.org/1999/xhtml">
                  <table class="hl7__ips">
                     <tr>
                        <th>Vital Sign</th>
                        <th>Date</th>
                        <th>Measurement</th>
                     </tr>
                     <tr>
                        <td>Body Weight</td>
                        <td>02-Jun-2025</td>
                        <td>87.9 kg</td>
                     </tr>
                  </table>
               </div>
            </text>
            <status value="final"/>
            <category>
               <coding>
                  <system value="http://terminology.hl7.org/CodeSystem/observation-category"/>
                  <code value="vital-signs"/>
                  <display value="Vital Signs"/>
               </coding>
            </category>
            <code>
               <coding>
                  <system value="http://loinc.org"/>
                  <code value="$29463-7"/>
                  <display value="Body Weight"/>
               </coding>
            </code>
            <subject>
               <reference value="urn:uuid:cfdfc19b-20bf-428b-9034-586535c500ab"/>
               <display value="Gioele Fabbri"/>
            </subject>
            <effectiveDateTime value="2025-06-02"/>
            <valueQuantity>
               <value value="87.9"/>
               <unit value="kg"/>
               <code value="kg"/>
            </valueQuantity>
         </Observation>
      </resource>
   </entry>
   <entry>
      <fullUrl value="urn:uuid:45827c62-1194-4803-b9c7-37c3ad43e27e"/>
      <resource>
         <Observation>
            <id value="45827c62-1194-4803-b9c7-37c3ad43e27e"/>
            <meta>
               <profile value="http://hl7.org/fhir/StructureDefinition/vitalsigns"/>
            </meta>
            <text>
               <status value="generated"/>
               <div xmlns="http://www.w3.org/1999/xhtml">
                  <table class="hl7__ips">
                     <tr>
                        <th>Vital Sign</th>
                        <th>Date</th>
                        <th>Measurement</th>
                     </tr>
                     <tr>
                        <td>Body mass index (BMI) [Ratio]</td>
                        <td>02-Jun-2025</td>
                        <td>28.1 kg/m2</td>
                     </tr>
                  </table>
               </div>
            </text>
            <status value="final"/>
            <category>
               <coding>
                  <system value="http://terminology.hl7.org/CodeSystem/observation-category"/>
                  <code value="vital-signs"/>
                  <display value="Vital Signs"/>
               </coding>
            </category>
            <code>
               <coding>
                  <system value="http://loinc.org"/>
                  <code value="$39156-5"/>
                  <display value="Body mass index (BMI) [Ratio]"/>
               </coding>
            </code>
            <subject>
               <reference value="urn:uuid:cfdfc19b-20bf-428b-9034-586535c500ab"/>
               <display value="Gioele Fabbri"/>
            </subject>
            <effectiveDateTime value="2025-06-02"/>
            <valueQuantity>
               <value value="28.1"/>
               <unit value="kg/m2"/>
               <code value="kg/m2"/>
            </valueQuantity>
         </Observation>
      </resource>
   </entry>
   <entry>
      <fullUrl value="urn:uuid:461686fa-07cc-4d2e-9f54-0b69d65e7330"/>
      <resource>
         <Observation>
            <id value="461686fa-07cc-4d2e-9f54-0b69d65e7330"/>
            <meta>
               <profile value="http://hl7.org/fhir/StructureDefinition/vitalsigns"/>
            </meta>
            <text>
               <status value="generated"/>
               <div xmlns="http://www.w3.org/1999/xhtml">
                  <table class="hl7__ips">
                     <tr>
                        <th>Vital Sign</th>
                        <th>Date</th>
                        <th>Measurement</th>
                     </tr>
                     <tr>
                        <td>Diastolic Blood Pressure</td>
                        <td>02-Jun-2025</td>
                        <td>83 mm[Hg]</td>
                     </tr>
                  </table>
               </div>
            </text>
            <status value="final"/>
            <category>
               <coding>
                  <system value="http://terminology.hl7.org/CodeSystem/observation-category"/>
                  <code value="vital-signs"/>
                  <display value="Vital Signs"/>
               </coding>
            </category>
            <code>
               <coding>
                  <system value="http://loinc.org"/>
                  <code value="$8462-4"/>
                  <display value="Diastolic Blood Pressure"/>
               </coding>
            </code>
            <subject>
               <reference value="urn:uuid:cfdfc19b-20bf-428b-9034-586535c500ab"/>
               <display value="Gioele Fabbri"/>
            </subject>
            <effectiveDateTime value="2025-06-02"/>
            <valueQuantity>
               <value value="83"/>
               <unit value="mm[Hg]"/>
               <code value="mm[Hg]"/>
            </valueQuantity>
         </Observation>
      </resource>
   </entry>
   <entry>
      <fullUrl value="urn:uuid:a50be08e-f582-497c-b9fb-c47a8dd1b3d9"/>
      <resource>
         <Observation>
            <id value="a50be08e-f582-497c-b9fb-c47a8dd1b3d9"/>
            <meta>
               <profile value="http://hl7.org/fhir/StructureDefinition/vitalsigns"/>
            </meta>
            <text>
               <status value="generated"/>
               <div xmlns="http://www.w3.org/1999/xhtml">
                  <table class="hl7__ips">
                     <tr>
                        <th>Vital Sign</th>
                        <th>Date</th>
                        <th>Measurement</th>
                     </tr>
                     <tr>
                        <td>Systolic Blood Pressure</td>
                        <td>02-Jun-2025</td>
                        <td>125 mm[Hg]</td>
                     </tr>
                  </table>
               </div>
            </text>
            <status value="final"/>
            <category>
               <coding>
                  <system value="http://terminology.hl7.org/CodeSystem/observation-category"/>
                  <code value="vital-signs"/>
                  <display value="Vital Signs"/>
               </coding>
            </category>
            <code>
               <coding>
                  <system value="http://loinc.org"/>
                  <code value="$8480-6"/>
                  <display value="Systolic Blood Pressure"/>
               </coding>
            </code>
            <subject>
               <reference value="urn:uuid:cfdfc19b-20bf-428b-9034-586535c500ab"/>
               <display value="Gioele Fabbri"/>
            </subject>
            <effectiveDateTime value="2025-06-02"/>
            <valueQuantity>
               <value value="125"/>
               <unit value="mm[Hg]"/>
               <code value="mm[Hg]"/>
            </valueQuantity>
         </Observation>
      </resource>
   </entry>
   <entry>
      <fullUrl value="urn:uuid:a3cb40eb-9f87-4b72-a558-2c02b1b3ac39"/>
      <resource>
         <Observation>
            <id value="a3cb40eb-9f87-4b72-a558-2c02b1b3ac39"/>
            <meta>
               <profile value="http://hl7.org/fhir/StructureDefinition/vitalsigns"/>
            </meta>
            <text>
               <status value="generated"/>
               <div xmlns="http://www.w3.org/1999/xhtml">
                  <table class="hl7__ips">
                     <tr>
                        <th>Vital Sign</th>
                        <th>Date</th>
                        <th>Measurement</th>
                     </tr>
                     <tr>
                        <td>Heart rate</td>
                        <td>02-Jun-2025</td>
                        <td>70 /min</td>
                     </tr>
                  </table>
               </div>
            </text>
            <status value="final"/>
            <category>
               <coding>
                  <system value="http://terminology.hl7.org/CodeSystem/observation-category"/>
                  <code value="vital-signs"/>
                  <display value="Vital Signs"/>
               </coding>
            </category>
            <code>
               <coding>
                  <system value="http://loinc.org"/>
                  <code value="$8867-4"/>
                  <display value="Heart rate"/>
               </coding>
            </code>
            <subject>
               <reference value="urn:uuid:cfdfc19b-20bf-428b-9034-586535c500ab"/>
               <display value="Gioele Fabbri"/>
            </subject>
            <effectiveDateTime value="2025-06-02"/>
            <valueQuantity>
               <value value="70"/>
               <unit value="/min"/>
               <code value="/min"/>
            </valueQuantity>
         </Observation>
      </resource>
   </entry>
   <entry>
      <fullUrl value="urn:uuid:61f490e2-b4fa-476e-9003-98dbdb9f64dc"/>
      <resource>
         <Observation>
            <id value="61f490e2-b4fa-476e-9003-98dbdb9f64dc"/>
            <meta>
               <profile value="http://hl7.org/fhir/StructureDefinition/vitalsigns"/>
            </meta>
            <text>
               <status value="generated"/>
               <div xmlns="http://www.w3.org/1999/xhtml">
                  <table class="hl7__ips">
                     <tr>
                        <th>Vital Sign</th>
                        <th>Date</th>
                        <th>Measurement</th>
                     </tr>
                     <tr>
                        <td>Respiratory rate</td>
                        <td>02-Jun-2025</td>
                        <td>15 /min</td>
                     </tr>
                  </table>
               </div>
            </text>
            <status value="final"/>
            <category>
               <coding>
                  <system value="http://terminology.hl7.org/CodeSystem/observation-category"/>
                  <code value="vital-signs"/>
                  <display value="Vital Signs"/>
               </coding>
            </category>
            <code>
               <coding>
                  <system value="http://loinc.org"/>
                  <code value="$9279-1"/>
                  <display value="Respiratory rate"/>
               </coding>
            </code>
            <subject>
               <reference value="urn:uuid:cfdfc19b-20bf-428b-9034-586535c500ab"/>
               <display value="Gioele Fabbri"/>
            </subject>
            <effectiveDateTime value="2025-06-02"/>
            <valueQuantity>
               <value value="15"/>
               <unit value="/min"/>
               <code value="/min"/>
            </valueQuantity>
         </Observation>
      </resource>
   </entry>
   <entry>
      <fullUrl value="urn:uuid:81fc9531-1b75-41ab-a839-49e7643b6b27"/>
      <resource>
         <Observation>
            <id value="81fc9531-1b75-41ab-a839-49e7643b6b27"/>
            <meta>
               <profile value="http://hl7.org/fhir/StructureDefinition/vitalsigns"/>
            </meta>
            <text>
               <status value="generated"/>
               <div xmlns="http://www.w3.org/1999/xhtml">
                  <table class="hl7__ips">
                     <tr>
                        <th>Vital Sign</th>
                        <th>Date</th>
                        <th>Measurement</th>
                     </tr>
                     <tr>
                        <td>Body Height</td>
                        <td>27-May-2024</td>
                        <td>177 cm</td>
                     </tr>
                  </table>
               </div>
            </text>
            <status value="final"/>
            <category>
               <coding>
                  <system value="http://terminology.hl7.org/CodeSystem/observation-category"/>
                  <code value="vital-signs"/>
                  <display value="Vital Signs"/>
               </coding>
            </category>
            <code>
               <coding>
                  <system value="http://loinc.org"/>
                  <code value="$8302-2"/>
                  <display value="Body Height"/>
               </coding>
            </code>
            <subject>
               <reference value="urn:uuid:cfdfc19b-20bf-428b-9034-586535c500ab"/>
               <display value="Gioele Fabbri"/>
            </subject>
            <effectiveDateTime value="2024-05-27"/>
            <valueQuantity>
               <value value="177"/>
               <unit value="cm"/>
               <code value="cm"/>
            </valueQuantity>
         </Observation>
      </resource>
   </entry>
   <entry>
      <fullUrl value="urn:uuid:3f8d316c-627a-4451-9a60-0f38eb267e48"/>
      <resource>
         <Observation>
            <id value="3f8d316c-627a-4451-9a60-0f38eb267e48"/>
            <meta>
               <profile value="http://hl7.org/fhir/StructureDefinition/vitalsigns"/>
            </meta>
            <text>
               <status value="generated"/>
               <div xmlns="http://www.w3.org/1999/xhtml">
                  <table class="hl7__ips">
                     <tr>
                        <th>Vital Sign</th>
                        <th>Date</th>
                        <th>Measurement</th>
                     </tr>
                     <tr>
                        <td>Pain severity - 0-10 verbal numeric rating [Score] - Reported</td>
                        <td>27-May-2024</td>
                        <td>3 {score}</td>
                     </tr>
                  </table>
               </div>
            </text>
            <status value="final"/>
            <category>
               <coding>
                  <system value="http://terminology.hl7.org/CodeSystem/observation-category"/>
                  <code value="vital-signs"/>
                  <display value="Vital Signs"/>
               </coding>
            </category>
            <code>
               <coding>
                  <system value="http://loinc.org"/>
                  <code value="$72514-3"/>
                  <display value="Pain severity - 0-10 verbal numeric rating [Score] - Reported"/>
               </coding>
            </code>
            <subject>
               <reference value="urn:uuid:cfdfc19b-20bf-428b-9034-586535c500ab"/>
               <display value="Gioele Fabbri"/>
            </subject>
            <effectiveDateTime value="2024-05-27"/>
            <valueQuantity>
               <value value="3"/>
               <unit value="{score}"/>
               <code value="{score}"/>
            </valueQuantity>
         </Observation>
      </resource>
   </entry>
   <entry>
      <fullUrl value="urn:uuid:f4602bec-0f1b-4543-9ea6-7c01466d4b29"/>
      <resource>
         <Observation>
            <id value="f4602bec-0f1b-4543-9ea6-7c01466d4b29"/>
            <meta>
               <profile value="http://hl7.org/fhir/StructureDefinition/vitalsigns"/>
            </meta>
            <text>
               <status value="generated"/>
               <div xmlns="http://www.w3.org/1999/xhtml">
                  <table class="hl7__ips">
                     <tr>
                        <th>Vital Sign</th>
                        <th>Date</th>
                        <th>Measurement</th>
                     </tr>
                     <tr>
                        <td>Body Weight</td>
                        <td>27-May-2024</td>
                        <td>87.9 kg</td>
                     </tr>
                  </table>
               </div>
            </text>
            <status value="final"/>
            <category>
               <coding>
                  <system value="http://terminology.hl7.org/CodeSystem/observation-category"/>
                  <code value="vital-signs"/>
                  <display value="Vital Signs"/>
               </coding>
            </category>
            <code>
               <coding>
                  <system value="http://loinc.org"/>
                  <code value="$29463-7"/>
                  <display value="Body Weight"/>
               </coding>
            </code>
            <subject>
               <reference value="urn:uuid:cfdfc19b-20bf-428b-9034-586535c500ab"/>
               <display value="Gioele Fabbri"/>
            </subject>
            <effectiveDateTime value="2024-05-27"/>
            <valueQuantity>
               <value value="87.9"/>
               <unit value="kg"/>
               <code value="kg"/>
            </valueQuantity>
         </Observation>
      </resource>
   </entry>
   <entry>
      <fullUrl value="urn:uuid:e1be855c-7e74-4df7-a145-d76e1e825467"/>
      <resource>
         <Observation>
            <id value="e1be855c-7e74-4df7-a145-d76e1e825467"/>
            <meta>
               <profile value="http://hl7.org/fhir/StructureDefinition/vitalsigns"/>
            </meta>
            <text>
               <status value="generated"/>
               <div xmlns="http://www.w3.org/1999/xhtml">
                  <table class="hl7__ips">
                     <tr>
                        <th>Vital Sign</th>
                        <th>Date</th>
                        <th>Measurement</th>
                     </tr>
                     <tr>
                        <td>Body mass index (BMI) [Ratio]</td>
                        <td>27-May-2024</td>
                        <td>28.1 kg/m2</td>
                     </tr>
                  </table>
               </div>
            </text>
            <status value="final"/>
            <category>
               <coding>
                  <system value="http://terminology.hl7.org/CodeSystem/observation-category"/>
                  <code value="vital-signs"/>
                  <display value="Vital Signs"/>
               </coding>
            </category>
            <code>
               <coding>
                  <system value="http://loinc.org"/>
                  <code value="$39156-5"/>
                  <display value="Body mass index (BMI) [Ratio]"/>
               </coding>
            </code>
            <subject>
               <reference value="urn:uuid:cfdfc19b-20bf-428b-9034-586535c500ab"/>
               <display value="Gioele Fabbri"/>
            </subject>
            <effectiveDateTime value="2024-05-27"/>
            <valueQuantity>
               <value value="28.1"/>
               <unit value="kg/m2"/>
               <code value="kg/m2"/>
            </valueQuantity>
         </Observation>
      </resource>
   </entry>
   <entry>
      <fullUrl value="urn:uuid:db66aade-9b58-4c0e-bbe9-c0806ce07b3c"/>
      <resource>
         <Observation>
            <id value="db66aade-9b58-4c0e-bbe9-c0806ce07b3c"/>
            <meta>
               <profile value="http://hl7.org/fhir/StructureDefinition/vitalsigns"/>
            </meta>
            <text>
               <status value="generated"/>
               <div xmlns="http://www.w3.org/1999/xhtml">
                  <table class="hl7__ips">
                     <tr>
                        <th>Vital Sign</th>
                        <th>Date</th>
                        <th>Measurement</th>
                     </tr>
                     <tr>
                        <td>Diastolic Blood Pressure</td>
                        <td>27-May-2024</td>
                        <td>84 mm[Hg]</td>
                     </tr>
                  </table>
               </div>
            </text>
            <status value="final"/>
            <category>
               <coding>
                  <system value="http://terminology.hl7.org/CodeSystem/observation-category"/>
                  <code value="vital-signs"/>
                  <display value="Vital Signs"/>
               </coding>
            </category>
            <code>
               <coding>
                  <system value="http://loinc.org"/>
                  <code value="$8462-4"/>
                  <display value="Diastolic Blood Pressure"/>
               </coding>
            </code>
            <subject>
               <reference value="urn:uuid:cfdfc19b-20bf-428b-9034-586535c500ab"/>
               <display value="Gioele Fabbri"/>
            </subject>
            <effectiveDateTime value="2024-05-27"/>
            <valueQuantity>
               <value value="84"/>
               <unit value="mm[Hg]"/>
               <code value="mm[Hg]"/>
            </valueQuantity>
         </Observation>
      </resource>
   </entry>
   <entry>
      <fullUrl value="urn:uuid:b1e8f851-65fb-4108-94b1-7834f44de0e7"/>
      <resource>
         <Observation>
            <id value="b1e8f851-65fb-4108-94b1-7834f44de0e7"/>
            <meta>
               <profile value="http://hl7.org/fhir/StructureDefinition/vitalsigns"/>
            </meta>
            <text>
               <status value="generated"/>
               <div xmlns="http://www.w3.org/1999/xhtml">
                  <table class="hl7__ips">
                     <tr>
                        <th>Vital Sign</th>
                        <th>Date</th>
                        <th>Measurement</th>
                     </tr>
                     <tr>
                        <td>Systolic Blood Pressure</td>
                        <td>27-May-2024</td>
                        <td>123 mm[Hg]</td>
                     </tr>
                  </table>
               </div>
            </text>
            <status value="final"/>
            <category>
               <coding>
                  <system value="http://terminology.hl7.org/CodeSystem/observation-category"/>
                  <code value="vital-signs"/>
                  <display value="Vital Signs"/>
               </coding>
            </category>
            <code>
               <coding>
                  <system value="http://loinc.org"/>
                  <code value="$8480-6"/>
                  <display value="Systolic Blood Pressure"/>
               </coding>
            </code>
            <subject>
               <reference value="urn:uuid:cfdfc19b-20bf-428b-9034-586535c500ab"/>
               <display value="Gioele Fabbri"/>
            </subject>
            <effectiveDateTime value="2024-05-27"/>
            <valueQuantity>
               <value value="123"/>
               <unit value="mm[Hg]"/>
               <code value="mm[Hg]"/>
            </valueQuantity>
         </Observation>
      </resource>
   </entry>
   <entry>
      <fullUrl value="urn:uuid:6b66eabb-f218-4763-9e1e-fe158e1efc8d"/>
      <resource>
         <Observation>
            <id value="6b66eabb-f218-4763-9e1e-fe158e1efc8d"/>
            <meta>
               <profile value="http://hl7.org/fhir/StructureDefinition/vitalsigns"/>
            </meta>
            <text>
               <status value="generated"/>
               <div xmlns="http://www.w3.org/1999/xhtml">
                  <table class="hl7__ips">
                     <tr>
                        <th>Vital Sign</th>
                        <th>Date</th>
                        <th>Measurement</th>
                     </tr>
                     <tr>
                        <td>Heart rate</td>
                        <td>27-May-2024</td>
                        <td>80 /min</td>
                     </tr>
                  </table>
               </div>
            </text>
            <status value="final"/>
            <category>
               <coding>
                  <system value="http://terminology.hl7.org/CodeSystem/observation-category"/>
                  <code value="vital-signs"/>
                  <display value="Vital Signs"/>
               </coding>
            </category>
            <code>
               <coding>
                  <system value="http://loinc.org"/>
                  <code value="$8867-4"/>
                  <display value="Heart rate"/>
               </coding>
            </code>
            <subject>
               <reference value="urn:uuid:cfdfc19b-20bf-428b-9034-586535c500ab"/>
               <display value="Gioele Fabbri"/>
            </subject>
            <effectiveDateTime value="2024-05-27"/>
            <valueQuantity>
               <value value="80"/>
               <unit value="/min"/>
               <code value="/min"/>
            </valueQuantity>
         </Observation>
      </resource>
   </entry>
   <entry>
      <fullUrl value="urn:uuid:df72f511-b184-4538-8df4-7a7c17303440"/>
      <resource>
         <Observation>
            <id value="df72f511-b184-4538-8df4-7a7c17303440"/>
            <meta>
               <profile value="http://hl7.org/fhir/StructureDefinition/vitalsigns"/>
            </meta>
            <text>
               <status value="generated"/>
               <div xmlns="http://www.w3.org/1999/xhtml">
                  <table class="hl7__ips">
                     <tr>
                        <th>Vital Sign</th>
                        <th>Date</th>
                        <th>Measurement</th>
                     </tr>
                     <tr>
                        <td>Respiratory rate</td>
                        <td>27-May-2024</td>
                        <td>13 /min</td>
                     </tr>
                  </table>
               </div>
            </text>
            <status value="final"/>
            <category>
               <coding>
                  <system value="http://terminology.hl7.org/CodeSystem/observation-category"/>
                  <code value="vital-signs"/>
                  <display value="Vital Signs"/>
               </coding>
            </category>
            <code>
               <coding>
                  <system value="http://loinc.org"/>
                  <code value="$9279-1"/>
                  <display value="Respiratory rate"/>
               </coding>
            </code>
            <subject>
               <reference value="urn:uuid:cfdfc19b-20bf-428b-9034-586535c500ab"/>
               <display value="Gioele Fabbri"/>
            </subject>
            <effectiveDateTime value="2024-05-27"/>
            <valueQuantity>
               <value value="13"/>
               <unit value="/min"/>
               <code value="/min"/>
            </valueQuantity>
         </Observation>
      </resource>
   </entry>
   <entry>
      <fullUrl value="urn:uuid:c9b6b4a0-5ff6-4ef2-a69f-c922fab65120"/>
      <resource>
         <Observation>
            <id value="c9b6b4a0-5ff6-4ef2-a69f-c922fab65120"/>
            <meta>
               <profile value="http://hl7.eu/fhir/laboratory/StructureDefinition/Observation-resultslab-eu-lab"/>
            </meta>
            <text>
               <status value="generated"/>
               <div xmlns="http://www.w3.org/1999/xhtml">
                  <table class="hl7__eu__lab__report">
                     <tr>
                        <th>Test</th>
                        <th>10-Jun-2025</th>
                        <th>Reference Range</th>
                        <th>Unit</th>
                     </tr>
                     <tr>
                        <td>Glucose [Mass/volume] in Blood</td>
                        <td>77.7</td>
                        <td>70 - 99</td>
                        <td/>
                        <td>mg/dL</td>
                     </tr>
                  </table>
               </div>
            </text>
            <status value="final"/>
            <category>
               <coding>
                  <system value="http://terminology.hl7.org/CodeSystem/observation-category"/>
                  <code value="laboratory"/>
               </coding>
            </category>
            <code>
               <coding>
                  <system value="http://loinc.org"/>
                  <code value="2339-0"/>
                  <display value="Glucose [Mass/volume] in Blood"/>
               </coding>
               <text value="Glucose [Mass/volume] in Blood"/>
            </code>
            <subject>
               <reference value="urn:uuid:cfdfc19b-20bf-428b-9034-586535c500ab"/>
               <display value="Gioele Fabbri"/>
            </subject>
            <effectiveDateTime value="2025-06-10T15:46:20Z"/>
            <performer>
               <display value="The Central European Lab"/>
            </performer>
            <valueQuantity>
               <value value="77.7"/>
               <unit value="mg/dL"/>
               <system value="http://unitsofmeasure.org"/>
               <code value="mg/dL"/>
            </valueQuantity>
            <referenceRange>
               <low>
                  <value value="70"/>
                  <system value="http://unitsofmeasure.org"/>
                  <code value="mg/dL"/>
               </low>
            </referenceRange>
            <referenceRange>
               <high>
                  <value value="99"/>
                  <system value="http://unitsofmeasure.org"/>
                  <code value="mg/dL"/>
               </high>
            </referenceRange>
         </Observation>
      </resource>
   </entry>
   <entry>
      <fullUrl value="urn:uuid:ebb4617f-6b7c-411a-9194-1cc0d3310530"/>
      <resource>
         <Observation>
            <id value="ebb4617f-6b7c-411a-9194-1cc0d3310530"/>
            <meta>
               <profile value="http://hl7.eu/fhir/laboratory/StructureDefinition/Observation-resultslab-eu-lab"/>
            </meta>
            <text>
               <status value="generated"/>
               <div xmlns="http://www.w3.org/1999/xhtml">
                  <table class="hl7__eu__lab__report">
                     <tr>
                        <th>Test</th>
                        <th>10-Jun-2025</th>
                        <th>Reference Range</th>
                        <th>Unit</th>
                     </tr>
                     <tr>
                        <td>Urea nitrogen [Mass/volume] in Blood</td>
                        <td>11.5</td>
                        <td>7 - 20</td>
                        <td/>
                        <td>mg/dL</td>
                     </tr>
                  </table>
               </div>
            </text>
            <status value="final"/>
            <category>
               <coding>
                  <system value="http://terminology.hl7.org/CodeSystem/observation-category"/>
                  <code value="laboratory"/>
               </coding>
            </category>
            <code>
               <coding>
                  <system value="http://loinc.org"/>
                  <code value="6299-2"/>
                  <display value="Urea nitrogen [Mass/volume] in Blood"/>
               </coding>
               <text value="Urea nitrogen [Mass/volume] in Blood"/>
            </code>
            <subject>
               <reference value="urn:uuid:cfdfc19b-20bf-428b-9034-586535c500ab"/>
               <display value="Gioele Fabbri"/>
            </subject>
            <effectiveDateTime value="2025-06-10T15:46:20Z"/>
            <performer>
               <display value="The Central European Lab"/>
            </performer>
            <valueQuantity>
               <value value="11.5"/>
               <unit value="mg/dL"/>
               <system value="http://unitsofmeasure.org"/>
               <code value="mg/dL"/>
            </valueQuantity>
            <referenceRange>
               <low>
                  <value value="7"/>
                  <system value="http://unitsofmeasure.org"/>
                  <code value="mg/dL"/>
               </low>
            </referenceRange>
            <referenceRange>
               <high>
                  <value value="20"/>
                  <system value="http://unitsofmeasure.org"/>
                  <code value="mg/dL"/>
               </high>
            </referenceRange>
         </Observation>
      </resource>
   </entry>
   <entry>
      <fullUrl value="urn:uuid:72f69976-aa68-4f85-8633-1bd178207976"/>
      <resource>
         <Observation>
            <id value="72f69976-aa68-4f85-8633-1bd178207976"/>
            <meta>
               <profile value="http://hl7.eu/fhir/laboratory/StructureDefinition/Observation-resultslab-eu-lab"/>
            </meta>
            <text>
               <status value="generated"/>
               <div xmlns="http://www.w3.org/1999/xhtml">
                  <table class="hl7__eu__lab__report">
                     <tr>
                        <th>Test</th>
                        <th>10-Jun-2025</th>
                        <th>Reference Range</th>
                        <th>Unit</th>
                     </tr>
                     <tr>
                        <td>Creatinine [Mass/volume] in Blood</td>
                        <td>2.8</td>
                        <td>0.7 - 1.3</td>
                        <td>H</td>
                        <td>mg/dL</td>
                     </tr>
                  </table>
               </div>
            </text>
            <status value="final"/>
            <category>
               <coding>
                  <system value="http://terminology.hl7.org/CodeSystem/observation-category"/>
                  <code value="laboratory"/>
               </coding>
            </category>
            <code>
               <coding>
                  <system value="http://loinc.org"/>
                  <code value="38483-4"/>
                  <display value="Creatinine [Mass/volume] in Blood"/>
               </coding>
               <text value="Creatinine [Mass/volume] in Blood"/>
            </code>
            <subject>
               <reference value="urn:uuid:cfdfc19b-20bf-428b-9034-586535c500ab"/>
               <display value="Gioele Fabbri"/>
            </subject>
            <effectiveDateTime value="2025-06-10T15:46:20Z"/>
            <performer>
               <display value="The Central European Lab"/>
            </performer>
            <valueQuantity>
               <value value="2.8"/>
               <unit value="mg/dL"/>
               <system value="http://unitsofmeasure.org"/>
               <code value="mg/dL"/>
            </valueQuantity>
            <interpretation>
               <coding>
                  <system value="http://terminology.hl7.org/CodeSystem/v3-ObservationInterpretation"/>
                  <code value="H"/>
                  <display value="High"/>
               </coding>
            </interpretation>
            <referenceRange>
               <low>
                  <value value="0.7"/>
                  <system value="http://unitsofmeasure.org"/>
                  <code value="mg/dL"/>
               </low>
            </referenceRange>
            <referenceRange>
               <high>
                  <value value="1.3"/>
                  <system value="http://unitsofmeasure.org"/>
                  <code value="mg/dL"/>
               </high>
            </referenceRange>
         </Observation>
      </resource>
   </entry>
   <entry>
      <fullUrl value="urn:uuid:5addd58b-8330-415c-8059-02445ba23040"/>
      <resource>
         <Observation>
            <id value="5addd58b-8330-415c-8059-02445ba23040"/>
            <meta>
               <profile value="http://hl7.eu/fhir/laboratory/StructureDefinition/Observation-resultslab-eu-lab"/>
            </meta>
            <text>
               <status value="generated"/>
               <div xmlns="http://www.w3.org/1999/xhtml">
                  <table class="hl7__eu__lab__report">
                     <tr>
                        <th>Test</th>
                        <th>10-Jun-2025</th>
                        <th>Reference Range</th>
                        <th>Unit</th>
                     </tr>
                     <tr>
                        <td>Calcium [Mass/volume] in Blood</td>
                        <td>9.3</td>
                        <td>8.5 - 10.5</td>
                        <td/>
                        <td>mg/dL</td>
                     </tr>
                  </table>
               </div>
            </text>
            <status value="final"/>
            <category>
               <coding>
                  <system value="http://terminology.hl7.org/CodeSystem/observation-category"/>
                  <code value="laboratory"/>
               </coding>
            </category>
            <code>
               <coding>
                  <system value="http://loinc.org"/>
                  <code value="49765-1"/>
                  <display value="Calcium [Mass/volume] in Blood"/>
               </coding>
               <text value="Calcium [Mass/volume] in Blood"/>
            </code>
            <subject>
               <reference value="urn:uuid:cfdfc19b-20bf-428b-9034-586535c500ab"/>
               <display value="Gioele Fabbri"/>
            </subject>
            <effectiveDateTime value="2025-06-10T15:46:20Z"/>
            <performer>
               <display value="The Central European Lab"/>
            </performer>
            <valueQuantity>
               <value value="9.3"/>
               <unit value="mg/dL"/>
               <system value="http://unitsofmeasure.org"/>
               <code value="mg/dL"/>
            </valueQuantity>
            <referenceRange>
               <low>
                  <value value="8.5"/>
                  <system value="http://unitsofmeasure.org"/>
                  <code value="mg/dL"/>
               </low>
            </referenceRange>
            <referenceRange>
               <high>
                  <value value="10.5"/>
                  <system value="http://unitsofmeasure.org"/>
                  <code value="mg/dL"/>
               </high>
            </referenceRange>
         </Observation>
      </resource>
   </entry>
   <entry>
      <fullUrl value="urn:uuid:88d87ddb-f19c-4fc0-9abe-e7adc21e0612"/>
      <resource>
         <Observation>
            <id value="88d87ddb-f19c-4fc0-9abe-e7adc21e0612"/>
            <meta>
               <profile value="http://hl7.eu/fhir/laboratory/StructureDefinition/Observation-resultslab-eu-lab"/>
            </meta>
            <text>
               <status value="generated"/>
               <div xmlns="http://www.w3.org/1999/xhtml">
                  <table class="hl7__eu__lab__report">
                     <tr>
                        <th>Test</th>
                        <th>10-Jun-2025</th>
                        <th>Reference Range</th>
                        <th>Unit</th>
                     </tr>
                     <tr>
                        <td>Sodium [Moles/volume] in Blood</td>
                        <td>138.8</td>
                        <td>135 - 145</td>
                        <td/>
                        <td>mmol/L</td>
                     </tr>
                  </table>
               </div>
            </text>
            <status value="final"/>
            <category>
               <coding>
                  <system value="http://terminology.hl7.org/CodeSystem/observation-category"/>
                  <code value="laboratory"/>
               </coding>
            </category>
            <code>
               <coding>
                  <system value="http://loinc.org"/>
                  <code value="2947-0"/>
                  <display value="Sodium [Moles/volume] in Blood"/>
               </coding>
               <text value="Sodium [Moles/volume] in Blood"/>
            </code>
            <subject>
               <reference value="urn:uuid:cfdfc19b-20bf-428b-9034-586535c500ab"/>
               <display value="Gioele Fabbri"/>
            </subject>
            <effectiveDateTime value="2025-06-10T15:46:20Z"/>
            <performer>
               <display value="The Central European Lab"/>
            </performer>
            <valueQuantity>
               <value value="138.8"/>
               <unit value="mmol/L"/>
               <system value="http://unitsofmeasure.org"/>
               <code value="mmol/L"/>
            </valueQuantity>
            <referenceRange>
               <low>
                  <value value="135"/>
                  <system value="http://unitsofmeasure.org"/>
                  <code value="mmol/L"/>
               </low>
            </referenceRange>
            <referenceRange>
               <high>
                  <value value="145"/>
                  <system value="http://unitsofmeasure.org"/>
                  <code value="mmol/L"/>
               </high>
            </referenceRange>
         </Observation>
      </resource>
   </entry>
   <entry>
      <fullUrl value="urn:uuid:a96a1d0c-16fa-4e29-9c7f-f5992ff09008"/>
      <resource>
         <Observation>
            <id value="a96a1d0c-16fa-4e29-9c7f-f5992ff09008"/>
            <meta>
               <profile value="http://hl7.eu/fhir/laboratory/StructureDefinition/Observation-resultslab-eu-lab"/>
            </meta>
            <text>
               <status value="generated"/>
               <div xmlns="http://www.w3.org/1999/xhtml">
                  <table class="hl7__eu__lab__report">
                     <tr>
                        <th>Test</th>
                        <th>10-Jun-2025</th>
                        <th>Reference Range</th>
                        <th>Unit</th>
                     </tr>
                     <tr>
                        <td>Potassium [Moles/volume] in Blood</td>
                        <td>4.9</td>
                        <td>3.5 - 5</td>
                        <td/>
                        <td>mmol/L</td>
                     </tr>
                  </table>
               </div>
            </text>
            <status value="final"/>
            <category>
               <coding>
                  <system value="http://terminology.hl7.org/CodeSystem/observation-category"/>
                  <code value="laboratory"/>
               </coding>
            </category>
            <code>
               <coding>
                  <system value="http://loinc.org"/>
                  <code value="6298-4"/>
                  <display value="Potassium [Moles/volume] in Blood"/>
               </coding>
               <text value="Potassium [Moles/volume] in Blood"/>
            </code>
            <subject>
               <reference value="urn:uuid:cfdfc19b-20bf-428b-9034-586535c500ab"/>
               <display value="Gioele Fabbri"/>
            </subject>
            <effectiveDateTime value="2025-06-10T15:46:20Z"/>
            <performer>
               <display value="The Central European Lab"/>
            </performer>
            <valueQuantity>
               <value value="4.9"/>
               <unit value="mmol/L"/>
               <system value="http://unitsofmeasure.org"/>
               <code value="mmol/L"/>
            </valueQuantity>
            <referenceRange>
               <low>
                  <value value="3.5"/>
                  <system value="http://unitsofmeasure.org"/>
                  <code value="mmol/L"/>
               </low>
            </referenceRange>
            <referenceRange>
               <high>
                  <value value="5"/>
                  <system value="http://unitsofmeasure.org"/>
                  <code value="mmol/L"/>
               </high>
            </referenceRange>
         </Observation>
      </resource>
   </entry>
   <entry>
      <fullUrl value="urn:uuid:687aa329-6d49-4906-bbe4-7a732cf5fc6b"/>
      <resource>
         <Observation>
            <id value="687aa329-6d49-4906-bbe4-7a732cf5fc6b"/>
            <meta>
               <profile value="http://hl7.eu/fhir/laboratory/StructureDefinition/Observation-resultslab-eu-lab"/>
            </meta>
            <text>
               <status value="generated"/>
               <div xmlns="http://www.w3.org/1999/xhtml">
                  <table class="hl7__eu__lab__report">
                     <tr>
                        <th>Test</th>
                        <th>10-Jun-2025</th>
                        <th>Reference Range</th>
                        <th>Unit</th>
                     </tr>
                     <tr>
                        <td>Chloride [Moles/volume] in Blood</td>
                        <td>101.9</td>
                        <td>98 - 107</td>
                        <td/>
                        <td>mmol/L</td>
                     </tr>
                  </table>
               </div>
            </text>
            <status value="final"/>
            <category>
               <coding>
                  <system value="http://terminology.hl7.org/CodeSystem/observation-category"/>
                  <code value="laboratory"/>
               </coding>
            </category>
            <code>
               <coding>
                  <system value="http://loinc.org"/>
                  <code value="2069-3"/>
                  <display value="Chloride [Moles/volume] in Blood"/>
               </coding>
               <text value="Chloride [Moles/volume] in Blood"/>
            </code>
            <subject>
               <reference value="urn:uuid:cfdfc19b-20bf-428b-9034-586535c500ab"/>
               <display value="Gioele Fabbri"/>
            </subject>
            <effectiveDateTime value="2025-06-10T15:46:20Z"/>
            <performer>
               <display value="The Central European Lab"/>
            </performer>
            <valueQuantity>
               <value value="101.9"/>
               <unit value="mmol/L"/>
               <system value="http://unitsofmeasure.org"/>
               <code value="mmol/L"/>
            </valueQuantity>
            <referenceRange>
               <low>
                  <value value="98"/>
                  <system value="http://unitsofmeasure.org"/>
                  <code value="mmol/L"/>
               </low>
            </referenceRange>
            <referenceRange>
               <high>
                  <value value="107"/>
                  <system value="http://unitsofmeasure.org"/>
                  <code value="mmol/L"/>
               </high>
            </referenceRange>
         </Observation>
      </resource>
   </entry>
   <entry>
      <fullUrl value="urn:uuid:439c0536-3f00-4b20-a059-456a20f6def3"/>
      <resource>
         <Observation>
            <id value="439c0536-3f00-4b20-a059-456a20f6def3"/>
            <meta>
               <profile value="http://hl7.eu/fhir/laboratory/StructureDefinition/Observation-resultslab-eu-lab"/>
            </meta>
            <text>
               <status value="generated"/>
               <div xmlns="http://www.w3.org/1999/xhtml">
                  <table class="hl7__eu__lab__report">
                     <tr>
                        <th>Test</th>
                        <th>10-Jun-2025</th>
                        <th>Reference Range</th>
                        <th>Unit</th>
                     </tr>
                     <tr>
                        <td>Carbon dioxide, total [Moles/volume] in Blood</td>
                        <td>27.5</td>
                        <td>24 - 29</td>
                        <td/>
                        <td>mmol/L</td>
                     </tr>
                  </table>
               </div>
            </text>
            <status value="final"/>
            <category>
               <coding>
                  <system value="http://terminology.hl7.org/CodeSystem/observation-category"/>
                  <code value="laboratory"/>
               </coding>
            </category>
            <code>
               <coding>
                  <system value="http://loinc.org"/>
                  <code value="20565-8"/>
                  <display value="Carbon dioxide, total [Moles/volume] in Blood"/>
               </coding>
               <text value="Carbon dioxide, total [Moles/volume] in Blood"/>
            </code>
            <subject>
               <reference value="urn:uuid:cfdfc19b-20bf-428b-9034-586535c500ab"/>
               <display value="Gioele Fabbri"/>
            </subject>
            <effectiveDateTime value="2025-06-10T15:46:20Z"/>
            <performer>
               <display value="The Central European Lab"/>
            </performer>
            <valueQuantity>
               <value value="27.5"/>
               <unit value="mmol/L"/>
               <system value="http://unitsofmeasure.org"/>
               <code value="mmol/L"/>
            </valueQuantity>
            <referenceRange>
               <low>
                  <value value="24"/>
                  <system value="http://unitsofmeasure.org"/>
                  <code value="mmol/L"/>
               </low>
            </referenceRange>
            <referenceRange>
               <high>
                  <value value="29"/>
                  <system value="http://unitsofmeasure.org"/>
                  <code value="mmol/L"/>
               </high>
            </referenceRange>
         </Observation>
      </resource>
   </entry>
   <entry>
      <fullUrl value="urn:uuid:bd5f519b-3bf2-414d-b8b5-486aa04c3607"/>
      <resource>
         <Observation>
            <id value="bd5f519b-3bf2-414d-b8b5-486aa04c3607"/>
            <meta>
               <profile value="http://hl7.eu/fhir/laboratory/StructureDefinition/Observation-resultslab-eu-lab"/>
            </meta>
            <text>
               <status value="generated"/>
               <div xmlns="http://www.w3.org/1999/xhtml">
                  <table class="hl7__eu__lab__report">
                     <tr>
                        <th>Test</th>
                        <th>10-Jun-2025</th>
                        <th>Reference Range</th>
                        <th>Unit</th>
                     </tr>
                     <tr>
                        <td>Protein [Mass/volume] in Serum or Plasma</td>
                        <td>6.2</td>
                        <td>6.6 - 8.3</td>
                        <td>L</td>
                        <td>g/dL</td>
                     </tr>
                  </table>
               </div>
            </text>
            <status value="final"/>
            <category>
               <coding>
                  <system value="http://terminology.hl7.org/CodeSystem/observation-category"/>
                  <code value="laboratory"/>
               </coding>
            </category>
            <code>
               <coding>
                  <system value="http://loinc.org"/>
                  <code value="2885-2"/>
                  <display value="Protein [Mass/volume] in Serum or Plasma"/>
               </coding>
               <text value="Protein [Mass/volume] in Serum or Plasma"/>
            </code>
            <subject>
               <reference value="urn:uuid:cfdfc19b-20bf-428b-9034-586535c500ab"/>
               <display value="Gioele Fabbri"/>
            </subject>
            <effectiveDateTime value="2025-06-10T15:46:20Z"/>
            <performer>
               <display value="The Central European Lab"/>
            </performer>
            <valueQuantity>
               <value value="6.2"/>
               <unit value="g/dL"/>
               <system value="http://unitsofmeasure.org"/>
               <code value="g/dL"/>
            </valueQuantity>
            <interpretation>
               <coding>
                  <system value="http://terminology.hl7.org/CodeSystem/v3-ObservationInterpretation"/>
                  <code value="L"/>
                  <display value="Low"/>
               </coding>
            </interpretation>
            <referenceRange>
               <low>
                  <value value="6.6"/>
                  <system value="http://unitsofmeasure.org"/>
                  <code value="g/dL"/>
               </low>
            </referenceRange>
            <referenceRange>
               <high>
                  <value value="8.3"/>
                  <system value="http://unitsofmeasure.org"/>
                  <code value="g/dL"/>
               </high>
            </referenceRange>
         </Observation>
      </resource>
   </entry>
   <entry>
      <fullUrl value="urn:uuid:6218efaf-dbdc-4af7-a2bf-800048140880"/>
      <resource>
         <Observation>
            <id value="6218efaf-dbdc-4af7-a2bf-800048140880"/>
            <meta>
               <profile value="http://hl7.eu/fhir/laboratory/StructureDefinition/Observation-resultslab-eu-lab"/>
            </meta>
            <text>
               <status value="generated"/>
               <div xmlns="http://www.w3.org/1999/xhtml">
                  <table class="hl7__eu__lab__report">
                     <tr>
                        <th>Test</th>
                        <th>10-Jun-2025</th>
                        <th>Reference Range</th>
                        <th>Unit</th>
                     </tr>
                     <tr>
                        <td>Albumin [Mass/volume] in Serum or Plasma</td>
                        <td>3.8</td>
                        <td>3.5 - 5.5</td>
                        <td/>
                        <td>g/dL</td>
                     </tr>
                  </table>
               </div>
            </text>
            <status value="final"/>
            <category>
               <coding>
                  <system value="http://terminology.hl7.org/CodeSystem/observation-category"/>
                  <code value="laboratory"/>
               </coding>
            </category>
            <code>
               <coding>
                  <system value="http://loinc.org"/>
                  <code value="1751-7"/>
                  <display value="Albumin [Mass/volume] in Serum or Plasma"/>
               </coding>
               <text value="Albumin [Mass/volume] in Serum or Plasma"/>
            </code>
            <subject>
               <reference value="urn:uuid:cfdfc19b-20bf-428b-9034-586535c500ab"/>
               <display value="Gioele Fabbri"/>
            </subject>
            <effectiveDateTime value="2025-06-10T15:46:20Z"/>
            <performer>
               <display value="The Central European Lab"/>
            </performer>
            <valueQuantity>
               <value value="3.8"/>
               <unit value="g/dL"/>
               <system value="http://unitsofmeasure.org"/>
               <code value="g/dL"/>
            </valueQuantity>
            <referenceRange>
               <low>
                  <value value="3.5"/>
                  <system value="http://unitsofmeasure.org"/>
                  <code value="g/dL"/>
               </low>
            </referenceRange>
            <referenceRange>
               <high>
                  <value value="5.5"/>
                  <system value="http://unitsofmeasure.org"/>
                  <code value="g/dL"/>
               </high>
            </referenceRange>
         </Observation>
      </resource>
   </entry>
   <entry>
      <fullUrl value="urn:uuid:93ef3c79-0d40-44ad-bdcf-b74220c54435"/>
      <resource>
         <Observation>
            <id value="93ef3c79-0d40-44ad-bdcf-b74220c54435"/>
            <meta>
               <profile value="http://hl7.eu/fhir/laboratory/StructureDefinition/Observation-resultslab-eu-lab"/>
            </meta>
            <text>
               <status value="generated"/>
               <div xmlns="http://www.w3.org/1999/xhtml">
                  <table class="hl7__eu__lab__report">
                     <tr>
                        <th>Test</th>
                        <th>10-Jun-2025</th>
                        <th>Reference Range</th>
                        <th>Unit</th>
                     </tr>
                     <tr>
                        <td>Globulin [Mass/volume] in Serum by calculation</td>
                        <td>3.4</td>
                        <td>2 - 3.5</td>
                        <td/>
                        <td>g/L</td>
                     </tr>
                  </table>
               </div>
            </text>
            <status value="final"/>
            <category>
               <coding>
                  <system value="http://terminology.hl7.org/CodeSystem/observation-category"/>
                  <code value="laboratory"/>
               </coding>
            </category>
            <code>
               <coding>
                  <system value="http://loinc.org"/>
                  <code value="10834-0"/>
                  <display value="Globulin [Mass/volume] in Serum by calculation"/>
               </coding>
               <text value="Globulin [Mass/volume] in Serum by calculation"/>
            </code>
            <subject>
               <reference value="urn:uuid:cfdfc19b-20bf-428b-9034-586535c500ab"/>
               <display value="Gioele Fabbri"/>
            </subject>
            <effectiveDateTime value="2025-06-10T15:46:20Z"/>
            <performer>
               <display value="The Central European Lab"/>
            </performer>
            <valueQuantity>
               <value value="3.4"/>
               <unit value="g/L"/>
               <system value="http://unitsofmeasure.org"/>
               <code value="g/L"/>
            </valueQuantity>
            <referenceRange>
               <low>
                  <value value="2"/>
                  <system value="http://unitsofmeasure.org"/>
                  <code value="g/L"/>
               </low>
            </referenceRange>
            <referenceRange>
               <high>
                  <value value="3.5"/>
                  <system value="http://unitsofmeasure.org"/>
                  <code value="g/L"/>
               </high>
            </referenceRange>
         </Observation>
      </resource>
   </entry>
   <entry>
      <fullUrl value="urn:uuid:f9c12403-2de5-448e-8600-5f005113797c"/>
      <resource>
         <Observation>
            <id value="f9c12403-2de5-448e-8600-5f005113797c"/>
            <meta>
               <profile value="http://hl7.eu/fhir/laboratory/StructureDefinition/Observation-resultslab-eu-lab"/>
            </meta>
            <text>
               <status value="generated"/>
               <div xmlns="http://www.w3.org/1999/xhtml">
                  <table class="hl7__eu__lab__report">
                     <tr>
                        <th>Test</th>
                        <th>10-Jun-2025</th>
                        <th>Reference Range</th>
                        <th>Unit</th>
                     </tr>
                     <tr>
                        <td>Bilirubin.total [Mass/volume] in Serum or Plasma</td>
                        <td>0.6</td>
                        <td>0.3 - 1.2</td>
                        <td/>
                        <td>mg/dL</td>
                     </tr>
                  </table>
               </div>
            </text>
            <status value="final"/>
            <category>
               <coding>
                  <system value="http://terminology.hl7.org/CodeSystem/observation-category"/>
                  <code value="laboratory"/>
               </coding>
            </category>
            <code>
               <coding>
                  <system value="http://loinc.org"/>
                  <code value="1975-2"/>
                  <display value="Bilirubin.total [Mass/volume] in Serum or Plasma"/>
               </coding>
               <text value="Bilirubin.total [Mass/volume] in Serum or Plasma"/>
            </code>
            <subject>
               <reference value="urn:uuid:cfdfc19b-20bf-428b-9034-586535c500ab"/>
               <display value="Gioele Fabbri"/>
            </subject>
            <effectiveDateTime value="2025-06-10T15:46:20Z"/>
            <performer>
               <display value="The Central European Lab"/>
            </performer>
            <valueQuantity>
               <value value="0.6"/>
               <unit value="mg/dL"/>
               <system value="http://unitsofmeasure.org"/>
               <code value="mg/dL"/>
            </valueQuantity>
            <referenceRange>
               <low>
                  <value value="0.3"/>
                  <system value="http://unitsofmeasure.org"/>
                  <code value="mg/dL"/>
               </low>
            </referenceRange>
            <referenceRange>
               <high>
                  <value value="1.2"/>
                  <system value="http://unitsofmeasure.org"/>
                  <code value="mg/dL"/>
               </high>
            </referenceRange>
         </Observation>
      </resource>
   </entry>
   <entry>
      <fullUrl value="urn:uuid:f0767133-4cc4-4470-8b7b-0911fd205c59"/>
      <resource>
         <Observation>
            <id value="f0767133-4cc4-4470-8b7b-0911fd205c59"/>
            <meta>
               <profile value="http://hl7.eu/fhir/laboratory/StructureDefinition/Observation-resultslab-eu-lab"/>
            </meta>
            <text>
               <status value="generated"/>
               <div xmlns="http://www.w3.org/1999/xhtml">
                  <table class="hl7__eu__lab__report">
                     <tr>
                        <th>Test</th>
                        <th>10-Jun-2025</th>
                        <th>Reference Range</th>
                        <th>Unit</th>
                     </tr>
                     <tr>
                        <td>Alkaline phosphatase [Enzymatic activity/volume] in Serum or Plasma</td>
                        <td>65.3</td>
                        <td>39 - 136</td>
                        <td/>
                        <td>U/L</td>
                     </tr>
                  </table>
               </div>
            </text>
            <status value="final"/>
            <category>
               <coding>
                  <system value="http://terminology.hl7.org/CodeSystem/observation-category"/>
                  <code value="laboratory"/>
               </coding>
            </category>
            <code>
               <coding>
                  <system value="http://loinc.org"/>
                  <code value="6768-6"/>
                  <display value="Alkaline phosphatase [Enzymatic activity/volume] in Serum or Plasma"/>
               </coding>
               <text value="Alkaline phosphatase [Enzymatic activity/volume] in Serum or Plasma"/>
            </code>
            <subject>
               <reference value="urn:uuid:cfdfc19b-20bf-428b-9034-586535c500ab"/>
               <display value="Gioele Fabbri"/>
            </subject>
            <effectiveDateTime value="2025-06-10T15:46:20Z"/>
            <performer>
               <display value="The Central European Lab"/>
            </performer>
            <valueQuantity>
               <value value="65.3"/>
               <unit value="U/L"/>
               <system value="http://unitsofmeasure.org"/>
               <code value="U/L"/>
            </valueQuantity>
            <referenceRange>
               <low>
                  <value value="39"/>
                  <system value="http://unitsofmeasure.org"/>
                  <code value="U/L"/>
               </low>
            </referenceRange>
            <referenceRange>
               <high>
                  <value value="136"/>
                  <system value="http://unitsofmeasure.org"/>
                  <code value="U/L"/>
               </high>
            </referenceRange>
         </Observation>
      </resource>
   </entry>
   <entry>
      <fullUrl value="urn:uuid:1983f1cc-d37d-40c4-bd9f-4a476c585551"/>
      <resource>
         <Observation>
            <id value="1983f1cc-d37d-40c4-bd9f-4a476c585551"/>
            <meta>
               <profile value="http://hl7.eu/fhir/laboratory/StructureDefinition/Observation-resultslab-eu-lab"/>
            </meta>
            <text>
               <status value="generated"/>
               <div xmlns="http://www.w3.org/1999/xhtml">
                  <table class="hl7__eu__lab__report">
                     <tr>
                        <th>Test</th>
                        <th>10-Jun-2025</th>
                        <th>Reference Range</th>
                        <th>Unit</th>
                     </tr>
                     <tr>
                        <td>Alanine aminotransferase [Enzymatic activity/volume] in Serum or Plasma</td>
                        <td>40.7</td>
                        <td>7 - 52</td>
                        <td/>
                        <td>U/L</td>
                     </tr>
                  </table>
               </div>
            </text>
            <status value="final"/>
            <category>
               <coding>
                  <system value="http://terminology.hl7.org/CodeSystem/observation-category"/>
                  <code value="laboratory"/>
               </coding>
            </category>
            <code>
               <coding>
                  <system value="http://loinc.org"/>
                  <code value="1742-6"/>
                  <display value="Alanine aminotransferase [Enzymatic activity/volume] in Serum or Plasma"/>
               </coding>
               <text value="Alanine aminotransferase [Enzymatic activity/volume] in Serum or Plasma"/>
            </code>
            <subject>
               <reference value="urn:uuid:cfdfc19b-20bf-428b-9034-586535c500ab"/>
               <display value="Gioele Fabbri"/>
            </subject>
            <effectiveDateTime value="2025-06-10T15:46:20Z"/>
            <performer>
               <display value="The Central European Lab"/>
            </performer>
            <valueQuantity>
               <value value="40.7"/>
               <unit value="U/L"/>
               <system value="http://unitsofmeasure.org"/>
               <code value="U/L"/>
            </valueQuantity>
            <referenceRange>
               <low>
                  <value value="7"/>
                  <system value="http://unitsofmeasure.org"/>
                  <code value="U/L"/>
               </low>
            </referenceRange>
            <referenceRange>
               <high>
                  <value value="52"/>
                  <system value="http://unitsofmeasure.org"/>
                  <code value="U/L"/>
               </high>
            </referenceRange>
         </Observation>
      </resource>
   </entry>
   <entry>
      <fullUrl value="urn:uuid:772c19c2-ed1b-4e34-8f8c-ed4cbb285ce8"/>
      <resource>
         <Observation>
            <id value="772c19c2-ed1b-4e34-8f8c-ed4cbb285ce8"/>
            <meta>
               <profile value="http://hl7.eu/fhir/laboratory/StructureDefinition/Observation-resultslab-eu-lab"/>
            </meta>
            <text>
               <status value="generated"/>
               <div xmlns="http://www.w3.org/1999/xhtml">
                  <table class="hl7__eu__lab__report">
                     <tr>
                        <th>Test</th>
                        <th>10-Jun-2025</th>
                        <th>Reference Range</th>
                        <th>Unit</th>
                     </tr>
                     <tr>
                        <td>Aspartate aminotransferase [Enzymatic activity/volume] in Serum or Plasma</td>
                        <td>12.3</td>
                        <td>10 - 40</td>
                        <td/>
                        <td>U/L</td>
                     </tr>
                  </table>
               </div>
            </text>
            <status value="final"/>
            <category>
               <coding>
                  <system value="http://terminology.hl7.org/CodeSystem/observation-category"/>
                  <code value="laboratory"/>
               </coding>
            </category>
            <code>
               <coding>
                  <system value="http://loinc.org"/>
                  <code value="1920-8"/>
                  <display value="Aspartate aminotransferase [Enzymatic activity/volume] in Serum or Plasma"/>
               </coding>
               <text value="Aspartate aminotransferase [Enzymatic activity/volume] in Serum or Plasma"/>
            </code>
            <subject>
               <reference value="urn:uuid:cfdfc19b-20bf-428b-9034-586535c500ab"/>
               <display value="Gioele Fabbri"/>
            </subject>
            <effectiveDateTime value="2025-06-10T15:46:20Z"/>
            <performer>
               <display value="The Central European Lab"/>
            </performer>
            <valueQuantity>
               <value value="12.3"/>
               <unit value="U/L"/>
               <system value="http://unitsofmeasure.org"/>
               <code value="U/L"/>
            </valueQuantity>
            <referenceRange>
               <low>
                  <value value="10"/>
                  <system value="http://unitsofmeasure.org"/>
                  <code value="U/L"/>
               </low>
            </referenceRange>
            <referenceRange>
               <high>
                  <value value="40"/>
                  <system value="http://unitsofmeasure.org"/>
                  <code value="U/L"/>
               </high>
            </referenceRange>
         </Observation>
      </resource>
   </entry>
   <entry>
      <fullUrl value="urn:uuid:f3aad0d4-e481-4fd8-a696-767411f6a84b"/>
      <resource>
         <Observation>
            <id value="f3aad0d4-e481-4fd8-a696-767411f6a84b"/>
            <meta>
               <profile value="http://hl7.eu/fhir/laboratory/StructureDefinition/Observation-resultslab-eu-lab"/>
            </meta>
            <text>
               <status value="generated"/>
               <div xmlns="http://www.w3.org/1999/xhtml">
                  <table class="hl7__eu__lab__report">
                     <tr>
                        <th>Test</th>
                        <th>10-Jun-2025</th>
                        <th>Reference Range</th>
                        <th>Unit</th>
                     </tr>
                     <tr>
                        <td>Cholesterol [Mass/volume] in Serum or Plasma</td>
                        <td>200.4</td>
                        <td>125 - 200</td>
                        <td>H</td>
                        <td>mg/dL</td>
                     </tr>
                  </table>
               </div>
            </text>
            <status value="final"/>
            <category>
               <coding>
                  <system value="http://terminology.hl7.org/CodeSystem/observation-category"/>
                  <code value="laboratory"/>
               </coding>
            </category>
            <code>
               <coding>
                  <system value="http://loinc.org"/>
                  <code value="2093-3"/>
                  <display value="Cholesterol [Mass/volume] in Serum or Plasma"/>
               </coding>
               <text value="Cholesterol [Mass/volume] in Serum or Plasma"/>
            </code>
            <subject>
               <reference value="urn:uuid:cfdfc19b-20bf-428b-9034-586535c500ab"/>
               <display value="Gioele Fabbri"/>
            </subject>
            <effectiveDateTime value="2025-06-10T15:46:20Z"/>
            <performer>
               <display value="The Central European Lab"/>
            </performer>
            <valueQuantity>
               <value value="200.4"/>
               <unit value="mg/dL"/>
               <system value="http://unitsofmeasure.org"/>
               <code value="mg/dL"/>
            </valueQuantity>
            <interpretation>
               <coding>
                  <system value="http://terminology.hl7.org/CodeSystem/v3-ObservationInterpretation"/>
                  <code value="H"/>
                  <display value="High"/>
               </coding>
            </interpretation>
            <referenceRange>
               <low>
                  <value value="125"/>
                  <system value="http://unitsofmeasure.org"/>
                  <code value="mg/dL"/>
               </low>
            </referenceRange>
            <referenceRange>
               <high>
                  <value value="200"/>
                  <system value="http://unitsofmeasure.org"/>
                  <code value="mg/dL"/>
               </high>
            </referenceRange>
         </Observation>
      </resource>
   </entry>
   <entry>
      <fullUrl value="urn:uuid:9f008e36-dfa2-406f-952d-eb65e6e7b4d5"/>
      <resource>
         <Observation>
            <id value="9f008e36-dfa2-406f-952d-eb65e6e7b4d5"/>
            <meta>
               <profile value="http://hl7.eu/fhir/laboratory/StructureDefinition/Observation-resultslab-eu-lab"/>
            </meta>
            <text>
               <status value="generated"/>
               <div xmlns="http://www.w3.org/1999/xhtml">
                  <table class="hl7__eu__lab__report">
                     <tr>
                        <th>Test</th>
                        <th>10-Jun-2025</th>
                        <th>Reference Range</th>
                        <th>Unit</th>
                     </tr>
                     <tr>
                        <td>Triglyceride [Mass/volume] in Serum or Plasma</td>
                        <td>100.5</td>
                        <td>0 - 150</td>
                        <td/>
                        <td>mg/dL</td>
                     </tr>
                  </table>
               </div>
            </text>
            <status value="final"/>
            <category>
               <coding>
                  <system value="http://terminology.hl7.org/CodeSystem/observation-category"/>
                  <code value="laboratory"/>
               </coding>
            </category>
            <code>
               <coding>
                  <system value="http://loinc.org"/>
                  <code value="2571-8"/>
                  <display value="Triglyceride [Mass/volume] in Serum or Plasma"/>
               </coding>
               <text value="Triglyceride [Mass/volume] in Serum or Plasma"/>
            </code>
            <subject>
               <reference value="urn:uuid:cfdfc19b-20bf-428b-9034-586535c500ab"/>
               <display value="Gioele Fabbri"/>
            </subject>
            <effectiveDateTime value="2025-06-10T15:46:20Z"/>
            <performer>
               <display value="The Central European Lab"/>
            </performer>
            <valueQuantity>
               <value value="100.5"/>
               <unit value="mg/dL"/>
               <system value="http://unitsofmeasure.org"/>
               <code value="mg/dL"/>
            </valueQuantity>
            <referenceRange>
               <low>
                  <value value="0"/>
                  <system value="http://unitsofmeasure.org"/>
                  <code value="mg/dL"/>
               </low>
            </referenceRange>
            <referenceRange>
               <high>
                  <value value="150"/>
                  <system value="http://unitsofmeasure.org"/>
                  <code value="mg/dL"/>
               </high>
            </referenceRange>
         </Observation>
      </resource>
   </entry>
   <entry>
      <fullUrl value="urn:uuid:27471183-45c0-4892-bd4f-a780482c5c67"/>
      <resource>
         <Observation>
            <id value="27471183-45c0-4892-bd4f-a780482c5c67"/>
            <meta>
               <profile value="http://hl7.eu/fhir/laboratory/StructureDefinition/Observation-resultslab-eu-lab"/>
            </meta>
            <text>
               <status value="generated"/>
               <div xmlns="http://www.w3.org/1999/xhtml">
                  <table class="hl7__eu__lab__report">
                     <tr>
                        <th>Test</th>
                        <th>10-Jun-2025</th>
                        <th>Reference Range</th>
                        <th>Unit</th>
                     </tr>
                     <tr>
                        <td>Cholesterol in LDL [Mass/volume] in Serum or Plasma by Direct assay</td>
                        <td>106.5</td>
                        <td>0 - 130</td>
                        <td/>
                        <td>mg/dL</td>
                     </tr>
                  </table>
               </div>
            </text>
            <status value="final"/>
            <category>
               <coding>
                  <system value="http://terminology.hl7.org/CodeSystem/observation-category"/>
                  <code value="laboratory"/>
               </coding>
            </category>
            <code>
               <coding>
                  <system value="http://loinc.org"/>
                  <code value="18262-6"/>
                  <display value="Cholesterol in LDL [Mass/volume] in Serum or Plasma by Direct assay"/>
               </coding>
               <text value="Cholesterol in LDL [Mass/volume] in Serum or Plasma by Direct assay"/>
            </code>
            <subject>
               <reference value="urn:uuid:cfdfc19b-20bf-428b-9034-586535c500ab"/>
               <display value="Gioele Fabbri"/>
            </subject>
            <effectiveDateTime value="2025-06-10T15:46:20Z"/>
            <performer>
               <display value="The Central European Lab"/>
            </performer>
            <valueQuantity>
               <value value="106.5"/>
               <unit value="mg/dL"/>
               <system value="http://unitsofmeasure.org"/>
               <code value="mg/dL"/>
            </valueQuantity>
            <referenceRange>
               <low>
                  <value value="0"/>
                  <system value="http://unitsofmeasure.org"/>
                  <code value="mg/dL"/>
               </low>
            </referenceRange>
            <referenceRange>
               <high>
                  <value value="130"/>
                  <system value="http://unitsofmeasure.org"/>
                  <code value="mg/dL"/>
               </high>
            </referenceRange>
         </Observation>
      </resource>
   </entry>
   <entry>
      <fullUrl value="urn:uuid:fcf68ea9-fe79-41fa-a788-ec2bbd4144b7"/>
      <resource>
         <Observation>
            <id value="fcf68ea9-fe79-41fa-a788-ec2bbd4144b7"/>
            <meta>
               <profile value="http://hl7.eu/fhir/laboratory/StructureDefinition/Observation-resultslab-eu-lab"/>
            </meta>
            <text>
               <status value="generated"/>
               <div xmlns="http://www.w3.org/1999/xhtml">
                  <table class="hl7__eu__lab__report">
                     <tr>
                        <th>Test</th>
                        <th>10-Jun-2025</th>
                        <th>Reference Range</th>
                        <th>Unit</th>
                     </tr>
                     <tr>
                        <td>Cholesterol in HDL [Mass/volume] in Serum or Plasma</td>
                        <td>31.4</td>
                        <td>40 - 100</td>
                        <td>L</td>
                        <td>mg/dL</td>
                     </tr>
                  </table>
               </div>
            </text>
            <status value="final"/>
            <category>
               <coding>
                  <system value="http://terminology.hl7.org/CodeSystem/observation-category"/>
                  <code value="laboratory"/>
               </coding>
            </category>
            <code>
               <coding>
                  <system value="http://loinc.org"/>
                  <code value="2085-9"/>
                  <display value="Cholesterol in HDL [Mass/volume] in Serum or Plasma"/>
               </coding>
               <text value="Cholesterol in HDL [Mass/volume] in Serum or Plasma"/>
            </code>
            <subject>
               <reference value="urn:uuid:cfdfc19b-20bf-428b-9034-586535c500ab"/>
               <display value="Gioele Fabbri"/>
            </subject>
            <effectiveDateTime value="2025-06-10T15:46:20Z"/>
            <performer>
               <display value="The Central European Lab"/>
            </performer>
            <valueQuantity>
               <value value="31.4"/>
               <unit value="mg/dL"/>
               <system value="http://unitsofmeasure.org"/>
               <code value="mg/dL"/>
            </valueQuantity>
            <interpretation>
               <coding>
                  <system value="http://terminology.hl7.org/CodeSystem/v3-ObservationInterpretation"/>
                  <code value="L"/>
                  <display value="Low"/>
               </coding>
            </interpretation>
            <referenceRange>
               <low>
                  <value value="40"/>
                  <system value="http://unitsofmeasure.org"/>
                  <code value="mg/dL"/>
               </low>
            </referenceRange>
            <referenceRange>
               <high>
                  <value value="100"/>
                  <system value="http://unitsofmeasure.org"/>
                  <code value="mg/dL"/>
               </high>
            </referenceRange>
         </Observation>
      </resource>
   </entry>
   <entry>
      <fullUrl value="urn:uuid:13383900-f80e-427e-895e-5d30787f240f"/>
      <resource>
         <DeviceUseStatement>
            <id value="13383900-f80e-427e-895e-5d30787f240f"/>
            <meta>
               <profile value="http://hl7.eu/fhir/eps/StructureDefinition/deviceUseStatement-eu-eps"/>
            </meta>
            <text>
               <status value="generated"/>
               <div xmlns="http://www.w3.org/1999/xhtml">
                  <table class="hl7__ips">
                     <tr>
                        <td>Blood glucose meter (physical object)</td>
                        <td>
                           <span class="nb">16-May-2022</span>
                        </td>
                     </tr>
                  </table>
               </div>
            </text>
            <status value="active"/>
            <subject>
               <reference value="urn:uuid:cfdfc19b-20bf-428b-9034-586535c500ab"/>
               <display value="Gioele Fabbri"/>
            </subject>
            <timingPeriod>
               <start value="2022-05-16"/>
            </timingPeriod>
            <device>
               <reference value="urn:uuid:1358c654-a803-4f30-912a-b07ae5cfb801"/>
               <display value="Blood glucose meter (physical object)"/>
            </device>
         </DeviceUseStatement>
      </resource>
   </entry>
   <entry>
      <fullUrl value="urn:uuid:1358c654-a803-4f30-912a-b07ae5cfb801"/>
      <resource>
         <Device>
            <id value="1358c654-a803-4f30-912a-b07ae5cfb801"/>
            <meta>
               <profile value="http://hl7.eu/fhir/eps/StructureDefinition/device-eu-eps"/>
            </meta>
            <udiCarrier id="(01)70542411763361(11)220425(17)470510(10)643244861837879881(21)9882650830532113"/>
            <status value="active"/>
            <type>
               <coding>
                  <system value="http://snomed.info/sct"/>
                  <code value="337414009"/>
                  <display value="Blood glucose meter (physical object)"/>
               </coding>
            </type>
            <patient>
               <reference value="urn:uuid:cfdfc19b-20bf-428b-9034-586535c500ab"/>
               <display value="Gioele Fabbri"/>
            </patient>
         </Device>
      </resource>
   </entry>
   <entry>
      <fullUrl value="urn:uuid:008879aa-a619-4954-b2f7-6fac024b27a3"/>
      <resource>
         <Device>
            <id value="008879aa-a619-4954-b2f7-6fac024b27a3"/>
            <text>
               <status value="generated"/>
               <div xmlns="http://www.w3.org/1999/xhtml">SYNDERAI Synthetic Generator v5.0</div>
            </text>
            <status value="active&#34;"/>
            <distinctIdentifier value="synderai-generator-50"/>
            <manufacturer value="SYNDERAI Project"/>
            <deviceName>
               <name value="SYNDERAI Synthetic Generator"/>
               <type value="manufacturer-name"/>
            </deviceName>
            <version>
               <value value="5.0"/>
            </version>
         </Device>
      </resource>
   </entry>
   <entry>
      <fullUrl value="urn:uuid:570c0334-719e-44e2-8660-94deefa69429"/>
      <resource>
         <Provenance>
            <id value="570c0334-719e-44e2-8660-94deefa69429"/>
            <text>
               <status value="generated"/>
               <div xmlns="http://www.w3.org/1999/xhtml">Provenance for SYNDERAI Synthetic Example Data Resource</div>
            </text>
            <target>
               <reference value="Patient/cfdfc19b-20bf-428b-9034-586535c500ab"/>
            </target>
            <target>
               <reference value="Bundle/5643b57b-d9a5-4d4c-a7eb-4b7f574f8de4"/>
            </target>
            <target>
               <reference value="Composition/47eda489-dd51-4977-93ee-68af296a8bec"/>
            </target>
            <target>
               <reference value="PractitionerRole/cfea9a97-e881-4589-9c3b-3b32ab6bf174"/>
            </target>
            <target>
               <reference value="Organization/88b03ba0-6540-43fb-8946-05bc81d8fbc3"/>
            </target>
            <target>
               <reference value="Practitioner/acefdfac-3d42-4cfe-8c84-7251168a5091"/>
            </target>
            <recorded value="2025-06-10T15:46:20Z"/>
            <policy value="https://synderai.net/synderai-synthetic-data-policy"/>
            <reason>
               <text value="Interoperability Testing and Training (non-clinical use)"/>
            </reason>
            <activity>
               <text value="Synthetic Example Data Generation"/>
            </activity>
            <agent>
               <type>
                  <text value="author"/>
               </type>
               <who>
                  <reference value="Device/008879aa-a619-4954-b2f7-6fac024b27a3"/>
               </who>
            </agent>
         </Provenance>
      </resource>
   </entry>
</Bundle>