{
  "resourceType": "Bundle",
  "id": "02e95e7f-d508-49b1-b97b-35aef6776a66",
  "meta": {
    "profile": [
      "http://hl7.eu/fhir/eps/StructureDefinition/bundle-eu-eps"
    ]
  },
  "identifier": {
    "assigner": {
      "display": "HL7 Europe"
    },
    "system": "urn:oid:2.16.840.1.113883.2.51.999",
    "value": "67abb8b5-07a3-4c2e-8bff-1f31d1a60b1e"
  },
  "entry": [
    {
      "fullUrl": "urn:uuid:6432ff37-8461-438e-b56d-699a527a65eb",
      "resource": {
        "resourceType": "Composition",
        "id": "6432ff37-8461-438e-b56d-699a527a65eb",
        "meta": {
          "security": [
            {
              "system": "http://terminology.hl7.org/CodeSystem/v3-ActReason",
              "code": "HTEST"
            },
            {
              "system": "http://terminology.hl7.org/CodeSystem/v3-ActReason",
              "code": "TRAIN"
            }
          ],
          "tag": [
            {
              "system": "https://synderai.net/fhir/CodeSystem/tags",
              "code": "synthetic",
              "display": "SYNDERAI Synthetic data"
            }
          ],
          "profile": [
            "http://hl7.eu/fhir/eps/StructureDefinition/composition-eu-eps"
          ]
        },
        "identifier": {
          "assigner": {
            "display": "HL7 Europe"
          },
          "system": "urn:oid:2.16.840.1.113883.2.51.999",
          "value": "e055c543-ab85-43c1-9327-41fd8b3ef80f"
        },
        "type": {
          "coding": [
            {
              "system": "http://loinc.org",
              "code": "60591-5",
              "display": "Patient summary Document"
            }
          ],
          "text": "Patient summary Document"
        },
        "author": [
          {
            "reference": "urn:uuid:dfb29b01-b9de-4311-bb37-336482ce302c"
          }
        ],
        "section": [
          {
            "text": {
              "status": "generated",
              "div": "<div xmlns=\"http://www.w3.org/1999/xhtml\"><table class=\"hl7__ips\"><tr><th>Condition</th><th>Onset Date</th><th>Status</th></tr><tr><td>Prediabetes</td><td><span class=\"nb\">29-Aug-2006</span></td><td>active</td></tr><tr><td>Metabolic syndrome X</td><td><span class=\"nb\">29-Aug-2006</span></td><td>active</td></tr><tr><td>Ischemic heart disease</td><td><span class=\"nb\">08-Jul-1997</span></td><td>active</td></tr><tr><td>Essential hypertension</td><td><span class=\"nb\">07-Apr-1981</span></td><td>active</td></tr></table></div>"
            },
            "entry": [
              {
                "reference": "urn:uuid:9b6cd03d-b027-48b4-9d7b-1ffeb731de13"
              },
              {
                "reference": "urn:uuid:a6f2e456-42fb-408c-8185-59e12482694b"
              },
              {
                "reference": "urn:uuid:3d659f76-7581-4bcf-afa4-844303f5fe6e"
              },
              {
                "reference": "urn:uuid:a40073bb-cef3-4dc9-9fe1-2667c00bb3a9"
              }
            ],
            "code": {
              "coding": [
                {
                  "system": "http://loinc.org",
                  "code": "11450-4",
                  "display": "Problem list - Reported"
                }
              ]
            },
            "title": "Problem list"
          },
          {
            "text": {
              "status": "generated",
              "div": "<div xmlns=\"http://www.w3.org/1999/xhtml\"><table class=\"hl7__ips\"><tr><th>Medication</th><th>Since</th><th>Form</th><th>Dosage</th><th>Reason</th></tr><tr><td>Amlodipine (as amlodipine besylate) 2.5 mg oral tablet</td><td><span class=\"nb\">2024-12-10</span></td><td>-</td><td>1 tablet (2.5 mg) by mouth once daily</td><td>Essential hypertension (disorder)</td></tr><tr><td>Hydrochlorothiazide 25 mg oral tablet</td><td><span class=\"nb\">2024-12-10</span></td><td>-</td><td>1 tablet (25 mg) by mouth once daily</td><td>Essential hypertension (disorder)</td></tr><tr><td>Lisinopril 10 mg oral tablet</td><td><span class=\"nb\">2024-12-10</span></td><td>-</td><td>1 tablet (10 mg) by mouth once daily</td><td>Essential hypertension (disorder)</td></tr><tr><td>Clopidogrel (as clopidogrel bisulfate) 75 mg oral tablet</td><td><span class=\"nb\">1997-07-15</span></td><td>-</td><td>1 tablet (75 mg) once daily</td><td>-</td></tr><tr><td>Simvastatin 20 mg oral tablet</td><td><span class=\"nb\">1997-07-15</span></td><td>-</td><td>1 tablet (20 mg) by mouth once daily</td><td>-</td></tr><tr><td>Nitroglycerin 400 microgram/actuation sublingual spray</td><td><span class=\"nb\">1997-07-15</span></td><td>-</td><td>400 micrograms per spray, use one spray under the tongue as needed for chest pain, repeat every 5 minutes if needed, up to 3 sprays in 15 minutes</td><td>-</td></tr><tr><td>Metoprolol tartrate (as metoprolol succinate) 100 mg prolonged-release oral tablet</td><td><span class=\"nb\">1997-07-15</span></td><td>-</td><td>1 tablet (100 mg) once daily</td><td>-</td></tr></table></div>"
            },
            "entry": [
              {
                "reference": "urn:uuid:e555856f-ba68-4f4f-b429-836741228c72"
              },
              {
                "reference": "urn:uuid:edb2d11b-f931-46fe-ad9e-5742843db96e"
              },
              {
                "reference": "urn:uuid:11a49f6e-6347-4498-adea-8cfd995d158d"
              },
              {
                "reference": "urn:uuid:f14f0481-b214-4d51-b2b2-eaa9003cfccb"
              },
              {
                "reference": "urn:uuid:6b448aba-e32b-460f-8490-7967cfef8c26"
              },
              {
                "reference": "urn:uuid:17f7d176-37c2-42d9-8d1a-f05a5aee2063"
              },
              {
                "reference": "urn:uuid:c0532bfc-7265-462b-b7d7-94b9d84b22fa"
              }
            ],
            "code": {
              "coding": [
                {
                  "system": "http://loinc.org",
                  "code": "10160-0",
                  "display": "History of Medication use Narrative"
                }
              ]
            },
            "title": "Medication list"
          },
          {
            "text": {
              "status": "generated",
              "div": "<div xmlns=\"http://www.w3.org/1999/xhtml\"><table class=\"hl7__ips\"><tr><th>Vaccine</th><th>Date</th></tr><tr><td>Influenza virus antigen only vaccine product</td><td><span class=\"nb\">10-Dec-2024</span></td></tr><tr><td>Streptococcus pneumoniae Danish serotype 1</td><td><span class=\"nb\">29-Nov-2022</span></td></tr><tr><td>Streptococcus pneumoniae Danish serotype 1</td><td><span class=\"nb\">23-Nov-2021</span></td></tr><tr><td>SARS-CoV-2 mRNA vaccine</td><td><span class=\"nb\">13-Apr-2021</span></td></tr><tr><td>Clostridium tetani toxoid antigen adsorbed only vaccine product</td><td><span class=\"nb\">31-Oct-2017</span></td></tr></table></div>"
            },
            "entry": [
              {
                "reference": "urn:uuid:4485b083-7ce0-410c-adaa-26ac2e70a84d"
              },
              {
                "reference": "urn:uuid:7dd0bb38-9d02-4d73-a38c-757c7f6c4eed"
              },
              {
                "reference": "urn:uuid:23599385-2321-452d-99f0-a43bcb597cab"
              },
              {
                "reference": "urn:uuid:6f08b4fe-a136-4121-87e7-2a94e9eb5438"
              },
              {
                "reference": "urn:uuid:c0a4f131-fea2-4374-b232-2650fd3cc15d"
              }
            ],
            "code": {
              "coding": [
                {
                  "system": "http://loinc.org",
                  "code": "11369-6",
                  "display": "History of Immunization note"
                }
              ]
            },
            "title": "Immunizations list"
          },
          {
            "text": {
              "status": "generated",
              "div": "<div xmlns=\"http://www.w3.org/1999/xhtml\"><table class=\"hl7__ips\"><tr><th>Procedure</th><th>Date</th><th>Reason</th></tr><tr><td>Pelvis X-ray</td><td><span class=\"nb\">18-Aug-2016</span></td><td>-</td></tr><tr><td>Admission to orthopedic department</td><td><span class=\"nb\">18-Aug-2016</span></td><td>Closed fracture of hip</td></tr><tr><td>Bone density scan</td><td><span class=\"nb\">18-Aug-2016</span></td><td>Closed fracture of hip</td></tr></table></div>"
            },
            "entry": [
              {
                "reference": "urn:uuid:f244adc1-c681-40f0-8887-b73c4ccc1dc3"
              },
              {
                "reference": "urn:uuid:1c979777-b50b-4a35-883f-27bba398d9c1"
              },
              {
                "reference": "urn:uuid:1693bd10-1561-453b-9dac-2379a7c01dd1"
              }
            ],
            "code": {
              "coding": [
                {
                  "system": "http://loinc.org",
                  "code": "47519-4",
                  "display": "History of Procedures Document"
                }
              ]
            },
            "title": "Procedure History list"
          },
          {
            "text": {
              "status": "generated",
              "div": "<div xmlns=\"http://www.w3.org/1999/xhtml\"><table class=\"hl7__ips\"><tr><th>Allergy/Intolerance</th><th>Onset Date</th><th>Status</th><th>Type</th><th>Reaction</th></tr><tr><td></td><td>?</td><td>active</td><td>?</td><td></td></tr></table></div>"
            },
            "entry": [
              {
                "reference": "urn:uuid:47a6f0b0-baeb-4989-924c-aa3dd1bc57f8"
              }
            ],
            "code": {
              "coding": [
                {
                  "system": "http://loinc.org",
                  "code": "48765-2",
                  "display": "Allergies and adverse reactions Document"
                }
              ]
            },
            "title": "Allergies and Intolerances"
          },
          {
            "text": {
              "status": "generated",
              "div": "<div xmlns=\"http://www.w3.org/1999/xhtml\"><table class=\"hl7__ips\"><tr><th>Active Planned Care / Goals</th><th>Start Date</th><th>Reason</th></tr><tr><td>Diabetes self management plan</td><td><span class=\"nb\">29-Aug-2006</span></td><td>Prediabetes</td></tr><tr><td><ul><li>Maintain hemoglobin A1c below 5.7% to reduce risk of diabetes progression.</li><li>Achieve and maintain a 5% reduction in body weight to improve metabolic syndrome and prediabetes.</li><li>Maintain blood pressure below 130/80 mmHg to reduce cardiovascular risk.</li><li>Maintain LDL cholesterol below 100 mg/dL to reduce cardiovascular risk.</li></ul></td><td></td><td></td></tr><tr><td>Lifestyle education regarding hypertension</td><td><span class=\"nb\">07-Apr-1981</span></td><td>Essential hypertension (disorder)</td></tr><tr><td><ul><li>Patient will achieve and maintain target blood pressure through lifestyle education and interventions for hypertension.</li><li>Patient will achieve weight reduction as part of lifestyle modification for hypertension management.</li><li>Patient will engage in at least 150 minutes of moderate-intensity physical activity per week to support blood pressure control.</li><li>Patient will reduce dietary sodium intake to recommended levels to support blood pressure control.</li></ul></td><td></td><td></td></tr><tr><th>Immunization Recommendation</th><th>Due Date</th><th>Reason</th></tr><tr><td>Vaccine product containing only Influenza virus antigen (medicinal product)</td><td><span class=\"nb\">01-Oct-2025</span></td><td>Annual seasonal influenza vaccination</td></tr></table></div>"
            },
            "entry": [
              {
                "reference": "urn:uuid:77f0d865-f047-4501-a4e9-6572a18d9873"
              },
              {
                "reference": "urn:uuid:bc2c660a-ba33-4be7-a2ba-a49e8eedde4c"
              },
              {
                "reference": "urn:uuid:aea66735-7016-4b8c-808a-1c7c844ae42d"
              }
            ],
            "code": {
              "coding": [
                {
                  "system": "http://loinc.org",
                  "code": "18776-5",
                  "display": "Plan of care note"
                }
              ]
            },
            "title": "Care Plan"
          },
          {
            "text": {
              "status": "generated",
              "div": "<div xmlns=\"http://www.w3.org/1999/xhtml\"><table class=\"hl7__ips\"><tr><th>Vital Signs</th><th>2024-12-10</th><th>2023-12-05</th></tr><tr><td>Body Height</td><td>162.8 cm</td><td>162.8 cm</td></tr><tr><td>Pain severity - 0-10 verbal numeric rating [Score] - Reported</td><td>2 {score}</td><td>2 {score}</td></tr><tr><td>Body Weight</td><td>81.1 kg</td><td>81.1 kg</td></tr><tr><td>Body mass index (BMI) [Ratio]</td><td>30.6 kg/m2</td><td>30.6 kg/m2</td></tr><tr><td>Diastolic Blood Pressure</td><td>75 mm[Hg]</td><td>76 mm[Hg]</td></tr><tr><td>Systolic Blood Pressure</td><td>107 mm[Hg]</td><td>111 mm[Hg]</td></tr><tr><td>Heart rate</td><td>92 /min</td><td>77 /min</td></tr><tr><td>Respiratory rate</td><td>16 /min</td><td>13 /min</td></tr></table></div>"
            },
            "entry": [
              {
                "reference": "urn:uuid:43d71cf5-f260-47cb-8522-cacb08ad4df0"
              },
              {
                "reference": "urn:uuid:212cbbb0-49f7-415e-b326-53ae0d759d2f"
              },
              {
                "reference": "urn:uuid:cb8fd338-2109-4b4b-bb13-b4ba2e01e361"
              },
              {
                "reference": "urn:uuid:51c0cc2e-3f20-4583-97e8-8ae584d7a548"
              },
              {
                "reference": "urn:uuid:10780262-a7aa-4cd1-a6f7-959e83a99002"
              },
              {
                "reference": "urn:uuid:64c283d7-705c-4f64-a3d4-0dbb0726d799"
              },
              {
                "reference": "urn:uuid:2eef7ad2-406a-4682-8aa0-7f228f021ca3"
              },
              {
                "reference": "urn:uuid:f4d62033-dc04-478e-a03b-262e7c54ebb2"
              },
              {
                "reference": "urn:uuid:d07385e1-5ed5-4f35-ab4a-88ff54ced12f"
              },
              {
                "reference": "urn:uuid:d17cd4da-68c2-4c05-827b-83096997f2a1"
              },
              {
                "reference": "urn:uuid:de93ef77-d6b5-484d-94da-140db099fd27"
              },
              {
                "reference": "urn:uuid:6f8e7674-370c-4b91-9d31-797065e9eb2e"
              },
              {
                "reference": "urn:uuid:0963b1bf-7f03-4082-8d03-3669eb1d03c7"
              },
              {
                "reference": "urn:uuid:e44ba3a5-3e70-4ba9-9311-b62d621e227f"
              },
              {
                "reference": "urn:uuid:200a3a10-c4e3-4d62-9994-2bb2002da1f7"
              },
              {
                "reference": "urn:uuid:cb2f9ff3-3991-467a-a535-50ffdf521371"
              }
            ],
            "code": {
              "coding": [
                {
                  "system": "http://loinc.org",
                  "code": "8716-3",
                  "display": "Vital signs note"
                }
              ]
            },
            "title": "Vital Signs"
          },
          {
            "text": {
              "status": "generated",
              "div": "<div xmlns=\"http://www.w3.org/1999/xhtml\"><table class=\"hl7__ips\"><table class=\"hl7__ips\"><thead><tr><th>Recent Lab Observations</th><th>10-DEC-2024</th><th>Reference&#xA0;Range</th><th>Unit</th></tr></thead><tbody><tr><td>Hemoglobin A1c/Hemoglobin.total in Blood</td><td>5.9</td><td>4.5 - 6.4</td><td>%</td></tr><tr><td>Glucose [Mass/volume] in Blood</td><td>72.1</td><td>70 - 140</td><td>mg/dL</td></tr><tr><td>Urea nitrogen [Mass/volume] in Blood</td><td>19.7</td><td>7 - 43</td><td>mg/dL</td></tr><tr><td>Creatinine [Mass/volume] in Blood</td><td>0.7</td><td>0.7 - 1.1</td><td>mg/dL</td></tr><tr><td>Calcium [Mass/volume] in Blood</td><td>9.4</td><td>8.5 - 10.4</td><td>mg/dL</td></tr><tr><td>Sodium [Moles/volume] in Blood</td><td>137.6</td><td>135 - 145</td><td>mmol/L</td></tr><tr><td>Potassium [Moles/volume] in Blood</td><td>4.3</td><td>3.5 - 5.1</td><td>mmol/L</td></tr><tr><td>Chloride [Moles/volume] in Blood</td><td>102.2</td><td>98 - 107</td><td>mmol/L</td></tr><tr><td>Carbon dioxide, total [Moles/volume] in Blood</td><td>28.4</td><td>22 - 32</td><td>mmol/L</td></tr></tbody></table></table></div>"
            },
            "entry": [
              {
                "reference": "urn:uuid:c1d6f162-5ec4-4a57-b293-c66645efe975"
              },
              {
                "reference": "urn:uuid:dd8bb972-897a-4098-96ab-315eca2cf396"
              },
              {
                "reference": "urn:uuid:0f10fdc6-37d6-4a10-ab08-36c0f5483d60"
              },
              {
                "reference": "urn:uuid:2fcfbd58-9e47-44ca-ae71-e37ed38e1a19"
              },
              {
                "reference": "urn:uuid:fa7de861-2ddf-4753-b3c8-662f94c1f081"
              },
              {
                "reference": "urn:uuid:5872795b-d500-4b15-9a66-e5f2c30260c1"
              },
              {
                "reference": "urn:uuid:1841fc33-8ede-49dd-8a7e-5a5ec0d8267a"
              },
              {
                "reference": "urn:uuid:b7c4f5e1-99e3-41ad-9a19-1272483abf01"
              },
              {
                "reference": "urn:uuid:a209672e-0c42-48e2-b824-046fa2d7c99d"
              }
            ],
            "code": {
              "coding": [
                {
                  "system": "http://loinc.org",
                  "code": "30954-2",
                  "display": "Relevant diagnostic tests/laboratory data note"
                }
              ]
            },
            "title": "Relevant diagnostic tests/laboratory data"
          },
          {
            "text": {
              "status": "generated",
              "div": "<div xmlns=\"http://www.w3.org/1999/xhtml\"><table class=\"hl7__ips\"><tr><th>Device</th><th>Date (since)</th></tr><tr><td>Blood glucose meter (physical object)</td><td><span class=\"nb\">29-Aug-2006</span></td></tr></table></div>"
            },
            "entry": [
              {
                "reference": "urn:uuid:7f891261-bf5f-4f84-8691-eecf3c46eff9"
              }
            ],
            "code": {
              "coding": [
                {
                  "system": "http://loinc.org",
                  "code": "46264-8",
                  "display": "History of medical device use"
                }
              ]
            },
            "title": "Device Use"
          }
        ],
        "title": "European Patient Summary",
        "status": "final",
        "subject": {
          "reference": "urn:uuid:e8c3437b-68ee-4397-a09e-489c548f2f9f",
          "display": "Louise Köster"
        },
        "custodian": {
          "reference": "urn:uuid:bcf44a85-b3a4-473a-898c-a1dec6bf057d"
        },
        "date": "2024-12-10",
        "confidentiality": "N"
      }
    },
    {
      "fullUrl": "urn:uuid:e8c3437b-68ee-4397-a09e-489c548f2f9f",
      "resource": {
        "resourceType": "Patient",
        "id": "e8c3437b-68ee-4397-a09e-489c548f2f9f",
        "meta": {
          "security": [
            {
              "system": "http://terminology.hl7.org/CodeSystem/v3-ActReason",
              "code": "HTEST"
            },
            {
              "system": "http://terminology.hl7.org/CodeSystem/v3-ActReason",
              "code": "TRAIN"
            }
          ],
          "tag": [
            {
              "system": "https://synderai.net/fhir/CodeSystem/tags",
              "code": "synthetic",
              "display": "SYNDERAI Synthetic data"
            }
          ],
          "profile": [
            "http://hl7.eu/fhir/eps/StructureDefinition/patient-eu-eps"
          ]
        },
        "identifier": [
          {
            "type": {
              "coding": [
                {
                  "code": "PT",
                  "system": "http://terminology.hl7.org/CodeSystem/v2-0203"
                }
              ]
            },
            "system": "http://ec.europa.eu/identifier/eci",
            "value": "1053-167357-1"
          },
          {
            "type": {
              "coding": [
                {
                  "code": "MR",
                  "system": "http://terminology.hl7.org/CodeSystem/v2-0203"
                }
              ]
            },
            "system": "http://local.setting.eu/identifier",
            "value": "706b1a23-528f-0ed7-639f-1dc54e8ecc5d"
          }
        ],
        "name": [
          {
            "family": "Köster"
          },
          {
            "given": [
              "Louise"
            ]
          },
          {
            "text": "Louise Köster"
          }
        ],
        "address": [
          {
            "line": [
              "Regina-Butte-Ring 737"
            ],
            "use": "home",
            "type": "physical",
            "postalCode": "88348",
            "city": "Saulgau",
            "country": "Germany"
          }
        ],
        "telecom": [
          {
            "system": "phone",
            "value": "+49(0)2075293938"
          }
        ],
        "extension": [
          {
            "url": "http://hl7.org/fhir/StructureDefinition/patient-nationality",
            "valueCodeableConcept": {
              "coding": [
                {
                  "code": "DE",
                  "system": "http://hl7.org/fhir/ValueSet/country"
                }
              ]
            }
          }
        ],
        "text": {
          "status": "generated",
          "div": "<div xmlns=\"http://www.w3.org/1999/xhtml\"><table class=\"hl7__ips\"><tr><td>Louise Köster</td><td>female</td><td>01-Jul-1957</td></tr></table></div>"
        },
        "gender": "female",
        "birthDate": "1957-07-01"
      }
    },
    {
      "fullUrl": "urn:uuid:dfb29b01-b9de-4311-bb37-336482ce302c",
      "resource": {
        "resourceType": "PractitionerRole",
        "id": "dfb29b01-b9de-4311-bb37-336482ce302c",
        "meta": {
          "profile": [
            "http://hl7.eu/fhir/base/StructureDefinition/practitionerRole-eu"
          ]
        },
        "text": {
          "status": "generated",
          "div": "<div xmlns=\"http://www.w3.org/1999/xhtml\"><table class=\"hl7__ips\">Provider Role Id dfb29b01-b9de-4311-bb37-336482ce302c</table></div>"
        },
        "practitioner": {
          "reference": "urn:uuid:8193d368-eccc-4848-8a9d-69740df94d3f"
        },
        "organization": {
          "reference": "urn:uuid:bcf44a85-b3a4-473a-898c-a1dec6bf057d"
        }
      }
    },
    {
      "fullUrl": "urn:uuid:8193d368-eccc-4848-8a9d-69740df94d3f",
      "resource": {
        "resourceType": "Practitioner",
        "id": "8193d368-eccc-4848-8a9d-69740df94d3f",
        "meta": {
          "profile": [
            "http://hl7.eu/fhir/base/StructureDefinition/practitioner-eu"
          ]
        },
        "name": [
          {
            "prefix": [
              "Dr."
            ],
            "given": [
              "Hel"
            ],
            "family": "Ping"
          }
        ],
        "text": {
          "status": "generated",
          "div": "<div xmlns=\"http://www.w3.org/1999/xhtml\"><table class=\"hl7__ips\">Dr. Hel Ping</table></div>"
        }
      }
    },
    {
      "fullUrl": "urn:uuid:bcf44a85-b3a4-473a-898c-a1dec6bf057d",
      "resource": {
        "resourceType": "Organization",
        "id": "bcf44a85-b3a4-473a-898c-a1dec6bf057d",
        "meta": {
          "profile": [
            "http://hl7.eu/fhir/base/StructureDefinition/organization-eu"
          ]
        },
        "identifier": [
          {
            "assigner": {
              "display": "HL7 Europe"
            },
            "system": "urn:oid:2.16.840.1.113883.2.51.999",
            "value": "25c4efe9-d85a-4372-9aff-749a471a4a37"
          }
        ],
        "address": [
          {
            "line": [
              "Am Schönen Moos 7"
            ],
            "city": "Bad Saulgau",
            "postalCode": "88348",
            "country": "Germany"
          }
        ],
        "text": {
          "status": "generated",
          "div": "<div xmlns=\"http://www.w3.org/1999/xhtml\"><table class=\"hl7__ips\">Klinik am schönen Moos</table></div>"
        },
        "name": "Klinik am schönen Moos"
      }
    },
    {
      "fullUrl": "urn:uuid:9b6cd03d-b027-48b4-9d7b-1ffeb731de13",
      "resource": {
        "resourceType": "Condition",
        "id": "9b6cd03d-b027-48b4-9d7b-1ffeb731de13",
        "meta": {
          "profile": [
            "http://hl7.org/fhir/uv/ips/StructureDefinition/Condition-uv-ips"
          ]
        },
        "category": [
          {
            "coding": [
              {
                "code": "problem-list-item",
                "system": "http://terminology.hl7.org/CodeSystem/condition-category",
                "display": "Problem List Item"
              }
            ]
          }
        ],
        "code": {
          "coding": [
            {
              "code": "15777000",
              "system": "http://snomed.info/sct",
              "display": "Prediabetes (disorder)"
            }
          ],
          "text": "Prediabetes"
        },
        "text": {
          "status": "generated",
          "div": "<div xmlns=\"http://www.w3.org/1999/xhtml\"><table class=\"hl7__ips\"><tr><td>Prediabetes</td><td><span class=\"nb\">29-Aug-2006</span></td><td>active</td></tr></table></div>"
        },
        "onsetDateTime": "2006-08-29",
        "subject": {
          "reference": "urn:uuid:",
          "display": "Louise Köster"
        },
        "asserter": {
          "reference": "urn:uuid:",
          "display": "Klinik am schönen Moos"
        }
      }
    },
    {
      "fullUrl": "urn:uuid:a6f2e456-42fb-408c-8185-59e12482694b",
      "resource": {
        "resourceType": "Condition",
        "id": "a6f2e456-42fb-408c-8185-59e12482694b",
        "meta": {
          "profile": [
            "http://hl7.org/fhir/uv/ips/StructureDefinition/Condition-uv-ips"
          ]
        },
        "category": [
          {
            "coding": [
              {
                "code": "problem-list-item",
                "system": "http://terminology.hl7.org/CodeSystem/condition-category",
                "display": "Problem List Item"
              }
            ]
          }
        ],
        "code": {
          "coding": [
            {
              "code": "237602007",
              "system": "http://snomed.info/sct",
              "display": "Metabolic syndrome X (disorder)"
            }
          ],
          "text": "Metabolic syndrome X"
        },
        "text": {
          "status": "generated",
          "div": "<div xmlns=\"http://www.w3.org/1999/xhtml\"><table class=\"hl7__ips\"><tr><td>Metabolic syndrome X</td><td><span class=\"nb\">29-Aug-2006</span></td><td>active</td></tr></table></div>"
        },
        "onsetDateTime": "2006-08-29",
        "subject": {
          "reference": "urn:uuid:",
          "display": "Louise Köster"
        },
        "asserter": {
          "reference": "urn:uuid:",
          "display": "Klinik am schönen Moos"
        }
      }
    },
    {
      "fullUrl": "urn:uuid:3d659f76-7581-4bcf-afa4-844303f5fe6e",
      "resource": {
        "resourceType": "Condition",
        "id": "3d659f76-7581-4bcf-afa4-844303f5fe6e",
        "meta": {
          "profile": [
            "http://hl7.org/fhir/uv/ips/StructureDefinition/Condition-uv-ips"
          ]
        },
        "category": [
          {
            "coding": [
              {
                "code": "problem-list-item",
                "system": "http://terminology.hl7.org/CodeSystem/condition-category",
                "display": "Problem List Item"
              }
            ]
          }
        ],
        "code": {
          "coding": [
            {
              "code": "414545008",
              "system": "http://snomed.info/sct",
              "display": "Ischemic heart disease (disorder)"
            }
          ],
          "text": "Ischemic heart disease"
        },
        "text": {
          "status": "generated",
          "div": "<div xmlns=\"http://www.w3.org/1999/xhtml\"><table class=\"hl7__ips\"><tr><td>Ischemic heart disease</td><td><span class=\"nb\">08-Jul-1997</span></td><td>active</td></tr></table></div>"
        },
        "onsetDateTime": "1997-07-08",
        "subject": {
          "reference": "urn:uuid:",
          "display": "Louise Köster"
        },
        "asserter": {
          "reference": "urn:uuid:",
          "display": "Klinik am schönen Moos"
        }
      }
    },
    {
      "fullUrl": "urn:uuid:a40073bb-cef3-4dc9-9fe1-2667c00bb3a9",
      "resource": {
        "resourceType": "Condition",
        "id": "a40073bb-cef3-4dc9-9fe1-2667c00bb3a9",
        "meta": {
          "profile": [
            "http://hl7.org/fhir/uv/ips/StructureDefinition/Condition-uv-ips"
          ]
        },
        "category": [
          {
            "coding": [
              {
                "code": "problem-list-item",
                "system": "http://terminology.hl7.org/CodeSystem/condition-category",
                "display": "Problem List Item"
              }
            ]
          }
        ],
        "code": {
          "coding": [
            {
              "code": "59621000",
              "system": "http://snomed.info/sct",
              "display": "Essential hypertension (disorder)"
            }
          ],
          "text": "Essential hypertension"
        },
        "text": {
          "status": "generated",
          "div": "<div xmlns=\"http://www.w3.org/1999/xhtml\"><table class=\"hl7__ips\"><tr><td>Essential hypertension</td><td><span class=\"nb\">07-Apr-1981</span></td><td>active</td></tr></table></div>"
        },
        "onsetDateTime": "1981-04-07",
        "subject": {
          "reference": "urn:uuid:",
          "display": "Louise Köster"
        },
        "asserter": {
          "reference": "urn:uuid:",
          "display": "Klinik am schönen Moos"
        }
      }
    },
    {
      "fullUrl": "urn:uuid:3d99b0c9-e347-4f53-acf2-f9b59df1d707",
      "resource": {
        "resourceType": "Condition",
        "id": "3d99b0c9-e347-4f53-acf2-f9b59df1d707",
        "meta": {
          "profile": [
            "http://hl7.org/fhir/uv/ips/StructureDefinition/Condition-uv-ips"
          ]
        },
        "category": [
          {
            "coding": [
              {
                "code": "problem-list-item",
                "system": "http://terminology.hl7.org/CodeSystem/condition-category",
                "display": "Problem List Item"
              }
            ]
          }
        ],
        "code": {
          "coding": [
            {
              "code": "44465007",
              "system": "http://snomed.info/sct",
              "display": "Sprain of ankle (disorder)"
            }
          ],
          "text": "Sprain of ankle"
        },
        "text": {
          "status": "generated",
          "div": "<div xmlns=\"http://www.w3.org/1999/xhtml\"><table class=\"hl7__ips\"><tr><td><span class=\"grayedout\">Sprain of ankle</span></td><td><span class=\"nb\">05-Jul-2023 - 30-Jul-2023</span></td><td><span class=\"grayedout\">inactive</span></td></tr></table></div>"
        },
        "onsetDateTime": "2023-07-05",
        "abatementDateTime": "2023-07-30",
        "subject": {
          "reference": "urn:uuid:",
          "display": "Louise Köster"
        },
        "asserter": {
          "reference": "urn:uuid:",
          "display": "Klinik am schönen Moos"
        }
      }
    },
    {
      "fullUrl": "urn:uuid:e84ea6c8-7fc6-46c3-b5c5-acafa179096a",
      "resource": {
        "resourceType": "Condition",
        "id": "e84ea6c8-7fc6-46c3-b5c5-acafa179096a",
        "meta": {
          "profile": [
            "http://hl7.org/fhir/uv/ips/StructureDefinition/Condition-uv-ips"
          ]
        },
        "category": [
          {
            "coding": [
              {
                "code": "problem-list-item",
                "system": "http://terminology.hl7.org/CodeSystem/condition-category",
                "display": "Problem List Item"
              }
            ]
          }
        ],
        "code": {
          "coding": [
            {
              "code": "444814009",
              "system": "http://snomed.info/sct",
              "display": "Viral sinusitis (disorder)"
            }
          ],
          "text": "Viral sinusitis"
        },
        "text": {
          "status": "generated",
          "div": "<div xmlns=\"http://www.w3.org/1999/xhtml\"><table class=\"hl7__ips\"><tr><td><span class=\"grayedout\">Viral sinusitis</span></td><td><span class=\"nb\">30-Nov-2021 - 23-Dec-2021</span></td><td><span class=\"grayedout\">inactive</span></td></tr></table></div>"
        },
        "onsetDateTime": "2021-11-30",
        "abatementDateTime": "2021-12-23",
        "subject": {
          "reference": "urn:uuid:",
          "display": "Louise Köster"
        },
        "asserter": {
          "reference": "urn:uuid:",
          "display": "Klinik am schönen Moos"
        }
      }
    },
    {
      "fullUrl": "urn:uuid:862e72ac-bb08-45ba-a5f0-c76c22f10646",
      "resource": {
        "resourceType": "Condition",
        "id": "862e72ac-bb08-45ba-a5f0-c76c22f10646",
        "meta": {
          "profile": [
            "http://hl7.org/fhir/uv/ips/StructureDefinition/Condition-uv-ips"
          ]
        },
        "category": [
          {
            "coding": [
              {
                "code": "problem-list-item",
                "system": "http://terminology.hl7.org/CodeSystem/condition-category",
                "display": "Problem List Item"
              }
            ]
          }
        ],
        "code": {
          "coding": [
            {
              "code": "195662009",
              "system": "http://snomed.info/sct",
              "display": "Acute viral pharyngitis (disorder)"
            }
          ],
          "text": "Acute viral pharyngitis"
        },
        "text": {
          "status": "generated",
          "div": "<div xmlns=\"http://www.w3.org/1999/xhtml\"><table class=\"hl7__ips\"><tr><td><span class=\"grayedout\">Acute viral pharyngitis</span></td><td><span class=\"nb\">19-May-2020 - 01-Jun-2020</span></td><td><span class=\"grayedout\">inactive</span></td></tr></table></div>"
        },
        "onsetDateTime": "2020-05-19",
        "abatementDateTime": "2020-06-01",
        "subject": {
          "reference": "urn:uuid:",
          "display": "Louise Köster"
        },
        "asserter": {
          "reference": "urn:uuid:",
          "display": "Klinik am schönen Moos"
        }
      }
    },
    {
      "fullUrl": "urn:uuid:8548141f-8214-4fb8-b7f5-66ec7fa9cfd4",
      "resource": {
        "resourceType": "Condition",
        "id": "8548141f-8214-4fb8-b7f5-66ec7fa9cfd4",
        "meta": {
          "profile": [
            "http://hl7.org/fhir/uv/ips/StructureDefinition/Condition-uv-ips"
          ]
        },
        "category": [
          {
            "coding": [
              {
                "code": "problem-list-item",
                "system": "http://terminology.hl7.org/CodeSystem/condition-category",
                "display": "Problem List Item"
              }
            ]
          }
        ],
        "code": {
          "coding": [
            {
              "code": "125605004",
              "system": "http://snomed.info/sct",
              "display": "Fracture of bone (disorder)"
            }
          ],
          "text": "Fracture of bone"
        },
        "text": {
          "status": "generated",
          "div": "<div xmlns=\"http://www.w3.org/1999/xhtml\"><table class=\"hl7__ips\"><tr><td><span class=\"grayedout\">Fracture of bone</span></td><td><span class=\"nb\">18-Aug-2016 - 11-Oct-2016</span></td><td><span class=\"grayedout\">inactive</span></td></tr></table></div>"
        },
        "onsetDateTime": "2016-08-18",
        "abatementDateTime": "2016-10-11",
        "subject": {
          "reference": "urn:uuid:",
          "display": "Louise Köster"
        },
        "asserter": {
          "reference": "urn:uuid:",
          "display": "Klinik am schönen Moos"
        }
      }
    },
    {
      "fullUrl": "urn:uuid:ccb610fc-6f27-4a15-b6d2-25d711c31e8b",
      "resource": {
        "resourceType": "Condition",
        "id": "ccb610fc-6f27-4a15-b6d2-25d711c31e8b",
        "meta": {
          "profile": [
            "http://hl7.org/fhir/uv/ips/StructureDefinition/Condition-uv-ips"
          ]
        },
        "category": [
          {
            "coding": [
              {
                "code": "problem-list-item",
                "system": "http://terminology.hl7.org/CodeSystem/condition-category",
                "display": "Problem List Item"
              }
            ]
          }
        ],
        "code": {
          "coding": [
            {
              "code": "359817006",
              "system": "http://snomed.info/sct",
              "display": "Closed fracture of hip (disorder)"
            }
          ],
          "text": "Closed fracture of hip"
        },
        "text": {
          "status": "generated",
          "div": "<div xmlns=\"http://www.w3.org/1999/xhtml\"><table class=\"hl7__ips\"><tr><td><span class=\"grayedout\">Closed fracture of hip</span></td><td><span class=\"nb\">18-Aug-2016 - 11-Oct-2016</span></td><td><span class=\"grayedout\">inactive</span></td></tr></table></div>"
        },
        "onsetDateTime": "2016-08-18",
        "abatementDateTime": "2016-10-11",
        "subject": {
          "reference": "urn:uuid:",
          "display": "Louise Köster"
        },
        "asserter": {
          "reference": "urn:uuid:",
          "display": "Klinik am schönen Moos"
        }
      }
    },
    {
      "fullUrl": "urn:uuid:d825874f-be9d-44f9-89d4-c309568f5eca",
      "resource": {
        "resourceType": "Medication",
        "id": "d825874f-be9d-44f9-89d4-c309568f5eca",
        "meta": {
          "profile": [
            "http://hl7.eu/fhir/eps/StructureDefinition/Medication-eu-eps"
          ]
        },
        "code": {
          "coding": [
            {
              "code": "1153431000",
              "system": "http://snomed.info/sct",
              "display": "Amlodipine (as amlodipine besylate) 2.5 mg oral tablet"
            }
          ],
          "text": "Amlodipine (as amlodipine besylate) 2.5 mg oral tablet"
        },
        "text": {
          "status": "generated",
          "div": "<div xmlns=\"http://www.w3.org/1999/xhtml\">Amlodipine (as amlodipine besylate) 2.5 mg oral tablet</div>"
        }
      }
    },
    {
      "fullUrl": "urn:uuid:e555856f-ba68-4f4f-b429-836741228c72",
      "resource": {
        "resourceType": "MedicationStatement",
        "id": "e555856f-ba68-4f4f-b429-836741228c72",
        "meta": {
          "profile": [
            "http://hl7.eu/fhir/eps/StructureDefinition/MedicationStatement-eu-eps"
          ]
        },
        "effectivePeriod": {
          "start": "2024-12-10"
        },
        "dosage": [
          {
            "doseAndRate": [
              {
                "doseQuantity": {
                  "value": 1,
                  "unit": "{tbl}",
                  "code": "{tbl}"
                }
              }
            ],
            "timing": {
              "repeat": {
                "frequency": 1,
                "period": 1,
                "periodUnit": "d"
              }
            },
            "text": "1 tablet (2.5 mg) by mouth once daily",
            "asNeededBoolean": false
          }
        ],
        "reasonCode": [
          {
            "coding": [
              {
                "code": "59621000",
                "system": "http://snomed.info/sct",
                "display": "Essential hypertension (disorder)"
              }
            ]
          }
        ],
        "text": {
          "status": "generated",
          "div": "<div xmlns=\"http://www.w3.org/1999/xhtml\"><table class=\"hl7__ips first25\"><tr><th>Medication</th><th>Since</th><th>Form</th><th>Dosage</th><th>Reason</th></tr><tr><td>Amlodipine (as amlodipine besylate) 2.5 mg oral tablet</td><td><span class=\"nb\">2024-12-10</span></td><td>-</td><td>1 tablet (2.5 mg) by mouth once daily</td><td>Essential hypertension (disorder)</td></tr></table></div>"
        },
        "status": "active",
        "medicationReference": {
          "reference": "urn:uuid:d825874f-be9d-44f9-89d4-c309568f5eca",
          "display": "Amlodipine (as amlodipine besylate) 2.5 mg oral tablet"
        },
        "subject": {
          "reference": "urn:uuid:e8c3437b-68ee-4397-a09e-489c548f2f9f",
          "display": "Louise Köster"
        }
      }
    },
    {
      "fullUrl": "urn:uuid:dec4019c-6c24-4bec-b5fc-14550b8ccc96",
      "resource": {
        "resourceType": "Medication",
        "id": "dec4019c-6c24-4bec-b5fc-14550b8ccc96",
        "meta": {
          "profile": [
            "http://hl7.eu/fhir/eps/StructureDefinition/Medication-eu-eps"
          ]
        },
        "code": {
          "coding": [
            {
              "code": "376209006",
              "system": "http://snomed.info/sct",
              "display": "Hydrochlorothiazide 25 mg oral tablet"
            }
          ],
          "text": "Hydrochlorothiazide 25 mg oral tablet"
        },
        "text": {
          "status": "generated",
          "div": "<div xmlns=\"http://www.w3.org/1999/xhtml\">Hydrochlorothiazide 25 mg oral tablet</div>"
        }
      }
    },
    {
      "fullUrl": "urn:uuid:edb2d11b-f931-46fe-ad9e-5742843db96e",
      "resource": {
        "resourceType": "MedicationStatement",
        "id": "edb2d11b-f931-46fe-ad9e-5742843db96e",
        "meta": {
          "profile": [
            "http://hl7.eu/fhir/eps/StructureDefinition/MedicationStatement-eu-eps"
          ]
        },
        "effectivePeriod": {
          "start": "2024-12-10"
        },
        "dosage": [
          {
            "doseAndRate": [
              {
                "doseQuantity": {
                  "value": 1,
                  "unit": "{tbl}",
                  "code": "{tbl}"
                }
              }
            ],
            "timing": {
              "repeat": {
                "frequency": 1,
                "period": 1,
                "periodUnit": "d"
              }
            },
            "text": "1 tablet (25 mg) by mouth once daily",
            "asNeededBoolean": false
          }
        ],
        "reasonCode": [
          {
            "coding": [
              {
                "code": "59621000",
                "system": "http://snomed.info/sct",
                "display": "Essential hypertension (disorder)"
              }
            ]
          }
        ],
        "text": {
          "status": "generated",
          "div": "<div xmlns=\"http://www.w3.org/1999/xhtml\"><table class=\"hl7__ips first25\"><tr><th>Medication</th><th>Since</th><th>Form</th><th>Dosage</th><th>Reason</th></tr><tr><td>Hydrochlorothiazide 25 mg oral tablet</td><td><span class=\"nb\">2024-12-10</span></td><td>-</td><td>1 tablet (25 mg) by mouth once daily</td><td>Essential hypertension (disorder)</td></tr></table></div>"
        },
        "status": "active",
        "medicationReference": {
          "reference": "urn:uuid:dec4019c-6c24-4bec-b5fc-14550b8ccc96",
          "display": "Hydrochlorothiazide 25 mg oral tablet"
        },
        "subject": {
          "reference": "urn:uuid:e8c3437b-68ee-4397-a09e-489c548f2f9f",
          "display": "Louise Köster"
        }
      }
    },
    {
      "fullUrl": "urn:uuid:c7e2ef08-b1b7-4960-af8a-928b1ddf7182",
      "resource": {
        "resourceType": "Medication",
        "id": "c7e2ef08-b1b7-4960-af8a-928b1ddf7182",
        "meta": {
          "profile": [
            "http://hl7.eu/fhir/eps/StructureDefinition/Medication-eu-eps"
          ]
        },
        "code": {
          "coding": [
            {
              "code": "318859000",
              "system": "http://snomed.info/sct",
              "display": "Lisinopril 10 mg oral tablet"
            }
          ],
          "text": "Lisinopril 10 mg oral tablet"
        },
        "text": {
          "status": "generated",
          "div": "<div xmlns=\"http://www.w3.org/1999/xhtml\">Lisinopril 10 mg oral tablet</div>"
        }
      }
    },
    {
      "fullUrl": "urn:uuid:11a49f6e-6347-4498-adea-8cfd995d158d",
      "resource": {
        "resourceType": "MedicationStatement",
        "id": "11a49f6e-6347-4498-adea-8cfd995d158d",
        "meta": {
          "profile": [
            "http://hl7.eu/fhir/eps/StructureDefinition/MedicationStatement-eu-eps"
          ]
        },
        "effectivePeriod": {
          "start": "2024-12-10"
        },
        "dosage": [
          {
            "doseAndRate": [
              {
                "doseQuantity": {
                  "value": 1,
                  "unit": "{tbl}",
                  "code": "{tbl}"
                }
              }
            ],
            "timing": {
              "repeat": {
                "frequency": 1,
                "period": 1,
                "periodUnit": "d"
              }
            },
            "text": "1 tablet (10 mg) by mouth once daily",
            "asNeededBoolean": false
          }
        ],
        "reasonCode": [
          {
            "coding": [
              {
                "code": "59621000",
                "system": "http://snomed.info/sct",
                "display": "Essential hypertension (disorder)"
              }
            ]
          }
        ],
        "text": {
          "status": "generated",
          "div": "<div xmlns=\"http://www.w3.org/1999/xhtml\"><table class=\"hl7__ips first25\"><tr><th>Medication</th><th>Since</th><th>Form</th><th>Dosage</th><th>Reason</th></tr><tr><td>Lisinopril 10 mg oral tablet</td><td><span class=\"nb\">2024-12-10</span></td><td>-</td><td>1 tablet (10 mg) by mouth once daily</td><td>Essential hypertension (disorder)</td></tr></table></div>"
        },
        "status": "active",
        "medicationReference": {
          "reference": "urn:uuid:c7e2ef08-b1b7-4960-af8a-928b1ddf7182",
          "display": "Lisinopril 10 mg oral tablet"
        },
        "subject": {
          "reference": "urn:uuid:e8c3437b-68ee-4397-a09e-489c548f2f9f",
          "display": "Louise Köster"
        }
      }
    },
    {
      "fullUrl": "urn:uuid:8947df7f-a57c-4916-909c-d36691b7d057",
      "resource": {
        "resourceType": "Medication",
        "id": "8947df7f-a57c-4916-909c-d36691b7d057",
        "meta": {
          "profile": [
            "http://hl7.eu/fhir/eps/StructureDefinition/Medication-eu-eps"
          ]
        },
        "code": {
          "coding": [
            {
              "code": "783586007",
              "system": "http://snomed.info/sct",
              "display": "Clopidogrel (as clopidogrel bisulfate) 75 mg oral tablet"
            }
          ],
          "text": "Clopidogrel (as clopidogrel bisulfate) 75 mg oral tablet"
        },
        "text": {
          "status": "generated",
          "div": "<div xmlns=\"http://www.w3.org/1999/xhtml\">Clopidogrel (as clopidogrel bisulfate) 75 mg oral tablet</div>"
        }
      }
    },
    {
      "fullUrl": "urn:uuid:f14f0481-b214-4d51-b2b2-eaa9003cfccb",
      "resource": {
        "resourceType": "MedicationStatement",
        "id": "f14f0481-b214-4d51-b2b2-eaa9003cfccb",
        "meta": {
          "profile": [
            "http://hl7.eu/fhir/eps/StructureDefinition/MedicationStatement-eu-eps"
          ]
        },
        "effectivePeriod": {
          "start": "1997-07-15"
        },
        "dosage": [
          {
            "doseAndRate": [
              {
                "doseQuantity": {
                  "value": 1,
                  "unit": "{tbl}",
                  "code": "{tbl}"
                }
              }
            ],
            "timing": {
              "repeat": {
                "frequency": 1,
                "period": 1,
                "periodUnit": "d"
              }
            },
            "text": "1 tablet (75 mg) once daily",
            "asNeededBoolean": false
          }
        ],
        "text": {
          "status": "generated",
          "div": "<div xmlns=\"http://www.w3.org/1999/xhtml\"><table class=\"hl7__ips first25\"><tr><th>Medication</th><th>Since</th><th>Form</th><th>Dosage</th><th>Reason</th></tr><tr><td>Clopidogrel (as clopidogrel bisulfate) 75 mg oral tablet</td><td><span class=\"nb\">1997-07-15</span></td><td>-</td><td>1 tablet (75 mg) once daily</td><td>-</td></tr></table></div>"
        },
        "status": "active",
        "medicationReference": {
          "reference": "urn:uuid:8947df7f-a57c-4916-909c-d36691b7d057",
          "display": "Clopidogrel (as clopidogrel bisulfate) 75 mg oral tablet"
        },
        "subject": {
          "reference": "urn:uuid:e8c3437b-68ee-4397-a09e-489c548f2f9f",
          "display": "Louise Köster"
        }
      }
    },
    {
      "fullUrl": "urn:uuid:4fb27c82-eb77-4755-bc44-03e0c91b707f",
      "resource": {
        "resourceType": "Medication",
        "id": "4fb27c82-eb77-4755-bc44-03e0c91b707f",
        "meta": {
          "profile": [
            "http://hl7.eu/fhir/eps/StructureDefinition/Medication-eu-eps"
          ]
        },
        "code": {
          "coding": [
            {
              "code": "319997009",
              "system": "http://snomed.info/sct",
              "display": "Simvastatin 20 mg oral tablet"
            }
          ],
          "text": "Simvastatin 20 mg oral tablet"
        },
        "text": {
          "status": "generated",
          "div": "<div xmlns=\"http://www.w3.org/1999/xhtml\">Simvastatin 20 mg oral tablet</div>"
        }
      }
    },
    {
      "fullUrl": "urn:uuid:6b448aba-e32b-460f-8490-7967cfef8c26",
      "resource": {
        "resourceType": "MedicationStatement",
        "id": "6b448aba-e32b-460f-8490-7967cfef8c26",
        "meta": {
          "profile": [
            "http://hl7.eu/fhir/eps/StructureDefinition/MedicationStatement-eu-eps"
          ]
        },
        "effectivePeriod": {
          "start": "1997-07-15"
        },
        "dosage": [
          {
            "doseAndRate": [
              {
                "doseQuantity": {
                  "value": 1,
                  "unit": "{tbl}",
                  "code": "{tbl}"
                }
              }
            ],
            "timing": {
              "repeat": {
                "frequency": 1,
                "period": 1,
                "periodUnit": "d"
              }
            },
            "text": "1 tablet (20 mg) by mouth once daily",
            "asNeededBoolean": false
          }
        ],
        "text": {
          "status": "generated",
          "div": "<div xmlns=\"http://www.w3.org/1999/xhtml\"><table class=\"hl7__ips first25\"><tr><th>Medication</th><th>Since</th><th>Form</th><th>Dosage</th><th>Reason</th></tr><tr><td>Simvastatin 20 mg oral tablet</td><td><span class=\"nb\">1997-07-15</span></td><td>-</td><td>1 tablet (20 mg) by mouth once daily</td><td>-</td></tr></table></div>"
        },
        "status": "active",
        "medicationReference": {
          "reference": "urn:uuid:4fb27c82-eb77-4755-bc44-03e0c91b707f",
          "display": "Simvastatin 20 mg oral tablet"
        },
        "subject": {
          "reference": "urn:uuid:e8c3437b-68ee-4397-a09e-489c548f2f9f",
          "display": "Louise Köster"
        }
      }
    },
    {
      "fullUrl": "urn:uuid:b6b7a58c-298a-4cc4-98fa-a3411b301119",
      "resource": {
        "resourceType": "Medication",
        "id": "b6b7a58c-298a-4cc4-98fa-a3411b301119",
        "meta": {
          "profile": [
            "http://hl7.eu/fhir/eps/StructureDefinition/Medication-eu-eps"
          ]
        },
        "code": {
          "coding": [
            {
              "code": "425176000",
              "system": "http://snomed.info/sct",
              "display": "Nitroglycerin 400 microgram/actuation sublingual spray"
            }
          ],
          "text": "Nitroglycerin 400 microgram/actuation sublingual spray"
        },
        "text": {
          "status": "generated",
          "div": "<div xmlns=\"http://www.w3.org/1999/xhtml\">Nitroglycerin 400 microgram/actuation sublingual spray</div>"
        }
      }
    },
    {
      "fullUrl": "urn:uuid:17f7d176-37c2-42d9-8d1a-f05a5aee2063",
      "resource": {
        "resourceType": "MedicationStatement",
        "id": "17f7d176-37c2-42d9-8d1a-f05a5aee2063",
        "meta": {
          "profile": [
            "http://hl7.eu/fhir/eps/StructureDefinition/MedicationStatement-eu-eps"
          ]
        },
        "effectivePeriod": {
          "start": "1997-07-15"
        },
        "dosage": [
          {
            "doseAndRate": [
              {
                "doseQuantity": {
                  "value": 400,
                  "unit": "microgram",
                  "code": "ug"
                }
              }
            ],
            "timing": {
              "repeat": {
                "frequency": 1,
                "period": 5,
                "periodUnit": "min"
              }
            },
            "text": "400 micrograms per spray, use one spray under the tongue as needed for chest pain, repeat every 5 minutes if needed, up to 3 sprays in 15 minutes",
            "asNeededBoolean": true
          }
        ],
        "text": {
          "status": "generated",
          "div": "<div xmlns=\"http://www.w3.org/1999/xhtml\"><table class=\"hl7__ips first25\"><tr><th>Medication</th><th>Since</th><th>Form</th><th>Dosage</th><th>Reason</th></tr><tr><td>Nitroglycerin 400 microgram/actuation sublingual spray</td><td><span class=\"nb\">1997-07-15</span></td><td>-</td><td>400 micrograms per spray, use one spray under the tongue as needed for chest pain, repeat every 5 minutes if needed, up to 3 sprays in 15 minutes</td><td>-</td></tr></table></div>"
        },
        "status": "active",
        "medicationReference": {
          "reference": "urn:uuid:b6b7a58c-298a-4cc4-98fa-a3411b301119",
          "display": "Nitroglycerin 400 microgram/actuation sublingual spray"
        },
        "subject": {
          "reference": "urn:uuid:e8c3437b-68ee-4397-a09e-489c548f2f9f",
          "display": "Louise Köster"
        }
      }
    },
    {
      "fullUrl": "urn:uuid:32814bae-5366-43af-87ab-514e17cef654",
      "resource": {
        "resourceType": "Medication",
        "id": "32814bae-5366-43af-87ab-514e17cef654",
        "meta": {
          "profile": [
            "http://hl7.eu/fhir/eps/StructureDefinition/Medication-eu-eps"
          ]
        },
        "code": {
          "coding": [
            {
              "code": "879980009",
              "system": "http://snomed.info/sct",
              "display": "Metoprolol tartrate (as metoprolol succinate) 100 mg prolonged-release oral tablet"
            }
          ],
          "text": "Metoprolol tartrate (as metoprolol succinate) 100 mg prolonged-release oral tablet"
        },
        "text": {
          "status": "generated",
          "div": "<div xmlns=\"http://www.w3.org/1999/xhtml\">Metoprolol tartrate (as metoprolol succinate) 100 mg prolonged-release oral tablet</div>"
        }
      }
    },
    {
      "fullUrl": "urn:uuid:c0532bfc-7265-462b-b7d7-94b9d84b22fa",
      "resource": {
        "resourceType": "MedicationStatement",
        "id": "c0532bfc-7265-462b-b7d7-94b9d84b22fa",
        "meta": {
          "profile": [
            "http://hl7.eu/fhir/eps/StructureDefinition/MedicationStatement-eu-eps"
          ]
        },
        "effectivePeriod": {
          "start": "1997-07-15"
        },
        "dosage": [
          {
            "doseAndRate": [
              {
                "doseQuantity": {
                  "value": 1,
                  "unit": "{tbl}",
                  "code": "{tbl}"
                }
              }
            ],
            "timing": {
              "repeat": {
                "frequency": 1,
                "period": 1,
                "periodUnit": "d"
              }
            },
            "text": "1 tablet (100 mg) once daily",
            "asNeededBoolean": false
          }
        ],
        "text": {
          "status": "generated",
          "div": "<div xmlns=\"http://www.w3.org/1999/xhtml\"><table class=\"hl7__ips first25\"><tr><th>Medication</th><th>Since</th><th>Form</th><th>Dosage</th><th>Reason</th></tr><tr><td>Metoprolol tartrate (as metoprolol succinate) 100 mg prolonged-release oral tablet</td><td><span class=\"nb\">1997-07-15</span></td><td>-</td><td>1 tablet (100 mg) once daily</td><td>-</td></tr></table></div>"
        },
        "status": "active",
        "medicationReference": {
          "reference": "urn:uuid:32814bae-5366-43af-87ab-514e17cef654",
          "display": "Metoprolol tartrate (as metoprolol succinate) 100 mg prolonged-release oral tablet"
        },
        "subject": {
          "reference": "urn:uuid:e8c3437b-68ee-4397-a09e-489c548f2f9f",
          "display": "Louise Köster"
        }
      }
    },
    {
      "fullUrl": "urn:uuid:4485b083-7ce0-410c-adaa-26ac2e70a84d",
      "resource": {
        "resourceType": "Immunization",
        "id": "4485b083-7ce0-410c-adaa-26ac2e70a84d",
        "meta": {
          "profile": [
            "http://hl7.org/fhir/uv/ips/StructureDefinition/Immunization-uv-ips"
          ]
        },
        "vaccineCode": {
          "coding": [
            {
              "code": "1181000221105",
              "system": "http://snomed.info/sct",
              "display": "Vaccine product containing Influenza virus antigen"
            },
            {
              "code": "J07BB02",
              "system": "http://www.whocc.no/atc",
              "display": "Influenza, inactivated, split virus"
            }
          ],
          "text": "Influenza virus antigen only vaccine product"
        },
        "site": {
          "coding": [
            {
              "code": "244979005",
              "system": "http://snomed.info/sct",
              "display": "Entire muscle of upper arm"
            }
          ],
          "text": "Entire muscle of upper arm"
        },
        "route": {
          "coding": [
            {
              "code": "78421000",
              "system": "http://snomed.info/sct",
              "display": "Intramuscular route"
            }
          ],
          "text": "Intramuscular route"
        },
        "text": {
          "status": "generated",
          "div": "<div xmlns=\"http://www.w3.org/1999/xhtml\"><table class=\"hl7__ips\"><tr><td>Influenza virus antigen only vaccine product</td><td><span class=\"nb\">10-Dec-2024</span></td></tr></table></div>"
        },
        "status": "completed",
        "patient": {
          "reference": "urn:uuid:e8c3437b-68ee-4397-a09e-489c548f2f9f",
          "display": "Louise Köster"
        },
        "occurrenceDateTime": "2024-12-10",
        "lotNumber": "HW-5N5Tnybz",
        "expirationDate": "2025-05-28"
      }
    },
    {
      "fullUrl": "urn:uuid:7dd0bb38-9d02-4d73-a38c-757c7f6c4eed",
      "resource": {
        "resourceType": "Immunization",
        "id": "7dd0bb38-9d02-4d73-a38c-757c7f6c4eed",
        "meta": {
          "profile": [
            "http://hl7.org/fhir/uv/ips/StructureDefinition/Immunization-uv-ips"
          ]
        },
        "vaccineCode": {
          "coding": [
            {
              "code": "1252709000",
              "system": "http://snomed.info/sct",
              "display": "Vaccine product containing Streptococcus pneumoniae capsular polysaccharide antigens conjugated"
            },
            {
              "code": "J07AL01",
              "system": "http://www.whocc.no/atc",
              "display": "Pneumococcal polysaccharide vaccines"
            }
          ],
          "text": "Streptococcus pneumoniae Danish serotype 1"
        },
        "site": {
          "coding": [
            {
              "code": "244979005",
              "system": "http://snomed.info/sct",
              "display": "Entire muscle of upper arm"
            }
          ],
          "text": "Entire muscle of upper arm"
        },
        "route": {
          "coding": [
            {
              "code": "78421000",
              "system": "http://snomed.info/sct",
              "display": "Intramuscular route"
            }
          ],
          "text": "Intramuscular route"
        },
        "text": {
          "status": "generated",
          "div": "<div xmlns=\"http://www.w3.org/1999/xhtml\"><table class=\"hl7__ips\"><tr><td>Streptococcus pneumoniae Danish serotype 1</td><td><span class=\"nb\">29-Nov-2022</span></td></tr></table></div>"
        },
        "status": "completed",
        "patient": {
          "reference": "urn:uuid:e8c3437b-68ee-4397-a09e-489c548f2f9f",
          "display": "Louise Köster"
        },
        "occurrenceDateTime": "2022-11-29",
        "lotNumber": "PM-KalRSV",
        "expirationDate": "2023-03-11"
      }
    },
    {
      "fullUrl": "urn:uuid:23599385-2321-452d-99f0-a43bcb597cab",
      "resource": {
        "resourceType": "Immunization",
        "id": "23599385-2321-452d-99f0-a43bcb597cab",
        "meta": {
          "profile": [
            "http://hl7.org/fhir/uv/ips/StructureDefinition/Immunization-uv-ips"
          ]
        },
        "vaccineCode": {
          "coding": [
            {
              "code": "51451000087105",
              "system": "http://snomed.info/sct",
              "display": "Vaccine product containing Streptococcus pneumoniae capsular polysaccharide antigens conjugated"
            },
            {
              "code": "J07AL02",
              "system": "http://www.whocc.no/atc",
              "display": "Pneumococcal conjugate vaccines"
            }
          ],
          "text": "Streptococcus pneumoniae Danish serotype 1"
        },
        "site": {
          "coding": [
            {
              "code": "244979005",
              "system": "http://snomed.info/sct",
              "display": "Entire muscle of upper arm"
            }
          ],
          "text": "Entire muscle of upper arm"
        },
        "route": {
          "coding": [
            {
              "code": "78421000",
              "system": "http://snomed.info/sct",
              "display": "Intramuscular route"
            }
          ],
          "text": "Intramuscular route"
        },
        "text": {
          "status": "generated",
          "div": "<div xmlns=\"http://www.w3.org/1999/xhtml\"><table class=\"hl7__ips\"><tr><td>Streptococcus pneumoniae Danish serotype 1</td><td><span class=\"nb\">23-Nov-2021</span></td></tr></table></div>"
        },
        "status": "completed",
        "patient": {
          "reference": "urn:uuid:e8c3437b-68ee-4397-a09e-489c548f2f9f",
          "display": "Louise Köster"
        },
        "occurrenceDateTime": "2021-11-23",
        "lotNumber": "YX-JgwcdYT",
        "expirationDate": "2022-09-03"
      }
    },
    {
      "fullUrl": "urn:uuid:6f08b4fe-a136-4121-87e7-2a94e9eb5438",
      "resource": {
        "resourceType": "Immunization",
        "id": "6f08b4fe-a136-4121-87e7-2a94e9eb5438",
        "meta": {
          "profile": [
            "http://hl7.org/fhir/uv/ips/StructureDefinition/Immunization-uv-ips"
          ]
        },
        "vaccineCode": {
          "coding": [
            {
              "code": "1119349007",
              "system": "http://snomed.info/sct",
              "display": "Vaccine product containing SARS-CoV-2 mRNA"
            },
            {
              "code": "J07BX03",
              "system": "http://www.whocc.no/atc",
              "display": "COVID-19 mRNA vaccines"
            }
          ],
          "text": "SARS-CoV-2 mRNA vaccine"
        },
        "site": {
          "coding": [
            {
              "code": "244979005",
              "system": "http://snomed.info/sct",
              "display": "Entire muscle of upper arm"
            }
          ],
          "text": "Entire muscle of upper arm"
        },
        "route": {
          "coding": [
            {
              "code": "78421000",
              "system": "http://snomed.info/sct",
              "display": "Intramuscular route"
            }
          ],
          "text": "Intramuscular route"
        },
        "text": {
          "status": "generated",
          "div": "<div xmlns=\"http://www.w3.org/1999/xhtml\"><table class=\"hl7__ips\"><tr><td>SARS-CoV-2 mRNA vaccine</td><td><span class=\"nb\">13-Apr-2021</span></td></tr></table></div>"
        },
        "status": "completed",
        "patient": {
          "reference": "urn:uuid:e8c3437b-68ee-4397-a09e-489c548f2f9f",
          "display": "Louise Köster"
        },
        "occurrenceDateTime": "2021-04-13",
        "lotNumber": "JZ-fwKJY",
        "expirationDate": "2022-03-20"
      }
    },
    {
      "fullUrl": "urn:uuid:c0a4f131-fea2-4374-b232-2650fd3cc15d",
      "resource": {
        "resourceType": "Immunization",
        "id": "c0a4f131-fea2-4374-b232-2650fd3cc15d",
        "meta": {
          "profile": [
            "http://hl7.org/fhir/uv/ips/StructureDefinition/Immunization-uv-ips"
          ]
        },
        "vaccineCode": {
          "coding": [
            {
              "code": "777725002",
              "system": "http://snomed.info/sct",
              "display": "Vaccine product containing only Clostridium tetani toxoid antigen adsorbed"
            },
            {
              "code": "J07AM51",
              "system": "http://www.whocc.no/atc",
              "display": "Diphtheria-tetanus vaccines, adult type"
            }
          ],
          "text": "Clostridium tetani toxoid antigen adsorbed only vaccine product"
        },
        "site": {
          "coding": [
            {
              "code": "244979005",
              "system": "http://snomed.info/sct",
              "display": "Entire muscle of upper arm"
            }
          ],
          "text": "Entire muscle of upper arm"
        },
        "route": {
          "coding": [
            {
              "code": "78421000",
              "system": "http://snomed.info/sct",
              "display": "Intramuscular route"
            }
          ],
          "text": "Intramuscular route"
        },
        "text": {
          "status": "generated",
          "div": "<div xmlns=\"http://www.w3.org/1999/xhtml\"><table class=\"hl7__ips\"><tr><td>Clostridium tetani toxoid antigen adsorbed only vaccine product</td><td><span class=\"nb\">31-Oct-2017</span></td></tr></table></div>"
        },
        "status": "completed",
        "patient": {
          "reference": "urn:uuid:e8c3437b-68ee-4397-a09e-489c548f2f9f",
          "display": "Louise Köster"
        },
        "occurrenceDateTime": "2017-10-31",
        "lotNumber": "QP-dCuTz",
        "expirationDate": "2018-03-27"
      }
    },
    {
      "fullUrl": "urn:uuid:f244adc1-c681-40f0-8887-b73c4ccc1dc3",
      "resource": {
        "resourceType": "Procedure",
        "id": "f244adc1-c681-40f0-8887-b73c4ccc1dc3",
        "meta": {
          "profile": [
            "http://hl7.org/fhir/uv/ips/StructureDefinition/Procedure-uv-ips"
          ]
        },
        "code": {
          "coding": [
            {
              "code": "268425006",
              "system": "http://snomed.info/sct",
              "display": "Pelvis X-ray"
            }
          ],
          "text": "Pelvis X-ray"
        },
        "text": {
          "status": "generated",
          "div": "<div xmlns=\"http://www.w3.org/1999/xhtml\"><table class=\"hl7__ips\"><tr><td>Pelvis X-ray</td><td><span class=\"nb\">18-Aug-2016</span></td><td>-</td></tr></table></div>"
        },
        "status": "completed",
        "performedDateTime": "2016-08-18",
        "subject": {
          "reference": "urn:uuid:",
          "display": "Louise Köster"
        }
      }
    },
    {
      "fullUrl": "urn:uuid:1c979777-b50b-4a35-883f-27bba398d9c1",
      "resource": {
        "resourceType": "Procedure",
        "id": "1c979777-b50b-4a35-883f-27bba398d9c1",
        "meta": {
          "profile": [
            "http://hl7.org/fhir/uv/ips/StructureDefinition/Procedure-uv-ips"
          ]
        },
        "code": {
          "coding": [
            {
              "code": "305428000",
              "system": "http://snomed.info/sct",
              "display": "Admission to orthopedic department"
            }
          ],
          "text": "Admission to orthopedic department"
        },
        "reasonCode": [
          {
            "coding": [
              {
                "code": "359817006",
                "system": "http://snomed.info/sct",
                "display": "Closed fracture of hip"
              }
            ]
          }
        ],
        "text": {
          "status": "generated",
          "div": "<div xmlns=\"http://www.w3.org/1999/xhtml\"><table class=\"hl7__ips\"><tr><td>Admission to orthopedic department</td><td><span class=\"nb\">18-Aug-2016</span></td><td>Closed fracture of hip</td></tr></table></div>"
        },
        "status": "completed",
        "performedDateTime": "2016-08-18",
        "subject": {
          "reference": "urn:uuid:",
          "display": "Louise Köster"
        }
      }
    },
    {
      "fullUrl": "urn:uuid:1693bd10-1561-453b-9dac-2379a7c01dd1",
      "resource": {
        "resourceType": "Procedure",
        "id": "1693bd10-1561-453b-9dac-2379a7c01dd1",
        "meta": {
          "profile": [
            "http://hl7.org/fhir/uv/ips/StructureDefinition/Procedure-uv-ips"
          ]
        },
        "code": {
          "coding": [
            {
              "code": "312681000",
              "system": "http://snomed.info/sct",
              "display": "Bone density scan (procedure)"
            }
          ],
          "text": "Bone density scan"
        },
        "reasonCode": [
          {
            "coding": [
              {
                "code": "359817006",
                "system": "http://snomed.info/sct",
                "display": "Closed fracture of hip"
              }
            ]
          }
        ],
        "text": {
          "status": "generated",
          "div": "<div xmlns=\"http://www.w3.org/1999/xhtml\"><table class=\"hl7__ips\"><tr><td>Bone density scan</td><td><span class=\"nb\">18-Aug-2016</span></td><td>Closed fracture of hip</td></tr></table></div>"
        },
        "status": "completed",
        "performedDateTime": "2016-08-18",
        "subject": {
          "reference": "urn:uuid:",
          "display": "Louise Köster"
        }
      }
    },
    {
      "fullUrl": "urn:uuid:47a6f0b0-baeb-4989-924c-aa3dd1bc57f8",
      "resource": {
        "resourceType": "AllergyIntolerance",
        "id": "47a6f0b0-baeb-4989-924c-aa3dd1bc57f8",
        "meta": {
          "profile": [
            "http://hl7.eu/fhir/eps/StructureDefinition/allergyIntolerance-eu-eps"
          ]
        },
        "code": {
          "text": ""
        },
        "clinicalStatus": {
          "coding": [
            {
              "code": "active",
              "system": "http://terminology.hl7.org/CodeSystem/allergyintolerance-clinical"
            }
          ]
        },
        "text": {
          "status": "generated",
          "div": "<div xmlns=\"http://www.w3.org/1999/xhtml\"><table class=\"hl7__ips\"><tr><th>Allergy/Intolerance</th><th>Onset Date</th><th>Status</th><th>Type</th><th>Reaction</th></tr><tr><td></td><td>?</td><td>active</td><td>?</td><td></td></tr></table></div>"
        },
        "verificationStatus": {
          "coding": [
            {
              "code": "confirmed",
              "system": "http://terminology.hl7.org/CodeSystem/allergyintolerance-verification"
            }
          ]
        },
        "patient": {
          "reference": "urn:uuid:e8c3437b-68ee-4397-a09e-489c548f2f9f",
          "display": "Louise Köster"
        },
        "_onsetDateTime": {
          "extension": [
            {
              "url": "http://hl7.org/fhir/StructureDefinition/data-absent-reason",
              "valueCode": "unknown"
            }
          ]
        }
      }
    },
    {
      "fullUrl": "urn:uuid:77f0d865-f047-4501-a4e9-6572a18d9873",
      "resource": {
        "resourceType": "CarePlan",
        "id": "77f0d865-f047-4501-a4e9-6572a18d9873",
        "category": [
          {
            "coding": [
              {
                "code": "assess-plan",
                "system": "http://terminology.hl7.org/CodeSystem/care-plan-category",
                "display": "Assessment and Plan"
              }
            ]
          }
        ],
        "activity": [
          {
            "detail": {
              "code": {
                "coding": [
                  {
                    "code": "698360004",
                    "system": "http://snomed.info/sct",
                    "display": "Diabetes self management plan (qualifier value)"
                  }
                ]
              },
              "reasonCode": [
                {
                  "coding": [
                    {
                      "code": "15777000",
                      "system": "http://snomed.info/sct",
                      "display": "Prediabetes"
                    }
                  ]
                }
              ],
              "status": "unknown",
              "description": "Diabetes self management plan",
              "kind": "Appointment"
            }
          }
        ],
        "period": {
          "start": "2006-08-29"
        },
        "goal": [
          {
            "reference": "urn:uuid:1f5bcb0b-66cf-455c-ae1f-d125bfc4e169"
          },
          {
            "reference": "urn:uuid:e9ec5a5c-0de1-42cd-99ac-2756e189e745"
          },
          {
            "reference": "urn:uuid:f3b10392-9cc7-410b-9e9f-44a20b29d368"
          },
          {
            "reference": "urn:uuid:edc2d14b-6965-40a1-89bb-7c5fbff82e79"
          }
        ],
        "text": {
          "status": "generated",
          "div": "<div xmlns=\"http://www.w3.org/1999/xhtml\"><table class=\"hl7__ips first25\"><tr><th>Active Planned Care / Goals</th><th>Start Date</th><th>Reason</th></tr><tr><td>Diabetes self management plan</td><td><span class=\"nb\">29-Aug-2006</span></td><td>Prediabetes</td></tr><tr><td><ul><li>Maintain hemoglobin A1c below 5.7% to reduce risk of diabetes progression.</li><li>Achieve and maintain a 5% reduction in body weight to improve metabolic syndrome and prediabetes.</li><li>Maintain blood pressure below 130/80 mmHg to reduce cardiovascular risk.</li><li>Maintain LDL cholesterol below 100 mg/dL to reduce cardiovascular risk.</li></ul></td><td></td><td></td></tr></table></div>"
        },
        "status": "active",
        "intent": "plan",
        "subject": {
          "reference": "urn:uuid:e8c3437b-68ee-4397-a09e-489c548f2f9f",
          "display": "Louise Köster"
        }
      }
    },
    {
      "fullUrl": "urn:uuid:bc2c660a-ba33-4be7-a2ba-a49e8eedde4c",
      "resource": {
        "resourceType": "CarePlan",
        "id": "bc2c660a-ba33-4be7-a2ba-a49e8eedde4c",
        "category": [
          {
            "coding": [
              {
                "code": "assess-plan",
                "system": "http://terminology.hl7.org/CodeSystem/care-plan-category",
                "display": "Assessment and Plan"
              }
            ]
          }
        ],
        "activity": [
          {
            "detail": {
              "code": {
                "coding": [
                  {
                    "code": "443402002",
                    "system": "http://snomed.info/sct",
                    "display": "Lifestyle education regarding hypertension (procedure)"
                  }
                ]
              },
              "reasonCode": [
                {
                  "coding": [
                    {
                      "code": "59621000",
                      "system": "http://snomed.info/sct",
                      "display": "Essential hypertension (disorder)"
                    }
                  ]
                }
              ],
              "status": "unknown",
              "description": "Lifestyle education regarding hypertension",
              "kind": "Appointment"
            }
          }
        ],
        "period": {
          "start": "1981-04-07"
        },
        "goal": [
          {
            "reference": "urn:uuid:744b5243-492e-4016-abf5-fedb486407d6"
          },
          {
            "reference": "urn:uuid:1e0f9e42-4c56-40dd-8aa0-7da3ca020885"
          },
          {
            "reference": "urn:uuid:42bca086-906f-41c6-af32-a1a9615283a8"
          },
          {
            "reference": "urn:uuid:83503363-de6e-4231-963c-f4771e5fbe63"
          }
        ],
        "text": {
          "status": "generated",
          "div": "<div xmlns=\"http://www.w3.org/1999/xhtml\"><table class=\"hl7__ips first25\"><tr><th>Active Planned Care / Goals</th><th>Start Date</th><th>Reason</th></tr><tr><td>Lifestyle education regarding hypertension</td><td><span class=\"nb\">07-Apr-1981</span></td><td>Essential hypertension (disorder)</td></tr><tr><td><ul><li>Patient will achieve and maintain target blood pressure through lifestyle education and interventions for hypertension.</li><li>Patient will achieve weight reduction as part of lifestyle modification for hypertension management.</li><li>Patient will engage in at least 150 minutes of moderate-intensity physical activity per week to support blood pressure control.</li><li>Patient will reduce dietary sodium intake to recommended levels to support blood pressure control.</li></ul></td><td></td><td></td></tr></table></div>"
        },
        "status": "active",
        "intent": "plan",
        "subject": {
          "reference": "urn:uuid:e8c3437b-68ee-4397-a09e-489c548f2f9f",
          "display": "Louise Köster"
        }
      }
    },
    {
      "fullUrl": "urn:uuid:aea66735-7016-4b8c-808a-1c7c844ae42d",
      "resource": {
        "resourceType": "ImmunizationRecommendation",
        "id": "aea66735-7016-4b8c-808a-1c7c844ae42d",
        "recommendation": [
          {
            "vaccineCode": [
              {
                "coding": [
                  {
                    "code": "1181000221105",
                    "system": "http://snomed.info/sct",
                    "display": "Vaccine product containing only Influenza virus antigen (medicinal product)"
                  }
                ]
              }
            ],
            "dateCriterion": [
              {
                "code": {
                  "coding": [
                    {
                      "code": "30980-7",
                      "system": "http://loinc.org",
                      "display": "Date vaccine due"
                    }
                  ]
                },
                "value": "2025-10-01"
              }
            ],
            "targetDisease": {
              "coding": [
                {
                  "code": "6142004",
                  "system": "http://snomed.info/sct",
                  "display": "Influenza (disorder)"
                }
              ]
            },
            "series": "Annual seasonal influenza vaccination",
            "forecastStatus": {
              "coding": [
                {
                  "code": "due",
                  "system": "http://terminology.hl7.org/CodeSystem/immunization-recommendation-status",
                  "display": "Due"
                }
              ]
            }
          }
        ],
        "text": {
          "status": "generated",
          "div": "<div xmlns=\"http://www.w3.org/1999/xhtml\"><table class=\"hl7__ips\"><tr><td>Vaccine product containing only Influenza virus antigen (medicinal product)</td><td><span class=\"nb\">01-Oct-2025</span></td><td>Annual seasonal influenza vaccination</td></tr></table></div>"
        },
        "date": "2025-10-22",
        "patient": {
          "reference": "urn:uuid:e8c3437b-68ee-4397-a09e-489c548f2f9f",
          "display": "Louise Köster"
        }
      }
    },
    {
      "fullUrl": "urn:uuid:43d71cf5-f260-47cb-8522-cacb08ad4df0",
      "resource": {
        "resourceType": "Observation",
        "id": "43d71cf5-f260-47cb-8522-cacb08ad4df0",
        "meta": {
          "profile": [
            "http://hl7.org/fhir/StructureDefinition/vitalsigns"
          ]
        },
        "category": [
          {
            "coding": [
              {
                "system": "http://terminology.hl7.org/CodeSystem/observation-category",
                "code": "vital-signs",
                "display": "Vital Signs"
              }
            ]
          }
        ],
        "valueQuantity": {
          "value": 162.8,
          "code": "cm",
          "unit": "cm"
        },
        "text": {
          "status": "generated",
          "div": "<div xmlns=\"http://www.w3.org/1999/xhtml\"><table class=\"hl7__ips\"><tr><th>Vital Sign</th><th>Date</th><th>Measurement</th></tr><tr><td>Body Height</td><td>10-Dec-2024</td><td>162.8 cm</td></tr></table></div>"
        },
        "status": "final",
        "code": {
          "coding": [
            {
              "code": "$8302-2",
              "system": "http://loinc.org",
              "display": "Body Height"
            }
          ]
        },
        "subject": {
          "reference": "urn:uuid:e8c3437b-68ee-4397-a09e-489c548f2f9f",
          "display": "Louise Köster"
        },
        "effectiveDateTime": "2024-12-10"
      }
    },
    {
      "fullUrl": "urn:uuid:212cbbb0-49f7-415e-b326-53ae0d759d2f",
      "resource": {
        "resourceType": "Observation",
        "id": "212cbbb0-49f7-415e-b326-53ae0d759d2f",
        "meta": {
          "profile": [
            "http://hl7.org/fhir/StructureDefinition/vitalsigns"
          ]
        },
        "category": [
          {
            "coding": [
              {
                "system": "http://terminology.hl7.org/CodeSystem/observation-category",
                "code": "vital-signs",
                "display": "Vital Signs"
              }
            ]
          }
        ],
        "valueQuantity": {
          "value": 2,
          "code": "{score}",
          "unit": "{score}"
        },
        "text": {
          "status": "generated",
          "div": "<div xmlns=\"http://www.w3.org/1999/xhtml\"><table class=\"hl7__ips\"><tr><th>Vital Sign</th><th>Date</th><th>Measurement</th></tr><tr><td>Pain severity - 0-10 verbal numeric rating [Score] - Reported</td><td>10-Dec-2024</td><td>2 {score}</td></tr></table></div>"
        },
        "status": "final",
        "code": {
          "coding": [
            {
              "code": "$72514-3",
              "system": "http://loinc.org",
              "display": "Pain severity - 0-10 verbal numeric rating [Score] - Reported"
            }
          ]
        },
        "subject": {
          "reference": "urn:uuid:e8c3437b-68ee-4397-a09e-489c548f2f9f",
          "display": "Louise Köster"
        },
        "effectiveDateTime": "2024-12-10"
      }
    },
    {
      "fullUrl": "urn:uuid:cb8fd338-2109-4b4b-bb13-b4ba2e01e361",
      "resource": {
        "resourceType": "Observation",
        "id": "cb8fd338-2109-4b4b-bb13-b4ba2e01e361",
        "meta": {
          "profile": [
            "http://hl7.org/fhir/StructureDefinition/vitalsigns"
          ]
        },
        "category": [
          {
            "coding": [
              {
                "system": "http://terminology.hl7.org/CodeSystem/observation-category",
                "code": "vital-signs",
                "display": "Vital Signs"
              }
            ]
          }
        ],
        "valueQuantity": {
          "value": 81.1,
          "code": "kg",
          "unit": "kg"
        },
        "text": {
          "status": "generated",
          "div": "<div xmlns=\"http://www.w3.org/1999/xhtml\"><table class=\"hl7__ips\"><tr><th>Vital Sign</th><th>Date</th><th>Measurement</th></tr><tr><td>Body Weight</td><td>10-Dec-2024</td><td>81.1 kg</td></tr></table></div>"
        },
        "status": "final",
        "code": {
          "coding": [
            {
              "code": "$29463-7",
              "system": "http://loinc.org",
              "display": "Body Weight"
            }
          ]
        },
        "subject": {
          "reference": "urn:uuid:e8c3437b-68ee-4397-a09e-489c548f2f9f",
          "display": "Louise Köster"
        },
        "effectiveDateTime": "2024-12-10"
      }
    },
    {
      "fullUrl": "urn:uuid:51c0cc2e-3f20-4583-97e8-8ae584d7a548",
      "resource": {
        "resourceType": "Observation",
        "id": "51c0cc2e-3f20-4583-97e8-8ae584d7a548",
        "meta": {
          "profile": [
            "http://hl7.org/fhir/StructureDefinition/vitalsigns"
          ]
        },
        "category": [
          {
            "coding": [
              {
                "system": "http://terminology.hl7.org/CodeSystem/observation-category",
                "code": "vital-signs",
                "display": "Vital Signs"
              }
            ]
          }
        ],
        "valueQuantity": {
          "value": 30.6,
          "code": "kg/m2",
          "unit": "kg/m2"
        },
        "text": {
          "status": "generated",
          "div": "<div xmlns=\"http://www.w3.org/1999/xhtml\"><table class=\"hl7__ips\"><tr><th>Vital Sign</th><th>Date</th><th>Measurement</th></tr><tr><td>Body mass index (BMI) [Ratio]</td><td>10-Dec-2024</td><td>30.6 kg/m2</td></tr></table></div>"
        },
        "status": "final",
        "code": {
          "coding": [
            {
              "code": "$39156-5",
              "system": "http://loinc.org",
              "display": "Body mass index (BMI) [Ratio]"
            }
          ]
        },
        "subject": {
          "reference": "urn:uuid:e8c3437b-68ee-4397-a09e-489c548f2f9f",
          "display": "Louise Köster"
        },
        "effectiveDateTime": "2024-12-10"
      }
    },
    {
      "fullUrl": "urn:uuid:10780262-a7aa-4cd1-a6f7-959e83a99002",
      "resource": {
        "resourceType": "Observation",
        "id": "10780262-a7aa-4cd1-a6f7-959e83a99002",
        "meta": {
          "profile": [
            "http://hl7.org/fhir/StructureDefinition/vitalsigns"
          ]
        },
        "category": [
          {
            "coding": [
              {
                "system": "http://terminology.hl7.org/CodeSystem/observation-category",
                "code": "vital-signs",
                "display": "Vital Signs"
              }
            ]
          }
        ],
        "valueQuantity": {
          "value": 75,
          "code": "mm[Hg]",
          "unit": "mm[Hg]"
        },
        "text": {
          "status": "generated",
          "div": "<div xmlns=\"http://www.w3.org/1999/xhtml\"><table class=\"hl7__ips\"><tr><th>Vital Sign</th><th>Date</th><th>Measurement</th></tr><tr><td>Diastolic Blood Pressure</td><td>10-Dec-2024</td><td>75 mm[Hg]</td></tr></table></div>"
        },
        "status": "final",
        "code": {
          "coding": [
            {
              "code": "$8462-4",
              "system": "http://loinc.org",
              "display": "Diastolic Blood Pressure"
            }
          ]
        },
        "subject": {
          "reference": "urn:uuid:e8c3437b-68ee-4397-a09e-489c548f2f9f",
          "display": "Louise Köster"
        },
        "effectiveDateTime": "2024-12-10"
      }
    },
    {
      "fullUrl": "urn:uuid:64c283d7-705c-4f64-a3d4-0dbb0726d799",
      "resource": {
        "resourceType": "Observation",
        "id": "64c283d7-705c-4f64-a3d4-0dbb0726d799",
        "meta": {
          "profile": [
            "http://hl7.org/fhir/StructureDefinition/vitalsigns"
          ]
        },
        "category": [
          {
            "coding": [
              {
                "system": "http://terminology.hl7.org/CodeSystem/observation-category",
                "code": "vital-signs",
                "display": "Vital Signs"
              }
            ]
          }
        ],
        "valueQuantity": {
          "value": 107,
          "code": "mm[Hg]",
          "unit": "mm[Hg]"
        },
        "text": {
          "status": "generated",
          "div": "<div xmlns=\"http://www.w3.org/1999/xhtml\"><table class=\"hl7__ips\"><tr><th>Vital Sign</th><th>Date</th><th>Measurement</th></tr><tr><td>Systolic Blood Pressure</td><td>10-Dec-2024</td><td>107 mm[Hg]</td></tr></table></div>"
        },
        "status": "final",
        "code": {
          "coding": [
            {
              "code": "$8480-6",
              "system": "http://loinc.org",
              "display": "Systolic Blood Pressure"
            }
          ]
        },
        "subject": {
          "reference": "urn:uuid:e8c3437b-68ee-4397-a09e-489c548f2f9f",
          "display": "Louise Köster"
        },
        "effectiveDateTime": "2024-12-10"
      }
    },
    {
      "fullUrl": "urn:uuid:2eef7ad2-406a-4682-8aa0-7f228f021ca3",
      "resource": {
        "resourceType": "Observation",
        "id": "2eef7ad2-406a-4682-8aa0-7f228f021ca3",
        "meta": {
          "profile": [
            "http://hl7.org/fhir/StructureDefinition/vitalsigns"
          ]
        },
        "category": [
          {
            "coding": [
              {
                "system": "http://terminology.hl7.org/CodeSystem/observation-category",
                "code": "vital-signs",
                "display": "Vital Signs"
              }
            ]
          }
        ],
        "valueQuantity": {
          "value": 92,
          "code": "/min",
          "unit": "/min"
        },
        "text": {
          "status": "generated",
          "div": "<div xmlns=\"http://www.w3.org/1999/xhtml\"><table class=\"hl7__ips\"><tr><th>Vital Sign</th><th>Date</th><th>Measurement</th></tr><tr><td>Heart rate</td><td>10-Dec-2024</td><td>92 /min</td></tr></table></div>"
        },
        "status": "final",
        "code": {
          "coding": [
            {
              "code": "$8867-4",
              "system": "http://loinc.org",
              "display": "Heart rate"
            }
          ]
        },
        "subject": {
          "reference": "urn:uuid:e8c3437b-68ee-4397-a09e-489c548f2f9f",
          "display": "Louise Köster"
        },
        "effectiveDateTime": "2024-12-10"
      }
    },
    {
      "fullUrl": "urn:uuid:f4d62033-dc04-478e-a03b-262e7c54ebb2",
      "resource": {
        "resourceType": "Observation",
        "id": "f4d62033-dc04-478e-a03b-262e7c54ebb2",
        "meta": {
          "profile": [
            "http://hl7.org/fhir/StructureDefinition/vitalsigns"
          ]
        },
        "category": [
          {
            "coding": [
              {
                "system": "http://terminology.hl7.org/CodeSystem/observation-category",
                "code": "vital-signs",
                "display": "Vital Signs"
              }
            ]
          }
        ],
        "valueQuantity": {
          "value": 16,
          "code": "/min",
          "unit": "/min"
        },
        "text": {
          "status": "generated",
          "div": "<div xmlns=\"http://www.w3.org/1999/xhtml\"><table class=\"hl7__ips\"><tr><th>Vital Sign</th><th>Date</th><th>Measurement</th></tr><tr><td>Respiratory rate</td><td>10-Dec-2024</td><td>16 /min</td></tr></table></div>"
        },
        "status": "final",
        "code": {
          "coding": [
            {
              "code": "$9279-1",
              "system": "http://loinc.org",
              "display": "Respiratory rate"
            }
          ]
        },
        "subject": {
          "reference": "urn:uuid:e8c3437b-68ee-4397-a09e-489c548f2f9f",
          "display": "Louise Köster"
        },
        "effectiveDateTime": "2024-12-10"
      }
    },
    {
      "fullUrl": "urn:uuid:d07385e1-5ed5-4f35-ab4a-88ff54ced12f",
      "resource": {
        "resourceType": "Observation",
        "id": "d07385e1-5ed5-4f35-ab4a-88ff54ced12f",
        "meta": {
          "profile": [
            "http://hl7.org/fhir/StructureDefinition/vitalsigns"
          ]
        },
        "category": [
          {
            "coding": [
              {
                "system": "http://terminology.hl7.org/CodeSystem/observation-category",
                "code": "vital-signs",
                "display": "Vital Signs"
              }
            ]
          }
        ],
        "valueQuantity": {
          "value": 162.8,
          "code": "cm",
          "unit": "cm"
        },
        "text": {
          "status": "generated",
          "div": "<div xmlns=\"http://www.w3.org/1999/xhtml\"><table class=\"hl7__ips\"><tr><th>Vital Sign</th><th>Date</th><th>Measurement</th></tr><tr><td>Body Height</td><td>05-Dec-2023</td><td>162.8 cm</td></tr></table></div>"
        },
        "status": "final",
        "code": {
          "coding": [
            {
              "code": "$8302-2",
              "system": "http://loinc.org",
              "display": "Body Height"
            }
          ]
        },
        "subject": {
          "reference": "urn:uuid:e8c3437b-68ee-4397-a09e-489c548f2f9f",
          "display": "Louise Köster"
        },
        "effectiveDateTime": "2023-12-05"
      }
    },
    {
      "fullUrl": "urn:uuid:d17cd4da-68c2-4c05-827b-83096997f2a1",
      "resource": {
        "resourceType": "Observation",
        "id": "d17cd4da-68c2-4c05-827b-83096997f2a1",
        "meta": {
          "profile": [
            "http://hl7.org/fhir/StructureDefinition/vitalsigns"
          ]
        },
        "category": [
          {
            "coding": [
              {
                "system": "http://terminology.hl7.org/CodeSystem/observation-category",
                "code": "vital-signs",
                "display": "Vital Signs"
              }
            ]
          }
        ],
        "valueQuantity": {
          "value": 2,
          "code": "{score}",
          "unit": "{score}"
        },
        "text": {
          "status": "generated",
          "div": "<div xmlns=\"http://www.w3.org/1999/xhtml\"><table class=\"hl7__ips\"><tr><th>Vital Sign</th><th>Date</th><th>Measurement</th></tr><tr><td>Pain severity - 0-10 verbal numeric rating [Score] - Reported</td><td>05-Dec-2023</td><td>2 {score}</td></tr></table></div>"
        },
        "status": "final",
        "code": {
          "coding": [
            {
              "code": "$72514-3",
              "system": "http://loinc.org",
              "display": "Pain severity - 0-10 verbal numeric rating [Score] - Reported"
            }
          ]
        },
        "subject": {
          "reference": "urn:uuid:e8c3437b-68ee-4397-a09e-489c548f2f9f",
          "display": "Louise Köster"
        },
        "effectiveDateTime": "2023-12-05"
      }
    },
    {
      "fullUrl": "urn:uuid:de93ef77-d6b5-484d-94da-140db099fd27",
      "resource": {
        "resourceType": "Observation",
        "id": "de93ef77-d6b5-484d-94da-140db099fd27",
        "meta": {
          "profile": [
            "http://hl7.org/fhir/StructureDefinition/vitalsigns"
          ]
        },
        "category": [
          {
            "coding": [
              {
                "system": "http://terminology.hl7.org/CodeSystem/observation-category",
                "code": "vital-signs",
                "display": "Vital Signs"
              }
            ]
          }
        ],
        "valueQuantity": {
          "value": 81.1,
          "code": "kg",
          "unit": "kg"
        },
        "text": {
          "status": "generated",
          "div": "<div xmlns=\"http://www.w3.org/1999/xhtml\"><table class=\"hl7__ips\"><tr><th>Vital Sign</th><th>Date</th><th>Measurement</th></tr><tr><td>Body Weight</td><td>05-Dec-2023</td><td>81.1 kg</td></tr></table></div>"
        },
        "status": "final",
        "code": {
          "coding": [
            {
              "code": "$29463-7",
              "system": "http://loinc.org",
              "display": "Body Weight"
            }
          ]
        },
        "subject": {
          "reference": "urn:uuid:e8c3437b-68ee-4397-a09e-489c548f2f9f",
          "display": "Louise Köster"
        },
        "effectiveDateTime": "2023-12-05"
      }
    },
    {
      "fullUrl": "urn:uuid:6f8e7674-370c-4b91-9d31-797065e9eb2e",
      "resource": {
        "resourceType": "Observation",
        "id": "6f8e7674-370c-4b91-9d31-797065e9eb2e",
        "meta": {
          "profile": [
            "http://hl7.org/fhir/StructureDefinition/vitalsigns"
          ]
        },
        "category": [
          {
            "coding": [
              {
                "system": "http://terminology.hl7.org/CodeSystem/observation-category",
                "code": "vital-signs",
                "display": "Vital Signs"
              }
            ]
          }
        ],
        "valueQuantity": {
          "value": 30.6,
          "code": "kg/m2",
          "unit": "kg/m2"
        },
        "text": {
          "status": "generated",
          "div": "<div xmlns=\"http://www.w3.org/1999/xhtml\"><table class=\"hl7__ips\"><tr><th>Vital Sign</th><th>Date</th><th>Measurement</th></tr><tr><td>Body mass index (BMI) [Ratio]</td><td>05-Dec-2023</td><td>30.6 kg/m2</td></tr></table></div>"
        },
        "status": "final",
        "code": {
          "coding": [
            {
              "code": "$39156-5",
              "system": "http://loinc.org",
              "display": "Body mass index (BMI) [Ratio]"
            }
          ]
        },
        "subject": {
          "reference": "urn:uuid:e8c3437b-68ee-4397-a09e-489c548f2f9f",
          "display": "Louise Köster"
        },
        "effectiveDateTime": "2023-12-05"
      }
    },
    {
      "fullUrl": "urn:uuid:0963b1bf-7f03-4082-8d03-3669eb1d03c7",
      "resource": {
        "resourceType": "Observation",
        "id": "0963b1bf-7f03-4082-8d03-3669eb1d03c7",
        "meta": {
          "profile": [
            "http://hl7.org/fhir/StructureDefinition/vitalsigns"
          ]
        },
        "category": [
          {
            "coding": [
              {
                "system": "http://terminology.hl7.org/CodeSystem/observation-category",
                "code": "vital-signs",
                "display": "Vital Signs"
              }
            ]
          }
        ],
        "valueQuantity": {
          "value": 76,
          "code": "mm[Hg]",
          "unit": "mm[Hg]"
        },
        "text": {
          "status": "generated",
          "div": "<div xmlns=\"http://www.w3.org/1999/xhtml\"><table class=\"hl7__ips\"><tr><th>Vital Sign</th><th>Date</th><th>Measurement</th></tr><tr><td>Diastolic Blood Pressure</td><td>05-Dec-2023</td><td>76 mm[Hg]</td></tr></table></div>"
        },
        "status": "final",
        "code": {
          "coding": [
            {
              "code": "$8462-4",
              "system": "http://loinc.org",
              "display": "Diastolic Blood Pressure"
            }
          ]
        },
        "subject": {
          "reference": "urn:uuid:e8c3437b-68ee-4397-a09e-489c548f2f9f",
          "display": "Louise Köster"
        },
        "effectiveDateTime": "2023-12-05"
      }
    },
    {
      "fullUrl": "urn:uuid:e44ba3a5-3e70-4ba9-9311-b62d621e227f",
      "resource": {
        "resourceType": "Observation",
        "id": "e44ba3a5-3e70-4ba9-9311-b62d621e227f",
        "meta": {
          "profile": [
            "http://hl7.org/fhir/StructureDefinition/vitalsigns"
          ]
        },
        "category": [
          {
            "coding": [
              {
                "system": "http://terminology.hl7.org/CodeSystem/observation-category",
                "code": "vital-signs",
                "display": "Vital Signs"
              }
            ]
          }
        ],
        "valueQuantity": {
          "value": 111,
          "code": "mm[Hg]",
          "unit": "mm[Hg]"
        },
        "text": {
          "status": "generated",
          "div": "<div xmlns=\"http://www.w3.org/1999/xhtml\"><table class=\"hl7__ips\"><tr><th>Vital Sign</th><th>Date</th><th>Measurement</th></tr><tr><td>Systolic Blood Pressure</td><td>05-Dec-2023</td><td>111 mm[Hg]</td></tr></table></div>"
        },
        "status": "final",
        "code": {
          "coding": [
            {
              "code": "$8480-6",
              "system": "http://loinc.org",
              "display": "Systolic Blood Pressure"
            }
          ]
        },
        "subject": {
          "reference": "urn:uuid:e8c3437b-68ee-4397-a09e-489c548f2f9f",
          "display": "Louise Köster"
        },
        "effectiveDateTime": "2023-12-05"
      }
    },
    {
      "fullUrl": "urn:uuid:200a3a10-c4e3-4d62-9994-2bb2002da1f7",
      "resource": {
        "resourceType": "Observation",
        "id": "200a3a10-c4e3-4d62-9994-2bb2002da1f7",
        "meta": {
          "profile": [
            "http://hl7.org/fhir/StructureDefinition/vitalsigns"
          ]
        },
        "category": [
          {
            "coding": [
              {
                "system": "http://terminology.hl7.org/CodeSystem/observation-category",
                "code": "vital-signs",
                "display": "Vital Signs"
              }
            ]
          }
        ],
        "valueQuantity": {
          "value": 77,
          "code": "/min",
          "unit": "/min"
        },
        "text": {
          "status": "generated",
          "div": "<div xmlns=\"http://www.w3.org/1999/xhtml\"><table class=\"hl7__ips\"><tr><th>Vital Sign</th><th>Date</th><th>Measurement</th></tr><tr><td>Heart rate</td><td>05-Dec-2023</td><td>77 /min</td></tr></table></div>"
        },
        "status": "final",
        "code": {
          "coding": [
            {
              "code": "$8867-4",
              "system": "http://loinc.org",
              "display": "Heart rate"
            }
          ]
        },
        "subject": {
          "reference": "urn:uuid:e8c3437b-68ee-4397-a09e-489c548f2f9f",
          "display": "Louise Köster"
        },
        "effectiveDateTime": "2023-12-05"
      }
    },
    {
      "fullUrl": "urn:uuid:cb2f9ff3-3991-467a-a535-50ffdf521371",
      "resource": {
        "resourceType": "Observation",
        "id": "cb2f9ff3-3991-467a-a535-50ffdf521371",
        "meta": {
          "profile": [
            "http://hl7.org/fhir/StructureDefinition/vitalsigns"
          ]
        },
        "category": [
          {
            "coding": [
              {
                "system": "http://terminology.hl7.org/CodeSystem/observation-category",
                "code": "vital-signs",
                "display": "Vital Signs"
              }
            ]
          }
        ],
        "valueQuantity": {
          "value": 13,
          "code": "/min",
          "unit": "/min"
        },
        "text": {
          "status": "generated",
          "div": "<div xmlns=\"http://www.w3.org/1999/xhtml\"><table class=\"hl7__ips\"><tr><th>Vital Sign</th><th>Date</th><th>Measurement</th></tr><tr><td>Respiratory rate</td><td>05-Dec-2023</td><td>13 /min</td></tr></table></div>"
        },
        "status": "final",
        "code": {
          "coding": [
            {
              "code": "$9279-1",
              "system": "http://loinc.org",
              "display": "Respiratory rate"
            }
          ]
        },
        "subject": {
          "reference": "urn:uuid:e8c3437b-68ee-4397-a09e-489c548f2f9f",
          "display": "Louise Köster"
        },
        "effectiveDateTime": "2023-12-05"
      }
    },
    {
      "fullUrl": "urn:uuid:c1d6f162-5ec4-4a57-b293-c66645efe975",
      "resource": {
        "resourceType": "Observation",
        "id": "c1d6f162-5ec4-4a57-b293-c66645efe975",
        "meta": {
          "profile": [
            "http://hl7.eu/fhir/laboratory/StructureDefinition/Observation-resultslab-eu-lab"
          ]
        },
        "performer": [
          {
            "display": "The Central European Lab"
          }
        ],
        "category": [
          {
            "coding": [
              {
                "system": "http://terminology.hl7.org/CodeSystem/observation-category",
                "code": "laboratory"
              }
            ]
          }
        ],
        "code": {
          "coding": [
            {
              "code": "4548-4",
              "system": "http://loinc.org",
              "display": "Hemoglobin A1c/Hemoglobin.total in Blood"
            }
          ],
          "text": "Hemoglobin A1c/Hemoglobin.total in Blood"
        },
        "valueQuantity": {
          "system": "http://unitsofmeasure.org",
          "value": 5.9,
          "unit": "%",
          "code": "%"
        },
        "referenceRange": [
          {
            "low": {
              "value": 4.5,
              "code": "%",
              "system": "http://unitsofmeasure.org"
            }
          },
          {
            "high": {
              "value": 6.4,
              "code": "%",
              "system": "http://unitsofmeasure.org"
            }
          }
        ],
        "text": {
          "status": "generated",
          "div": "<div xmlns=\"http://www.w3.org/1999/xhtml\"><table class=\"hl7__eu__lab__report\"><tr><th>Test</th><th>10-Dec-2024</th><th>Reference&#xA0;Range</th><th>Unit</th></tr><tr><td>Hemoglobin A1c/Hemoglobin.total in Blood</td><td>5.9</td><td>4.5 - 6.4</td><td></td><td>%</td></tr></table></div>"
        },
        "status": "final",
        "subject": {
          "reference": "urn:uuid:e8c3437b-68ee-4397-a09e-489c548f2f9f",
          "display": "Louise Köster"
        },
        "effectiveDateTime": "2024-12-10T04:02:53Z"
      }
    },
    {
      "fullUrl": "urn:uuid:dd8bb972-897a-4098-96ab-315eca2cf396",
      "resource": {
        "resourceType": "Observation",
        "id": "dd8bb972-897a-4098-96ab-315eca2cf396",
        "meta": {
          "profile": [
            "http://hl7.eu/fhir/laboratory/StructureDefinition/Observation-resultslab-eu-lab"
          ]
        },
        "performer": [
          {
            "display": "The Central European Lab"
          }
        ],
        "category": [
          {
            "coding": [
              {
                "system": "http://terminology.hl7.org/CodeSystem/observation-category",
                "code": "laboratory"
              }
            ]
          }
        ],
        "code": {
          "coding": [
            {
              "code": "2339-0",
              "system": "http://loinc.org",
              "display": "Glucose [Mass/volume] in Blood"
            }
          ],
          "text": "Glucose [Mass/volume] in Blood"
        },
        "valueQuantity": {
          "system": "http://unitsofmeasure.org",
          "value": 72.1,
          "unit": "mg/dL",
          "code": "mg/dL"
        },
        "referenceRange": [
          {
            "low": {
              "value": 70,
              "code": "mg/dL",
              "system": "http://unitsofmeasure.org"
            }
          },
          {
            "high": {
              "value": 140,
              "code": "mg/dL",
              "system": "http://unitsofmeasure.org"
            }
          }
        ],
        "text": {
          "status": "generated",
          "div": "<div xmlns=\"http://www.w3.org/1999/xhtml\"><table class=\"hl7__eu__lab__report\"><tr><th>Test</th><th>10-Dec-2024</th><th>Reference&#xA0;Range</th><th>Unit</th></tr><tr><td>Glucose [Mass/volume] in Blood</td><td>72.1</td><td>70 - 140</td><td></td><td>mg/dL</td></tr></table></div>"
        },
        "status": "final",
        "subject": {
          "reference": "urn:uuid:e8c3437b-68ee-4397-a09e-489c548f2f9f",
          "display": "Louise Köster"
        },
        "effectiveDateTime": "2024-12-10T04:02:53Z"
      }
    },
    {
      "fullUrl": "urn:uuid:0f10fdc6-37d6-4a10-ab08-36c0f5483d60",
      "resource": {
        "resourceType": "Observation",
        "id": "0f10fdc6-37d6-4a10-ab08-36c0f5483d60",
        "meta": {
          "profile": [
            "http://hl7.eu/fhir/laboratory/StructureDefinition/Observation-resultslab-eu-lab"
          ]
        },
        "performer": [
          {
            "display": "The Central European Lab"
          }
        ],
        "category": [
          {
            "coding": [
              {
                "system": "http://terminology.hl7.org/CodeSystem/observation-category",
                "code": "laboratory"
              }
            ]
          }
        ],
        "code": {
          "coding": [
            {
              "code": "6299-2",
              "system": "http://loinc.org",
              "display": "Urea nitrogen [Mass/volume] in Blood"
            }
          ],
          "text": "Urea nitrogen [Mass/volume] in Blood"
        },
        "valueQuantity": {
          "system": "http://unitsofmeasure.org",
          "value": 19.7,
          "unit": "mg/dL",
          "code": "mg/dL"
        },
        "referenceRange": [
          {
            "low": {
              "value": 7,
              "code": "mg/dL",
              "system": "http://unitsofmeasure.org"
            }
          },
          {
            "high": {
              "value": 43,
              "code": "mg/dL",
              "system": "http://unitsofmeasure.org"
            }
          }
        ],
        "text": {
          "status": "generated",
          "div": "<div xmlns=\"http://www.w3.org/1999/xhtml\"><table class=\"hl7__eu__lab__report\"><tr><th>Test</th><th>10-Dec-2024</th><th>Reference&#xA0;Range</th><th>Unit</th></tr><tr><td>Urea nitrogen [Mass/volume] in Blood</td><td>19.7</td><td>7 - 43</td><td></td><td>mg/dL</td></tr></table></div>"
        },
        "status": "final",
        "subject": {
          "reference": "urn:uuid:e8c3437b-68ee-4397-a09e-489c548f2f9f",
          "display": "Louise Köster"
        },
        "effectiveDateTime": "2024-12-10T04:02:53Z"
      }
    },
    {
      "fullUrl": "urn:uuid:2fcfbd58-9e47-44ca-ae71-e37ed38e1a19",
      "resource": {
        "resourceType": "Observation",
        "id": "2fcfbd58-9e47-44ca-ae71-e37ed38e1a19",
        "meta": {
          "profile": [
            "http://hl7.eu/fhir/laboratory/StructureDefinition/Observation-resultslab-eu-lab"
          ]
        },
        "performer": [
          {
            "display": "The Central European Lab"
          }
        ],
        "category": [
          {
            "coding": [
              {
                "system": "http://terminology.hl7.org/CodeSystem/observation-category",
                "code": "laboratory"
              }
            ]
          }
        ],
        "code": {
          "coding": [
            {
              "code": "38483-4",
              "system": "http://loinc.org",
              "display": "Creatinine [Mass/volume] in Blood"
            }
          ],
          "text": "Creatinine [Mass/volume] in Blood"
        },
        "valueQuantity": {
          "system": "http://unitsofmeasure.org",
          "value": 0.7,
          "unit": "mg/dL",
          "code": "mg/dL"
        },
        "referenceRange": [
          {
            "low": {
              "value": 0.7,
              "code": "mg/dL",
              "system": "http://unitsofmeasure.org"
            }
          },
          {
            "high": {
              "value": 1.1,
              "code": "mg/dL",
              "system": "http://unitsofmeasure.org"
            }
          }
        ],
        "text": {
          "status": "generated",
          "div": "<div xmlns=\"http://www.w3.org/1999/xhtml\"><table class=\"hl7__eu__lab__report\"><tr><th>Test</th><th>10-Dec-2024</th><th>Reference&#xA0;Range</th><th>Unit</th></tr><tr><td>Creatinine [Mass/volume] in Blood</td><td>0.7</td><td>0.7 - 1.1</td><td></td><td>mg/dL</td></tr></table></div>"
        },
        "status": "final",
        "subject": {
          "reference": "urn:uuid:e8c3437b-68ee-4397-a09e-489c548f2f9f",
          "display": "Louise Köster"
        },
        "effectiveDateTime": "2024-12-10T04:02:53Z"
      }
    },
    {
      "fullUrl": "urn:uuid:fa7de861-2ddf-4753-b3c8-662f94c1f081",
      "resource": {
        "resourceType": "Observation",
        "id": "fa7de861-2ddf-4753-b3c8-662f94c1f081",
        "meta": {
          "profile": [
            "http://hl7.eu/fhir/laboratory/StructureDefinition/Observation-resultslab-eu-lab"
          ]
        },
        "performer": [
          {
            "display": "The Central European Lab"
          }
        ],
        "category": [
          {
            "coding": [
              {
                "system": "http://terminology.hl7.org/CodeSystem/observation-category",
                "code": "laboratory"
              }
            ]
          }
        ],
        "code": {
          "coding": [
            {
              "code": "49765-1",
              "system": "http://loinc.org",
              "display": "Calcium [Mass/volume] in Blood"
            }
          ],
          "text": "Calcium [Mass/volume] in Blood"
        },
        "valueQuantity": {
          "system": "http://unitsofmeasure.org",
          "value": 9.4,
          "unit": "mg/dL",
          "code": "mg/dL"
        },
        "referenceRange": [
          {
            "low": {
              "value": 8.5,
              "code": "mg/dL",
              "system": "http://unitsofmeasure.org"
            }
          },
          {
            "high": {
              "value": 10.4,
              "code": "mg/dL",
              "system": "http://unitsofmeasure.org"
            }
          }
        ],
        "text": {
          "status": "generated",
          "div": "<div xmlns=\"http://www.w3.org/1999/xhtml\"><table class=\"hl7__eu__lab__report\"><tr><th>Test</th><th>10-Dec-2024</th><th>Reference&#xA0;Range</th><th>Unit</th></tr><tr><td>Calcium [Mass/volume] in Blood</td><td>9.4</td><td>8.5 - 10.4</td><td></td><td>mg/dL</td></tr></table></div>"
        },
        "status": "final",
        "subject": {
          "reference": "urn:uuid:e8c3437b-68ee-4397-a09e-489c548f2f9f",
          "display": "Louise Köster"
        },
        "effectiveDateTime": "2024-12-10T04:02:53Z"
      }
    },
    {
      "fullUrl": "urn:uuid:5872795b-d500-4b15-9a66-e5f2c30260c1",
      "resource": {
        "resourceType": "Observation",
        "id": "5872795b-d500-4b15-9a66-e5f2c30260c1",
        "meta": {
          "profile": [
            "http://hl7.eu/fhir/laboratory/StructureDefinition/Observation-resultslab-eu-lab"
          ]
        },
        "performer": [
          {
            "display": "The Central European Lab"
          }
        ],
        "category": [
          {
            "coding": [
              {
                "system": "http://terminology.hl7.org/CodeSystem/observation-category",
                "code": "laboratory"
              }
            ]
          }
        ],
        "code": {
          "coding": [
            {
              "code": "2947-0",
              "system": "http://loinc.org",
              "display": "Sodium [Moles/volume] in Blood"
            }
          ],
          "text": "Sodium [Moles/volume] in Blood"
        },
        "valueQuantity": {
          "system": "http://unitsofmeasure.org",
          "value": 137.6,
          "unit": "mmol/L",
          "code": "mmol/L"
        },
        "referenceRange": [
          {
            "low": {
              "value": 135,
              "code": "mmol/L",
              "system": "http://unitsofmeasure.org"
            }
          },
          {
            "high": {
              "value": 145,
              "code": "mmol/L",
              "system": "http://unitsofmeasure.org"
            }
          }
        ],
        "text": {
          "status": "generated",
          "div": "<div xmlns=\"http://www.w3.org/1999/xhtml\"><table class=\"hl7__eu__lab__report\"><tr><th>Test</th><th>10-Dec-2024</th><th>Reference&#xA0;Range</th><th>Unit</th></tr><tr><td>Sodium [Moles/volume] in Blood</td><td>137.6</td><td>135 - 145</td><td></td><td>mmol/L</td></tr></table></div>"
        },
        "status": "final",
        "subject": {
          "reference": "urn:uuid:e8c3437b-68ee-4397-a09e-489c548f2f9f",
          "display": "Louise Köster"
        },
        "effectiveDateTime": "2024-12-10T04:02:53Z"
      }
    },
    {
      "fullUrl": "urn:uuid:1841fc33-8ede-49dd-8a7e-5a5ec0d8267a",
      "resource": {
        "resourceType": "Observation",
        "id": "1841fc33-8ede-49dd-8a7e-5a5ec0d8267a",
        "meta": {
          "profile": [
            "http://hl7.eu/fhir/laboratory/StructureDefinition/Observation-resultslab-eu-lab"
          ]
        },
        "performer": [
          {
            "display": "The Central European Lab"
          }
        ],
        "category": [
          {
            "coding": [
              {
                "system": "http://terminology.hl7.org/CodeSystem/observation-category",
                "code": "laboratory"
              }
            ]
          }
        ],
        "code": {
          "coding": [
            {
              "code": "6298-4",
              "system": "http://loinc.org",
              "display": "Potassium [Moles/volume] in Blood"
            }
          ],
          "text": "Potassium [Moles/volume] in Blood"
        },
        "valueQuantity": {
          "system": "http://unitsofmeasure.org",
          "value": 4.3,
          "unit": "mmol/L",
          "code": "mmol/L"
        },
        "referenceRange": [
          {
            "low": {
              "value": 3.5,
              "code": "mmol/L",
              "system": "http://unitsofmeasure.org"
            }
          },
          {
            "high": {
              "value": 5.1,
              "code": "mmol/L",
              "system": "http://unitsofmeasure.org"
            }
          }
        ],
        "text": {
          "status": "generated",
          "div": "<div xmlns=\"http://www.w3.org/1999/xhtml\"><table class=\"hl7__eu__lab__report\"><tr><th>Test</th><th>10-Dec-2024</th><th>Reference&#xA0;Range</th><th>Unit</th></tr><tr><td>Potassium [Moles/volume] in Blood</td><td>4.3</td><td>3.5 - 5.1</td><td></td><td>mmol/L</td></tr></table></div>"
        },
        "status": "final",
        "subject": {
          "reference": "urn:uuid:e8c3437b-68ee-4397-a09e-489c548f2f9f",
          "display": "Louise Köster"
        },
        "effectiveDateTime": "2024-12-10T04:02:53Z"
      }
    },
    {
      "fullUrl": "urn:uuid:b7c4f5e1-99e3-41ad-9a19-1272483abf01",
      "resource": {
        "resourceType": "Observation",
        "id": "b7c4f5e1-99e3-41ad-9a19-1272483abf01",
        "meta": {
          "profile": [
            "http://hl7.eu/fhir/laboratory/StructureDefinition/Observation-resultslab-eu-lab"
          ]
        },
        "performer": [
          {
            "display": "The Central European Lab"
          }
        ],
        "category": [
          {
            "coding": [
              {
                "system": "http://terminology.hl7.org/CodeSystem/observation-category",
                "code": "laboratory"
              }
            ]
          }
        ],
        "code": {
          "coding": [
            {
              "code": "2069-3",
              "system": "http://loinc.org",
              "display": "Chloride [Moles/volume] in Blood"
            }
          ],
          "text": "Chloride [Moles/volume] in Blood"
        },
        "valueQuantity": {
          "system": "http://unitsofmeasure.org",
          "value": 102.2,
          "unit": "mmol/L",
          "code": "mmol/L"
        },
        "referenceRange": [
          {
            "low": {
              "value": 98,
              "code": "mmol/L",
              "system": "http://unitsofmeasure.org"
            }
          },
          {
            "high": {
              "value": 107,
              "code": "mmol/L",
              "system": "http://unitsofmeasure.org"
            }
          }
        ],
        "text": {
          "status": "generated",
          "div": "<div xmlns=\"http://www.w3.org/1999/xhtml\"><table class=\"hl7__eu__lab__report\"><tr><th>Test</th><th>10-Dec-2024</th><th>Reference&#xA0;Range</th><th>Unit</th></tr><tr><td>Chloride [Moles/volume] in Blood</td><td>102.2</td><td>98 - 107</td><td></td><td>mmol/L</td></tr></table></div>"
        },
        "status": "final",
        "subject": {
          "reference": "urn:uuid:e8c3437b-68ee-4397-a09e-489c548f2f9f",
          "display": "Louise Köster"
        },
        "effectiveDateTime": "2024-12-10T04:02:53Z"
      }
    },
    {
      "fullUrl": "urn:uuid:a209672e-0c42-48e2-b824-046fa2d7c99d",
      "resource": {
        "resourceType": "Observation",
        "id": "a209672e-0c42-48e2-b824-046fa2d7c99d",
        "meta": {
          "profile": [
            "http://hl7.eu/fhir/laboratory/StructureDefinition/Observation-resultslab-eu-lab"
          ]
        },
        "performer": [
          {
            "display": "The Central European Lab"
          }
        ],
        "category": [
          {
            "coding": [
              {
                "system": "http://terminology.hl7.org/CodeSystem/observation-category",
                "code": "laboratory"
              }
            ]
          }
        ],
        "code": {
          "coding": [
            {
              "code": "20565-8",
              "system": "http://loinc.org",
              "display": "Carbon dioxide, total [Moles/volume] in Blood"
            }
          ],
          "text": "Carbon dioxide, total [Moles/volume] in Blood"
        },
        "valueQuantity": {
          "system": "http://unitsofmeasure.org",
          "value": 28.4,
          "unit": "mmol/L",
          "code": "mmol/L"
        },
        "referenceRange": [
          {
            "low": {
              "value": 22,
              "code": "mmol/L",
              "system": "http://unitsofmeasure.org"
            }
          },
          {
            "high": {
              "value": 32,
              "code": "mmol/L",
              "system": "http://unitsofmeasure.org"
            }
          }
        ],
        "text": {
          "status": "generated",
          "div": "<div xmlns=\"http://www.w3.org/1999/xhtml\"><table class=\"hl7__eu__lab__report\"><tr><th>Test</th><th>10-Dec-2024</th><th>Reference&#xA0;Range</th><th>Unit</th></tr><tr><td>Carbon dioxide, total [Moles/volume] in Blood</td><td>28.4</td><td>22 - 32</td><td></td><td>mmol/L</td></tr></table></div>"
        },
        "status": "final",
        "subject": {
          "reference": "urn:uuid:e8c3437b-68ee-4397-a09e-489c548f2f9f",
          "display": "Louise Köster"
        },
        "effectiveDateTime": "2024-12-10T04:02:53Z"
      }
    },
    {
      "fullUrl": "urn:uuid:7f891261-bf5f-4f84-8691-eecf3c46eff9",
      "resource": {
        "resourceType": "DeviceUseStatement",
        "id": "7f891261-bf5f-4f84-8691-eecf3c46eff9",
        "meta": {
          "profile": [
            "http://hl7.eu/fhir/eps/StructureDefinition/deviceUseStatement-eu-eps"
          ]
        },
        "timingPeriod": {
          "start": "2006-08-29"
        },
        "text": {
          "status": "generated",
          "div": "<div xmlns=\"http://www.w3.org/1999/xhtml\"><table class=\"hl7__ips\"><tr><td>Blood glucose meter (physical object)</td><td><span class=\"nb\">29-Aug-2006</span></td></tr></table></div>"
        },
        "status": "active",
        "device": {
          "reference": "urn:uuid:b62cc332-29be-4cd4-bb3f-7c50edf9360d",
          "display": "Blood glucose meter (physical object)"
        },
        "subject": {
          "reference": "urn:uuid:e8c3437b-68ee-4397-a09e-489c548f2f9f",
          "display": "Louise Köster"
        }
      }
    },
    {
      "fullUrl": "urn:uuid:b62cc332-29be-4cd4-bb3f-7c50edf9360d",
      "resource": {
        "resourceType": "Device",
        "id": "b62cc332-29be-4cd4-bb3f-7c50edf9360d",
        "meta": {
          "profile": [
            "http://hl7.eu/fhir/eps/StructureDefinition/device-eu-eps"
          ]
        },
        "udiCarrier": [
          {
            "id": "(01)16572565335179(11)060808(17)310823(10)76299(21)682410620989"
          }
        ],
        "status": "active",
        "patient": {
          "reference": "urn:uuid:e8c3437b-68ee-4397-a09e-489c548f2f9f",
          "display": "Louise Köster"
        },
        "type": {
          "coding": [
            {
              "code": "337414009",
              "system": "http://snomed.info/sct",
              "display": "Blood glucose meter (physical object)"
            }
          ]
        }
      }
    },
    {
      "fullUrl": "urn:uuid:e3d41190-a080-4ca3-a24b-cb0987703221",
      "resource": {
        "resourceType": "Device",
        "id": "e3d41190-a080-4ca3-a24b-cb0987703221",
        "deviceName": [
          {
            "name": "SYNDERAI Synthetic Generator",
            "type": "manufacturer-name"
          }
        ],
        "version": [
          {
            "value": "5.0"
          }
        ],
        "text": {
          "status": "generated",
          "div": "<div xmlns=\"http://www.w3.org/1999/xhtml\">SYNDERAI Synthetic Generator v5.0</div>"
        },
        "status": "active\"",
        "distinctIdentifier": "synderai-generator-50",
        "manufacturer": "SYNDERAI Project"
      }
    },
    {
      "fullUrl": "urn:uuid:8212bdab-99a8-4062-a336-b05bef50d58a",
      "resource": {
        "resourceType": "Provenance",
        "id": "8212bdab-99a8-4062-a336-b05bef50d58a",
        "target": [
          {
            "reference": "Patient/e8c3437b-68ee-4397-a09e-489c548f2f9f"
          },
          {
            "reference": "Bundle/02e95e7f-d508-49b1-b97b-35aef6776a66"
          },
          {
            "reference": "Composition/6432ff37-8461-438e-b56d-699a527a65eb"
          },
          {
            "reference": "PractitionerRole/dfb29b01-b9de-4311-bb37-336482ce302c"
          },
          {
            "reference": "Organization/bcf44a85-b3a4-473a-898c-a1dec6bf057d"
          },
          {
            "reference": "Practitioner/8193d368-eccc-4848-8a9d-69740df94d3f"
          }
        ],
        "activity": {
          "text": "Synthetic Example Data Generation"
        },
        "policy": [
          "https://synderai.net/synderai-synthetic-data-policy"
        ],
        "agent": [
          {
            "type": {
              "text": "author"
            },
            "who": {
              "reference": "Device/e3d41190-a080-4ca3-a24b-cb0987703221"
            }
          }
        ],
        "reason": [
          {
            "text": "Interoperability Testing and Training (non-clinical use)"
          }
        ],
        "text": {
          "status": "generated",
          "div": "<div xmlns=\"http://www.w3.org/1999/xhtml\">Provenance for SYNDERAI Synthetic Example Data Resource</div>"
        },
        "recorded": "2024-12-10T04:02:53Z"
      }
    }
  ],
  "type": "document",
  "timestamp": "2024-12-10T04:02:53Z"
}
