{
  "resourceType": "Bundle",
  "id": "63ec5f59-c135-4826-83c7-609e64e62363",
  "meta": {
    "profile": [
      "http://hl7.eu/fhir/eps/StructureDefinition/bundle-eu-eps"
    ]
  },
  "identifier": {
    "assigner": {
      "display": "HL7 Europe"
    },
    "system": "urn:oid:2.16.840.1.113883.2.51.999",
    "value": "35e5116e-3dc7-425a-bda2-b17335c6dfc2"
  },
  "entry": [
    {
      "fullUrl": "urn:uuid:4db4af21-cab5-454a-99f1-05fd2f756697",
      "resource": {
        "resourceType": "Composition",
        "id": "4db4af21-cab5-454a-99f1-05fd2f756697",
        "meta": {
          "security": [
            {
              "system": "http://terminology.hl7.org/CodeSystem/v3-ActReason",
              "code": "HTEST"
            },
            {
              "system": "http://terminology.hl7.org/CodeSystem/v3-ActReason",
              "code": "TRAIN"
            }
          ],
          "tag": [
            {
              "system": "https://synderai.net/fhir/CodeSystem/tags",
              "code": "synthetic",
              "display": "SYNDERAI Synthetic data"
            }
          ],
          "profile": [
            "http://hl7.eu/fhir/eps/StructureDefinition/composition-eu-eps"
          ]
        },
        "identifier": {
          "assigner": {
            "display": "HL7 Europe"
          },
          "system": "urn:oid:2.16.840.1.113883.2.51.999",
          "value": "de6b4b37-6460-4212-a571-bb955d9ec2ad"
        },
        "type": {
          "coding": [
            {
              "system": "http://loinc.org",
              "code": "60591-5",
              "display": "Patient summary Document"
            }
          ],
          "text": "Patient summary Document"
        },
        "author": [
          {
            "reference": "urn:uuid:1143a6d3-55d5-448a-93a9-8ca251cc8237"
          }
        ],
        "section": [
          {
            "text": {
              "status": "generated",
              "div": "<div xmlns=\"http://www.w3.org/1999/xhtml\"><table class=\"hl7__ips\"><tr><td>No known problems or disabilities</td></tr></table></div>"
            },
            "entry": [
              {
                "reference": "urn:uuid:3ca4c2cc-54ec-4e24-835d-4f4c4ddb6390"
              }
            ],
            "code": {
              "coding": [
                {
                  "system": "http://loinc.org",
                  "code": "11450-4",
                  "display": "Problem list - Reported"
                }
              ]
            },
            "title": "Problem list"
          },
          {
            "text": {
              "status": "generated",
              "div": "<div xmlns=\"http://www.w3.org/1999/xhtml\"><table class=\"hl7__ips\"><tr><th>Medication</th><th>Since</th><th>Form</th><th>Dosage</th><th>Reason</th></tr><tr><td>Vitamin B12 5 MG/ML Injectable Solution</td><td><span class=\"nb\">2008-04-02</span></td><td>-</td><td>5 mg (1 mL) by intramuscular injection once weekly</td><td>-</td></tr></table></div>"
            },
            "entry": [
              {
                "reference": "urn:uuid:80997954-397c-4382-a218-e9514d487609"
              }
            ],
            "code": {
              "coding": [
                {
                  "system": "http://loinc.org",
                  "code": "10160-0",
                  "display": "History of Medication use Narrative"
                }
              ]
            },
            "title": "Medication list"
          },
          {
            "text": {
              "status": "generated",
              "div": "<div xmlns=\"http://www.w3.org/1999/xhtml\"><table class=\"hl7__ips\"><tr><th>Vaccine</th><th>Date</th></tr><tr><td>Influenza virus antigen only vaccine product</td><td><span class=\"nb\">07-Aug-2024</span></td></tr><tr><td>Clostridium tetani toxoid antigen adsorbed only vaccine product</td><td><span class=\"nb\">04-Aug-2021</span></td></tr><tr><td>SARS-CoV-2 mRNA vaccine</td><td><span class=\"nb\">09-Jun-2021</span></td></tr></table></div>"
            },
            "entry": [
              {
                "reference": "urn:uuid:43dc9281-8711-4c7f-8a60-b3508714bedf"
              },
              {
                "reference": "urn:uuid:dd735bde-67c0-483c-b519-2cd5abfceeab"
              },
              {
                "reference": "urn:uuid:37d99457-621a-4934-8746-c6cdf7f2aba8"
              }
            ],
            "code": {
              "coding": [
                {
                  "system": "http://loinc.org",
                  "code": "11369-6",
                  "display": "History of Immunization note"
                }
              ]
            },
            "title": "Immunizations list"
          },
          {
            "text": {
              "status": "generated",
              "div": "<div xmlns=\"http://www.w3.org/1999/xhtml\"><table class=\"hl7__ips\"><tr><th>Procedure</th><th>Date</th><th>Reason</th></tr><tr><td>Medical induction of labor</td><td><span class=\"nb\">09-Jul-2025</span></td><td>Normal pregnancy</td></tr><tr><td>Parturition</td><td><span class=\"nb\">09-Jul-2025</span></td><td>Normal pregnancy</td></tr><tr><td>Epidural anesthesia</td><td><span class=\"nb\">09-Aug-2023</span></td><td>Normal pregnancy</td></tr><tr><td>Cesarean section</td><td><span class=\"nb\">30-Jan-2019</span></td><td>Normal pregnancy</td></tr><tr><td>Augmentation of labor</td><td><span class=\"nb\">30-Jan-2019</span></td><td>Normal pregnancy</td></tr></table></div>"
            },
            "entry": [
              {
                "reference": "urn:uuid:3aa45fb3-298e-41c2-92e9-a85ff76f8caf"
              },
              {
                "reference": "urn:uuid:399655ca-7cd2-4f65-b81f-4fd450b6b1b1"
              },
              {
                "reference": "urn:uuid:caf7447c-a03f-4a65-8a4d-7600285496d4"
              },
              {
                "reference": "urn:uuid:d6956b1f-eda4-4a97-96b1-0a652c24e1ec"
              },
              {
                "reference": "urn:uuid:1e8f75ad-681b-4a90-9e2f-23f1a9a40d0a"
              }
            ],
            "code": {
              "coding": [
                {
                  "system": "http://loinc.org",
                  "code": "47519-4",
                  "display": "History of Procedures Document"
                }
              ]
            },
            "title": "Procedure History list"
          },
          {
            "text": {
              "status": "generated",
              "div": "<div xmlns=\"http://www.w3.org/1999/xhtml\"><table class=\"hl7__ips\"><tr><th>Allergy/Intolerance</th><th>Onset Date</th><th>Status</th><th>Type</th><th>Reaction</th></tr><tr><td></td><td>?</td><td>active</td><td>?</td><td></td></tr></table></div>"
            },
            "entry": [
              {
                "reference": "urn:uuid:ce5d0c52-4640-4af7-b61b-e3030099d4e6"
              }
            ],
            "code": {
              "coding": [
                {
                  "system": "http://loinc.org",
                  "code": "48765-2",
                  "display": "Allergies and adverse reactions Document"
                }
              ]
            },
            "title": "Allergies and Intolerances"
          },
          {
            "text": {
              "status": "generated",
              "div": "<div xmlns=\"http://www.w3.org/1999/xhtml\"><table class=\"hl7__ips\"><tr><th>Vital Signs</th><th>2024-08-07</th><th>2021-08-04</th></tr><tr><td>Body Height</td><td>157.1 cm</td><td>157.1 cm</td></tr><tr><td>Pain severity - 0-10 verbal numeric rating [Score] - Reported</td><td>4 {score}</td><td>1 {score}</td></tr><tr><td>Body Weight</td><td>74.1 kg</td><td>74.1 kg</td></tr><tr><td>Body mass index (BMI) [Ratio]</td><td>30 kg/m2</td><td>30 kg/m2</td></tr><tr><td>Diastolic Blood Pressure</td><td>83 mm[Hg]</td><td>79 mm[Hg]</td></tr><tr><td>Systolic Blood Pressure</td><td>125 mm[Hg]</td><td>128 mm[Hg]</td></tr><tr><td>Heart rate</td><td>86 /min</td><td>73 /min</td></tr><tr><td>Respiratory rate</td><td>14 /min</td><td>14 /min</td></tr></table></div>"
            },
            "entry": [
              {
                "reference": "urn:uuid:a3aef3c6-20d7-4bf1-bea9-41f68d2139c5"
              },
              {
                "reference": "urn:uuid:45c19dc2-0eab-4cc8-956c-6fd49e5b6617"
              },
              {
                "reference": "urn:uuid:a3e1374a-23cd-49e1-8e52-a10090d069ad"
              },
              {
                "reference": "urn:uuid:b49df367-338e-436f-bb46-a52f517f8edf"
              },
              {
                "reference": "urn:uuid:cb58207a-7f0e-43c7-8e0e-f2d4d520829d"
              },
              {
                "reference": "urn:uuid:9daf8773-e758-4e04-a4c7-04db62ee1a62"
              },
              {
                "reference": "urn:uuid:c032a45b-58ab-49fb-815d-9a68a56eca3e"
              },
              {
                "reference": "urn:uuid:dc4e3500-653b-4ff9-a0a9-94b01e07ff75"
              },
              {
                "reference": "urn:uuid:fb3acc96-c58d-4074-b879-42e339fb3ef7"
              },
              {
                "reference": "urn:uuid:f46193a6-f055-4829-b3b9-1f8ce3fa7409"
              },
              {
                "reference": "urn:uuid:bc2377d0-4518-4c3b-88cf-f752dcd28560"
              },
              {
                "reference": "urn:uuid:53059bf8-3c56-481d-958b-33bdffcabba9"
              },
              {
                "reference": "urn:uuid:141a3db3-c286-43f9-9b26-1ad5f8a5a4a3"
              },
              {
                "reference": "urn:uuid:95e3f4c7-c420-448b-9674-9ab783d78eff"
              },
              {
                "reference": "urn:uuid:1a04a717-3661-4c64-b57e-d8e46dbe93ee"
              },
              {
                "reference": "urn:uuid:3ca14c5f-5b38-4666-871f-83b78b4a1e77"
              }
            ],
            "code": {
              "coding": [
                {
                  "system": "http://loinc.org",
                  "code": "8716-3",
                  "display": "Vital signs note"
                }
              ]
            },
            "title": "Vital Signs"
          },
          {
            "text": {
              "status": "generated",
              "div": "<div xmlns=\"http://www.w3.org/1999/xhtml\"><table class=\"hl7__ips\">$<tr><td>[#] Births total</td><td>1</td></tr></table></div>"
            },
            "code": {
              "coding": [
                {
                  "system": "http://loinc.org",
                  "code": "10162-6",
                  "display": "History of pregnancies Narrative"
                }
              ]
            },
            "title": "Pregnancy History"
          },
          {
            "text": {
              "status": "generated",
              "div": "<div xmlns=\"http://www.w3.org/1999/xhtml\"><table class=\"hl7__ips\"><table class=\"hl7__ips\"><thead><tr><th>Recent Lab Observations</th><th>07-AUG-2024</th><th>Reference&#xA0;Range</th><th>Unit</th></tr></thead><tbody><tr><td>Cholesterol [Mass/volume] in Serum or Plasma</td><td>147.2</td><td>125 - 200</td><td>mg/dL</td></tr><tr><td>Triglyceride [Mass/volume] in Serum or Plasma</td><td>123.7</td><td>35 - 150</td><td>mg/dL</td></tr><tr><td>Cholesterol in LDL [Mass/volume] in Serum or Plasma by Direct assay</td><td>63.8</td><td>0 - 130</td><td>mg/dL</td></tr><tr><td>Cholesterol in HDL [Mass/volume] in Serum or Plasma</td><td>58.7</td><td>40 - 60</td><td>mg/dL</td></tr><tr><td>Leukocytes [#/volume] in Blood by Automated count</td><td>7.5</td><td>3.5 - 10.5</td><td>10*3/uL</td></tr><tr><td>Erythrocytes [#/volume] in Blood by Automated count</td><td>5.0</td><td>4.5 - 5.5</td><td>10*6/uL</td></tr><tr><td>Hemoglobin [Mass/volume] in Blood</td><td>14.2</td><td>12 - 16</td><td>g/dL</td></tr><tr><td>Hematocrit [Volume Fraction] of Blood by Automated count</td><td>39.4</td><td>36 - 48</td><td>%</td></tr><tr><td>MCV [Entitic volume] by Automated count</td><td>90.1</td><td>82 - 98</td><td>fL</td></tr><tr><td>MCH [Entitic mass] by Automated count</td><td>31.5</td><td>27.5 - 34.5</td><td>pg</td></tr><tr><td>MCHC [Mass/volume] by Automated count</td><td>35.7</td><td>32 - 37</td><td>g/dL</td></tr><tr><td>Erythrocyte distribution width [Entitic volume] by Automated count</td><td>46.0</td><td>36 - 55</td><td>fL</td></tr><tr><td>Platelets [#/volume] in Blood by Automated count</td><td>343.1</td><td>150 - 450</td><td>10*3/uL</td></tr><tr><td>Platelet distribution width [Entitic volume] in Blood by Automated count</td><td><strong>305.1 H</strong></td><td>11 - 15</td><td>fL</td></tr><tr><td>Platelet mean volume [Entitic volume] in Blood by Automated count</td><td>9.8</td><td>7.2 - 13.8</td><td>fL</td></tr></tbody></table></table></div>"
            },
            "entry": [
              {
                "reference": "urn:uuid:8fbf7aab-fc6f-43f7-8958-20e55dbf8ea9"
              },
              {
                "reference": "urn:uuid:38dccc55-5a5b-4cf8-a76c-6eda5228d0e6"
              },
              {
                "reference": "urn:uuid:e4e309fc-463d-43e5-acea-9080ddb3a02f"
              },
              {
                "reference": "urn:uuid:8d4cfa6a-729e-4c37-8498-919904b9018c"
              },
              {
                "reference": "urn:uuid:d9197edf-2fcd-4535-999b-568265869314"
              },
              {
                "reference": "urn:uuid:0e84fb29-6130-46dc-9a78-dd65c3622e5f"
              },
              {
                "reference": "urn:uuid:4a305f29-f089-448e-bfe3-d029f69fce5a"
              },
              {
                "reference": "urn:uuid:c6083fa5-c0bd-4f48-be0a-d055812d8e18"
              },
              {
                "reference": "urn:uuid:0a370b69-cd37-43a2-bb8f-fd0e68b05aa3"
              },
              {
                "reference": "urn:uuid:1c3eaed3-09f3-447c-853b-f1be934f9d89"
              },
              {
                "reference": "urn:uuid:ec781f4c-8589-49e0-b2fd-c6780889cd8a"
              },
              {
                "reference": "urn:uuid:6f9568e1-863c-49e2-9111-4907a78f537a"
              },
              {
                "reference": "urn:uuid:f199c378-705c-4957-93f3-39a372f8037e"
              },
              {
                "reference": "urn:uuid:f874e104-a10e-43bf-94a3-80e55b37e9c3"
              },
              {
                "reference": "urn:uuid:ff7e5acb-fccf-40f5-99cc-c2f71c6029f2"
              }
            ],
            "code": {
              "coding": [
                {
                  "system": "http://loinc.org",
                  "code": "30954-2",
                  "display": "Relevant diagnostic tests/laboratory data note"
                }
              ]
            },
            "title": "Relevant diagnostic tests/laboratory data"
          }
        ],
        "title": "European Patient Summary",
        "status": "final",
        "subject": {
          "reference": "urn:uuid:e371bc4a-2970-465c-8eab-e5cf8cd255f9",
          "display": "Charlene Sharpe"
        },
        "custodian": {
          "reference": "urn:uuid:6c7a8322-e7f9-41be-930e-19e775238e7b"
        },
        "date": "2024-08-07",
        "confidentiality": "N"
      }
    },
    {
      "fullUrl": "urn:uuid:e371bc4a-2970-465c-8eab-e5cf8cd255f9",
      "resource": {
        "resourceType": "Patient",
        "id": "e371bc4a-2970-465c-8eab-e5cf8cd255f9",
        "meta": {
          "security": [
            {
              "system": "http://terminology.hl7.org/CodeSystem/v3-ActReason",
              "code": "HTEST"
            },
            {
              "system": "http://terminology.hl7.org/CodeSystem/v3-ActReason",
              "code": "TRAIN"
            }
          ],
          "tag": [
            {
              "system": "https://synderai.net/fhir/CodeSystem/tags",
              "code": "synthetic",
              "display": "SYNDERAI Synthetic data"
            }
          ],
          "profile": [
            "http://hl7.eu/fhir/eps/StructureDefinition/patient-eu-eps"
          ]
        },
        "identifier": [
          {
            "type": {
              "coding": [
                {
                  "code": "PT",
                  "system": "http://terminology.hl7.org/CodeSystem/v2-0203"
                }
              ]
            },
            "system": "http://ec.europa.eu/identifier/eci",
            "value": "1398-333111-0"
          },
          {
            "type": {
              "coding": [
                {
                  "code": "MR",
                  "system": "http://terminology.hl7.org/CodeSystem/v2-0203"
                }
              ]
            },
            "system": "http://local.setting.eu/identifier",
            "value": "6fe0fe4a-b508-d942-a7a7-576f68360f0d"
          }
        ],
        "name": [
          {
            "family": "Sharpe"
          },
          {
            "given": [
              "Charlene"
            ]
          },
          {
            "text": "Charlene Sharpe"
          }
        ],
        "address": [
          {
            "line": [
              "Studio 63",
              "Jenkins dale"
            ],
            "use": "home",
            "type": "physical",
            "postalCode": "SW1A",
            "city": "London",
            "country": "United Kingdom"
          }
        ],
        "telecom": [
          {
            "system": "phone",
            "value": "+44289018242"
          }
        ],
        "extension": [
          {
            "url": "http://hl7.org/fhir/StructureDefinition/patient-nationality",
            "valueCodeableConcept": {
              "coding": [
                {
                  "code": "GB",
                  "system": "http://hl7.org/fhir/ValueSet/country"
                }
              ]
            }
          }
        ],
        "text": {
          "status": "generated",
          "div": "<div xmlns=\"http://www.w3.org/1999/xhtml\"><table class=\"hl7__ips\"><tr><td>Charlene Sharpe</td><td>female</td><td>20-Jun-1991</td></tr></table></div>"
        },
        "gender": "female",
        "birthDate": "1991-06-20"
      }
    },
    {
      "fullUrl": "urn:uuid:1143a6d3-55d5-448a-93a9-8ca251cc8237",
      "resource": {
        "resourceType": "PractitionerRole",
        "id": "1143a6d3-55d5-448a-93a9-8ca251cc8237",
        "meta": {
          "profile": [
            "http://hl7.eu/fhir/base/StructureDefinition/practitionerRole-eu"
          ]
        },
        "text": {
          "status": "generated",
          "div": "<div xmlns=\"http://www.w3.org/1999/xhtml\"><table class=\"hl7__ips\">Provider Role Id 1143a6d3-55d5-448a-93a9-8ca251cc8237</table></div>"
        },
        "practitioner": {
          "reference": "urn:uuid:154aa02c-d991-4a13-aa0d-4cd1f5d82ebd"
        },
        "organization": {
          "reference": "urn:uuid:6c7a8322-e7f9-41be-930e-19e775238e7b"
        }
      }
    },
    {
      "fullUrl": "urn:uuid:154aa02c-d991-4a13-aa0d-4cd1f5d82ebd",
      "resource": {
        "resourceType": "Practitioner",
        "id": "154aa02c-d991-4a13-aa0d-4cd1f5d82ebd",
        "meta": {
          "profile": [
            "http://hl7.eu/fhir/base/StructureDefinition/practitioner-eu"
          ]
        },
        "name": [
          {
            "prefix": [
              "Dr."
            ],
            "given": [
              "Hel"
            ],
            "family": "Ping"
          }
        ],
        "text": {
          "status": "generated",
          "div": "<div xmlns=\"http://www.w3.org/1999/xhtml\"><table class=\"hl7__ips\">Dr. Hel Ping</table></div>"
        }
      }
    },
    {
      "fullUrl": "urn:uuid:6c7a8322-e7f9-41be-930e-19e775238e7b",
      "resource": {
        "resourceType": "Organization",
        "id": "6c7a8322-e7f9-41be-930e-19e775238e7b",
        "meta": {
          "profile": [
            "http://hl7.eu/fhir/base/StructureDefinition/organization-eu"
          ]
        },
        "identifier": [
          {
            "assigner": {
              "display": "HL7 Europe"
            },
            "system": "urn:oid:2.16.840.1.113883.2.51.999",
            "value": "cdd6b461-4664-44c2-bbfe-32b1a6197672"
          }
        ],
        "address": [
          {
            "city": "London",
            "postalCode": "SE1 7",
            "country": "United Kingdom"
          }
        ],
        "text": {
          "status": "generated",
          "div": "<div xmlns=\"http://www.w3.org/1999/xhtml\"><table class=\"hl7__ips\">Evelina Children&#039;s Hospital</table></div>"
        },
        "name": "Evelina Children&#039;s Hospital"
      }
    },
    {
      "fullUrl": "urn:uuid:3ca4c2cc-54ec-4e24-835d-4f4c4ddb6390",
      "resource": {
        "resourceType": "Condition",
        "id": "3ca4c2cc-54ec-4e24-835d-4f4c4ddb6390",
        "meta": {
          "profile": [
            "http://hl7.org/fhir/uv/ips/StructureDefinition/Condition-uv-ips"
          ]
        },
        "code": {
          "coding": [
            {
              "code": "160245001",
              "system": "http://snomed.info/sct",
              "display": "No current problems or disability (situation)"
            }
          ]
        },
        "text": {
          "status": "generated",
          "div": "<div xmlns=\"http://www.w3.org/1999/xhtml\"><table class=\"hl7__ips\"><tr><td>No known problems or disabilities</td></tr></table></div>"
        },
        "subject": {
          "reference": "Patient/e371bc4a-2970-465c-8eab-e5cf8cd255f9",
          "display": "Charlene Sharpe"
        },
        "_onsetDateTime": {
          "extension": [
            {
              "url": "http://hl7.org/fhir/StructureDefinition/data-absent-reason",
              "valueCode": "unknown\""
            }
          ]
        }
      }
    },
    {
      "fullUrl": "urn:uuid:008f6d1d-86be-47d5-8a03-7ff3a975f3e2",
      "resource": {
        "resourceType": "Medication",
        "id": "008f6d1d-86be-47d5-8a03-7ff3a975f3e2",
        "meta": {
          "profile": [
            "http://hl7.eu/fhir/eps/StructureDefinition/Medication-eu-eps"
          ]
        },
        "code": {
          "coding": [
            {
              "code": "2001499",
              "system": "http://www.nlm.nih.gov/research/umls/rxnorm",
              "display": "Vitamin B12 5 MG/ML Injectable Solution"
            }
          ],
          "text": "Vitamin B12 5 MG/ML Injectable Solution"
        },
        "text": {
          "status": "generated",
          "div": "<div xmlns=\"http://www.w3.org/1999/xhtml\">Vitamin B12 5 MG/ML Injectable Solution</div>"
        }
      }
    },
    {
      "fullUrl": "urn:uuid:80997954-397c-4382-a218-e9514d487609",
      "resource": {
        "resourceType": "MedicationStatement",
        "id": "80997954-397c-4382-a218-e9514d487609",
        "meta": {
          "profile": [
            "http://hl7.eu/fhir/eps/StructureDefinition/MedicationStatement-eu-eps"
          ]
        },
        "effectivePeriod": {
          "start": "2008-04-02"
        },
        "dosage": [
          {
            "doseAndRate": [
              {
                "doseQuantity": {
                  "value": 5,
                  "unit": "mg",
                  "system": "$ucum",
                  "code": "mg"
                }
              }
            ],
            "timing": {
              "repeat": {
                "frequency": 1,
                "period": 1,
                "periodUnit": "wk"
              }
            },
            "text": "5 mg (1 mL) by intramuscular injection once weekly",
            "asNeededBoolean": false
          }
        ],
        "text": {
          "status": "generated",
          "div": "<div xmlns=\"http://www.w3.org/1999/xhtml\"><table class=\"hl7__ips first25\"><tr><th>Medication</th><th>Since</th><th>Form</th><th>Dosage</th><th>Reason</th></tr><tr><td>Vitamin B12 5 MG/ML Injectable Solution</td><td><span class=\"nb\">2008-04-02</span></td><td>-</td><td>5 mg (1 mL) by intramuscular injection once weekly</td><td>-</td></tr></table></div>"
        },
        "status": "active",
        "medicationReference": {
          "reference": "urn:uuid:008f6d1d-86be-47d5-8a03-7ff3a975f3e2",
          "display": "Vitamin B12 5 MG/ML Injectable Solution"
        },
        "subject": {
          "reference": "urn:uuid:e371bc4a-2970-465c-8eab-e5cf8cd255f9",
          "display": "Charlene Sharpe"
        }
      }
    },
    {
      "fullUrl": "urn:uuid:43dc9281-8711-4c7f-8a60-b3508714bedf",
      "resource": {
        "resourceType": "Immunization",
        "id": "43dc9281-8711-4c7f-8a60-b3508714bedf",
        "meta": {
          "profile": [
            "http://hl7.org/fhir/uv/ips/StructureDefinition/Immunization-uv-ips"
          ]
        },
        "vaccineCode": {
          "coding": [
            {
              "code": "1181000221105",
              "system": "http://snomed.info/sct",
              "display": "Vaccine product containing Influenza virus antigen"
            },
            {
              "code": "J07BB02",
              "system": "http://www.whocc.no/atc",
              "display": "Influenza, inactivated, split virus"
            }
          ],
          "text": "Influenza virus antigen only vaccine product"
        },
        "site": {
          "coding": [
            {
              "code": "244979005",
              "system": "http://snomed.info/sct",
              "display": "Entire muscle of upper arm"
            }
          ],
          "text": "Entire muscle of upper arm"
        },
        "route": {
          "coding": [
            {
              "code": "78421000",
              "system": "http://snomed.info/sct",
              "display": "Intramuscular route"
            }
          ],
          "text": "Intramuscular route"
        },
        "text": {
          "status": "generated",
          "div": "<div xmlns=\"http://www.w3.org/1999/xhtml\"><table class=\"hl7__ips\"><tr><td>Influenza virus antigen only vaccine product</td><td><span class=\"nb\">07-Aug-2024</span></td></tr></table></div>"
        },
        "status": "completed",
        "patient": {
          "reference": "urn:uuid:e371bc4a-2970-465c-8eab-e5cf8cd255f9",
          "display": "Charlene Sharpe"
        },
        "occurrenceDateTime": "2024-08-07",
        "lotNumber": "EA-if7DOLT",
        "expirationDate": "2025-07-04"
      }
    },
    {
      "fullUrl": "urn:uuid:dd735bde-67c0-483c-b519-2cd5abfceeab",
      "resource": {
        "resourceType": "Immunization",
        "id": "dd735bde-67c0-483c-b519-2cd5abfceeab",
        "meta": {
          "profile": [
            "http://hl7.org/fhir/uv/ips/StructureDefinition/Immunization-uv-ips"
          ]
        },
        "vaccineCode": {
          "coding": [
            {
              "code": "777725002",
              "system": "http://snomed.info/sct",
              "display": "Vaccine product containing only Clostridium tetani toxoid antigen adsorbed"
            },
            {
              "code": "J07AM51",
              "system": "http://www.whocc.no/atc",
              "display": "Diphtheria-tetanus vaccines, adult type"
            }
          ],
          "text": "Clostridium tetani toxoid antigen adsorbed only vaccine product"
        },
        "site": {
          "coding": [
            {
              "code": "244979005",
              "system": "http://snomed.info/sct",
              "display": "Entire muscle of upper arm"
            }
          ],
          "text": "Entire muscle of upper arm"
        },
        "route": {
          "coding": [
            {
              "code": "78421000",
              "system": "http://snomed.info/sct",
              "display": "Intramuscular route"
            }
          ],
          "text": "Intramuscular route"
        },
        "text": {
          "status": "generated",
          "div": "<div xmlns=\"http://www.w3.org/1999/xhtml\"><table class=\"hl7__ips\"><tr><td>Clostridium tetani toxoid antigen adsorbed only vaccine product</td><td><span class=\"nb\">04-Aug-2021</span></td></tr></table></div>"
        },
        "status": "completed",
        "patient": {
          "reference": "urn:uuid:e371bc4a-2970-465c-8eab-e5cf8cd255f9",
          "display": "Charlene Sharpe"
        },
        "occurrenceDateTime": "2021-08-04",
        "lotNumber": "KO-dN2b9q",
        "expirationDate": "2021-09-15"
      }
    },
    {
      "fullUrl": "urn:uuid:37d99457-621a-4934-8746-c6cdf7f2aba8",
      "resource": {
        "resourceType": "Immunization",
        "id": "37d99457-621a-4934-8746-c6cdf7f2aba8",
        "meta": {
          "profile": [
            "http://hl7.org/fhir/uv/ips/StructureDefinition/Immunization-uv-ips"
          ]
        },
        "vaccineCode": {
          "coding": [
            {
              "code": "1119349007",
              "system": "http://snomed.info/sct",
              "display": "Vaccine product containing SARS-CoV-2 mRNA"
            },
            {
              "code": "J07BX03",
              "system": "http://www.whocc.no/atc",
              "display": "COVID-19 mRNA vaccines"
            }
          ],
          "text": "SARS-CoV-2 mRNA vaccine"
        },
        "site": {
          "coding": [
            {
              "code": "244979005",
              "system": "http://snomed.info/sct",
              "display": "Entire muscle of upper arm"
            }
          ],
          "text": "Entire muscle of upper arm"
        },
        "route": {
          "coding": [
            {
              "code": "78421000",
              "system": "http://snomed.info/sct",
              "display": "Intramuscular route"
            }
          ],
          "text": "Intramuscular route"
        },
        "text": {
          "status": "generated",
          "div": "<div xmlns=\"http://www.w3.org/1999/xhtml\"><table class=\"hl7__ips\"><tr><td>SARS-CoV-2 mRNA vaccine</td><td><span class=\"nb\">09-Jun-2021</span></td></tr></table></div>"
        },
        "status": "completed",
        "patient": {
          "reference": "urn:uuid:e371bc4a-2970-465c-8eab-e5cf8cd255f9",
          "display": "Charlene Sharpe"
        },
        "occurrenceDateTime": "2021-06-09",
        "lotNumber": "FJ-fgWvS",
        "expirationDate": "2021-11-04"
      }
    },
    {
      "fullUrl": "urn:uuid:3aa45fb3-298e-41c2-92e9-a85ff76f8caf",
      "resource": {
        "resourceType": "Procedure",
        "id": "3aa45fb3-298e-41c2-92e9-a85ff76f8caf",
        "meta": {
          "profile": [
            "http://hl7.org/fhir/uv/ips/StructureDefinition/Procedure-uv-ips"
          ]
        },
        "code": {
          "coding": [
            {
              "code": "31208007",
              "system": "http://snomed.info/sct",
              "display": "Medical induction of labor"
            }
          ],
          "text": "Medical induction of labor"
        },
        "reasonCode": [
          {
            "coding": [
              {
                "code": "72892002",
                "system": "http://snomed.info/sct",
                "display": "Normal pregnancy"
              }
            ]
          }
        ],
        "text": {
          "status": "generated",
          "div": "<div xmlns=\"http://www.w3.org/1999/xhtml\"><table class=\"hl7__ips\"><tr><td>Medical induction of labor</td><td><span class=\"nb\">09-Jul-2025</span></td><td>Normal pregnancy</td></tr></table></div>"
        },
        "status": "completed",
        "performedDateTime": "2025-07-09",
        "subject": {
          "reference": "urn:uuid:",
          "display": "Charlene Sharpe"
        }
      }
    },
    {
      "fullUrl": "urn:uuid:399655ca-7cd2-4f65-b81f-4fd450b6b1b1",
      "resource": {
        "resourceType": "Procedure",
        "id": "399655ca-7cd2-4f65-b81f-4fd450b6b1b1",
        "meta": {
          "profile": [
            "http://hl7.org/fhir/uv/ips/StructureDefinition/Procedure-uv-ips"
          ]
        },
        "code": {
          "coding": [
            {
              "code": "66348005",
              "system": "http://snomed.info/sct",
              "display": "Childbirth"
            }
          ],
          "text": "Parturition"
        },
        "reasonCode": [
          {
            "coding": [
              {
                "code": "72892002",
                "system": "http://snomed.info/sct",
                "display": "Normal pregnancy"
              }
            ]
          }
        ],
        "text": {
          "status": "generated",
          "div": "<div xmlns=\"http://www.w3.org/1999/xhtml\"><table class=\"hl7__ips\"><tr><td>Parturition</td><td><span class=\"nb\">09-Jul-2025</span></td><td>Normal pregnancy</td></tr></table></div>"
        },
        "status": "completed",
        "performedDateTime": "2025-07-09",
        "subject": {
          "reference": "urn:uuid:",
          "display": "Charlene Sharpe"
        }
      }
    },
    {
      "fullUrl": "urn:uuid:caf7447c-a03f-4a65-8a4d-7600285496d4",
      "resource": {
        "resourceType": "Procedure",
        "id": "caf7447c-a03f-4a65-8a4d-7600285496d4",
        "meta": {
          "profile": [
            "http://hl7.org/fhir/uv/ips/StructureDefinition/Procedure-uv-ips"
          ]
        },
        "code": {
          "coding": [
            {
              "code": "18946005",
              "system": "http://snomed.info/sct",
              "display": "Epidural anesthesia"
            }
          ],
          "text": "Epidural anesthesia"
        },
        "reasonCode": [
          {
            "coding": [
              {
                "code": "72892002",
                "system": "http://snomed.info/sct",
                "display": "Normal pregnancy"
              }
            ]
          }
        ],
        "text": {
          "status": "generated",
          "div": "<div xmlns=\"http://www.w3.org/1999/xhtml\"><table class=\"hl7__ips\"><tr><td>Epidural anesthesia</td><td><span class=\"nb\">09-Aug-2023</span></td><td>Normal pregnancy</td></tr></table></div>"
        },
        "status": "completed",
        "performedDateTime": "2023-08-09",
        "subject": {
          "reference": "urn:uuid:",
          "display": "Charlene Sharpe"
        }
      }
    },
    {
      "fullUrl": "urn:uuid:d6956b1f-eda4-4a97-96b1-0a652c24e1ec",
      "resource": {
        "resourceType": "Procedure",
        "id": "d6956b1f-eda4-4a97-96b1-0a652c24e1ec",
        "meta": {
          "profile": [
            "http://hl7.org/fhir/uv/ips/StructureDefinition/Procedure-uv-ips"
          ]
        },
        "code": {
          "coding": [
            {
              "code": "11466000",
              "system": "http://snomed.info/sct",
              "display": "Cesarean section"
            }
          ],
          "text": "Cesarean section"
        },
        "reasonCode": [
          {
            "coding": [
              {
                "code": "72892002",
                "system": "http://snomed.info/sct",
                "display": "Normal pregnancy"
              }
            ]
          }
        ],
        "text": {
          "status": "generated",
          "div": "<div xmlns=\"http://www.w3.org/1999/xhtml\"><table class=\"hl7__ips\"><tr><td>Cesarean section</td><td><span class=\"nb\">30-Jan-2019</span></td><td>Normal pregnancy</td></tr></table></div>"
        },
        "status": "completed",
        "performedDateTime": "2019-01-30",
        "subject": {
          "reference": "urn:uuid:",
          "display": "Charlene Sharpe"
        }
      }
    },
    {
      "fullUrl": "urn:uuid:1e8f75ad-681b-4a90-9e2f-23f1a9a40d0a",
      "resource": {
        "resourceType": "Procedure",
        "id": "1e8f75ad-681b-4a90-9e2f-23f1a9a40d0a",
        "meta": {
          "profile": [
            "http://hl7.org/fhir/uv/ips/StructureDefinition/Procedure-uv-ips"
          ]
        },
        "code": {
          "coding": [
            {
              "code": "237001001",
              "system": "http://snomed.info/sct",
              "display": "Augmentation of labor"
            }
          ],
          "text": "Augmentation of labor"
        },
        "reasonCode": [
          {
            "coding": [
              {
                "code": "72892002",
                "system": "http://snomed.info/sct",
                "display": "Normal pregnancy"
              }
            ]
          }
        ],
        "text": {
          "status": "generated",
          "div": "<div xmlns=\"http://www.w3.org/1999/xhtml\"><table class=\"hl7__ips\"><tr><td>Augmentation of labor</td><td><span class=\"nb\">30-Jan-2019</span></td><td>Normal pregnancy</td></tr></table></div>"
        },
        "status": "completed",
        "performedDateTime": "2019-01-30",
        "subject": {
          "reference": "urn:uuid:",
          "display": "Charlene Sharpe"
        }
      }
    },
    {
      "fullUrl": "urn:uuid:ce5d0c52-4640-4af7-b61b-e3030099d4e6",
      "resource": {
        "resourceType": "AllergyIntolerance",
        "id": "ce5d0c52-4640-4af7-b61b-e3030099d4e6",
        "meta": {
          "profile": [
            "http://hl7.eu/fhir/eps/StructureDefinition/allergyIntolerance-eu-eps"
          ]
        },
        "code": {
          "text": ""
        },
        "clinicalStatus": {
          "coding": [
            {
              "code": "active",
              "system": "http://terminology.hl7.org/CodeSystem/allergyintolerance-clinical"
            }
          ]
        },
        "text": {
          "status": "generated",
          "div": "<div xmlns=\"http://www.w3.org/1999/xhtml\"><table class=\"hl7__ips\"><tr><th>Allergy/Intolerance</th><th>Onset Date</th><th>Status</th><th>Type</th><th>Reaction</th></tr><tr><td></td><td>?</td><td>active</td><td>?</td><td></td></tr></table></div>"
        },
        "verificationStatus": {
          "coding": [
            {
              "code": "confirmed",
              "system": "http://terminology.hl7.org/CodeSystem/allergyintolerance-verification"
            }
          ]
        },
        "patient": {
          "reference": "urn:uuid:e371bc4a-2970-465c-8eab-e5cf8cd255f9",
          "display": "Charlene Sharpe"
        },
        "_onsetDateTime": {
          "extension": [
            {
              "url": "http://hl7.org/fhir/StructureDefinition/data-absent-reason",
              "valueCode": "unknown"
            }
          ]
        }
      }
    },
    {
      "fullUrl": "urn:uuid:a3aef3c6-20d7-4bf1-bea9-41f68d2139c5",
      "resource": {
        "resourceType": "Observation",
        "id": "a3aef3c6-20d7-4bf1-bea9-41f68d2139c5",
        "meta": {
          "profile": [
            "http://hl7.org/fhir/StructureDefinition/vitalsigns"
          ]
        },
        "category": [
          {
            "coding": [
              {
                "system": "http://terminology.hl7.org/CodeSystem/observation-category",
                "code": "vital-signs",
                "display": "Vital Signs"
              }
            ]
          }
        ],
        "valueQuantity": {
          "value": 157.1,
          "code": "cm",
          "unit": "cm"
        },
        "text": {
          "status": "generated",
          "div": "<div xmlns=\"http://www.w3.org/1999/xhtml\"><table class=\"hl7__ips\"><tr><th>Vital Sign</th><th>Date</th><th>Measurement</th></tr><tr><td>Body Height</td><td>07-Aug-2024</td><td>157.1 cm</td></tr></table></div>"
        },
        "status": "final",
        "code": {
          "coding": [
            {
              "code": "$8302-2",
              "system": "http://loinc.org",
              "display": "Body Height"
            }
          ]
        },
        "subject": {
          "reference": "urn:uuid:e371bc4a-2970-465c-8eab-e5cf8cd255f9",
          "display": "Charlene Sharpe"
        },
        "effectiveDateTime": "2024-08-07"
      }
    },
    {
      "fullUrl": "urn:uuid:45c19dc2-0eab-4cc8-956c-6fd49e5b6617",
      "resource": {
        "resourceType": "Observation",
        "id": "45c19dc2-0eab-4cc8-956c-6fd49e5b6617",
        "meta": {
          "profile": [
            "http://hl7.org/fhir/StructureDefinition/vitalsigns"
          ]
        },
        "category": [
          {
            "coding": [
              {
                "system": "http://terminology.hl7.org/CodeSystem/observation-category",
                "code": "vital-signs",
                "display": "Vital Signs"
              }
            ]
          }
        ],
        "valueQuantity": {
          "value": 4,
          "code": "{score}",
          "unit": "{score}"
        },
        "text": {
          "status": "generated",
          "div": "<div xmlns=\"http://www.w3.org/1999/xhtml\"><table class=\"hl7__ips\"><tr><th>Vital Sign</th><th>Date</th><th>Measurement</th></tr><tr><td>Pain severity - 0-10 verbal numeric rating [Score] - Reported</td><td>07-Aug-2024</td><td>4 {score}</td></tr></table></div>"
        },
        "status": "final",
        "code": {
          "coding": [
            {
              "code": "$72514-3",
              "system": "http://loinc.org",
              "display": "Pain severity - 0-10 verbal numeric rating [Score] - Reported"
            }
          ]
        },
        "subject": {
          "reference": "urn:uuid:e371bc4a-2970-465c-8eab-e5cf8cd255f9",
          "display": "Charlene Sharpe"
        },
        "effectiveDateTime": "2024-08-07"
      }
    },
    {
      "fullUrl": "urn:uuid:a3e1374a-23cd-49e1-8e52-a10090d069ad",
      "resource": {
        "resourceType": "Observation",
        "id": "a3e1374a-23cd-49e1-8e52-a10090d069ad",
        "meta": {
          "profile": [
            "http://hl7.org/fhir/StructureDefinition/vitalsigns"
          ]
        },
        "category": [
          {
            "coding": [
              {
                "system": "http://terminology.hl7.org/CodeSystem/observation-category",
                "code": "vital-signs",
                "display": "Vital Signs"
              }
            ]
          }
        ],
        "valueQuantity": {
          "value": 74.1,
          "code": "kg",
          "unit": "kg"
        },
        "text": {
          "status": "generated",
          "div": "<div xmlns=\"http://www.w3.org/1999/xhtml\"><table class=\"hl7__ips\"><tr><th>Vital Sign</th><th>Date</th><th>Measurement</th></tr><tr><td>Body Weight</td><td>07-Aug-2024</td><td>74.1 kg</td></tr></table></div>"
        },
        "status": "final",
        "code": {
          "coding": [
            {
              "code": "$29463-7",
              "system": "http://loinc.org",
              "display": "Body Weight"
            }
          ]
        },
        "subject": {
          "reference": "urn:uuid:e371bc4a-2970-465c-8eab-e5cf8cd255f9",
          "display": "Charlene Sharpe"
        },
        "effectiveDateTime": "2024-08-07"
      }
    },
    {
      "fullUrl": "urn:uuid:b49df367-338e-436f-bb46-a52f517f8edf",
      "resource": {
        "resourceType": "Observation",
        "id": "b49df367-338e-436f-bb46-a52f517f8edf",
        "meta": {
          "profile": [
            "http://hl7.org/fhir/StructureDefinition/vitalsigns"
          ]
        },
        "category": [
          {
            "coding": [
              {
                "system": "http://terminology.hl7.org/CodeSystem/observation-category",
                "code": "vital-signs",
                "display": "Vital Signs"
              }
            ]
          }
        ],
        "valueQuantity": {
          "value": 30,
          "code": "kg/m2",
          "unit": "kg/m2"
        },
        "text": {
          "status": "generated",
          "div": "<div xmlns=\"http://www.w3.org/1999/xhtml\"><table class=\"hl7__ips\"><tr><th>Vital Sign</th><th>Date</th><th>Measurement</th></tr><tr><td>Body mass index (BMI) [Ratio]</td><td>07-Aug-2024</td><td>30 kg/m2</td></tr></table></div>"
        },
        "status": "final",
        "code": {
          "coding": [
            {
              "code": "$39156-5",
              "system": "http://loinc.org",
              "display": "Body mass index (BMI) [Ratio]"
            }
          ]
        },
        "subject": {
          "reference": "urn:uuid:e371bc4a-2970-465c-8eab-e5cf8cd255f9",
          "display": "Charlene Sharpe"
        },
        "effectiveDateTime": "2024-08-07"
      }
    },
    {
      "fullUrl": "urn:uuid:cb58207a-7f0e-43c7-8e0e-f2d4d520829d",
      "resource": {
        "resourceType": "Observation",
        "id": "cb58207a-7f0e-43c7-8e0e-f2d4d520829d",
        "meta": {
          "profile": [
            "http://hl7.org/fhir/StructureDefinition/vitalsigns"
          ]
        },
        "category": [
          {
            "coding": [
              {
                "system": "http://terminology.hl7.org/CodeSystem/observation-category",
                "code": "vital-signs",
                "display": "Vital Signs"
              }
            ]
          }
        ],
        "valueQuantity": {
          "value": 83,
          "code": "mm[Hg]",
          "unit": "mm[Hg]"
        },
        "text": {
          "status": "generated",
          "div": "<div xmlns=\"http://www.w3.org/1999/xhtml\"><table class=\"hl7__ips\"><tr><th>Vital Sign</th><th>Date</th><th>Measurement</th></tr><tr><td>Diastolic Blood Pressure</td><td>07-Aug-2024</td><td>83 mm[Hg]</td></tr></table></div>"
        },
        "status": "final",
        "code": {
          "coding": [
            {
              "code": "$8462-4",
              "system": "http://loinc.org",
              "display": "Diastolic Blood Pressure"
            }
          ]
        },
        "subject": {
          "reference": "urn:uuid:e371bc4a-2970-465c-8eab-e5cf8cd255f9",
          "display": "Charlene Sharpe"
        },
        "effectiveDateTime": "2024-08-07"
      }
    },
    {
      "fullUrl": "urn:uuid:9daf8773-e758-4e04-a4c7-04db62ee1a62",
      "resource": {
        "resourceType": "Observation",
        "id": "9daf8773-e758-4e04-a4c7-04db62ee1a62",
        "meta": {
          "profile": [
            "http://hl7.org/fhir/StructureDefinition/vitalsigns"
          ]
        },
        "category": [
          {
            "coding": [
              {
                "system": "http://terminology.hl7.org/CodeSystem/observation-category",
                "code": "vital-signs",
                "display": "Vital Signs"
              }
            ]
          }
        ],
        "valueQuantity": {
          "value": 125,
          "code": "mm[Hg]",
          "unit": "mm[Hg]"
        },
        "text": {
          "status": "generated",
          "div": "<div xmlns=\"http://www.w3.org/1999/xhtml\"><table class=\"hl7__ips\"><tr><th>Vital Sign</th><th>Date</th><th>Measurement</th></tr><tr><td>Systolic Blood Pressure</td><td>07-Aug-2024</td><td>125 mm[Hg]</td></tr></table></div>"
        },
        "status": "final",
        "code": {
          "coding": [
            {
              "code": "$8480-6",
              "system": "http://loinc.org",
              "display": "Systolic Blood Pressure"
            }
          ]
        },
        "subject": {
          "reference": "urn:uuid:e371bc4a-2970-465c-8eab-e5cf8cd255f9",
          "display": "Charlene Sharpe"
        },
        "effectiveDateTime": "2024-08-07"
      }
    },
    {
      "fullUrl": "urn:uuid:c032a45b-58ab-49fb-815d-9a68a56eca3e",
      "resource": {
        "resourceType": "Observation",
        "id": "c032a45b-58ab-49fb-815d-9a68a56eca3e",
        "meta": {
          "profile": [
            "http://hl7.org/fhir/StructureDefinition/vitalsigns"
          ]
        },
        "category": [
          {
            "coding": [
              {
                "system": "http://terminology.hl7.org/CodeSystem/observation-category",
                "code": "vital-signs",
                "display": "Vital Signs"
              }
            ]
          }
        ],
        "valueQuantity": {
          "value": 86,
          "code": "/min",
          "unit": "/min"
        },
        "text": {
          "status": "generated",
          "div": "<div xmlns=\"http://www.w3.org/1999/xhtml\"><table class=\"hl7__ips\"><tr><th>Vital Sign</th><th>Date</th><th>Measurement</th></tr><tr><td>Heart rate</td><td>07-Aug-2024</td><td>86 /min</td></tr></table></div>"
        },
        "status": "final",
        "code": {
          "coding": [
            {
              "code": "$8867-4",
              "system": "http://loinc.org",
              "display": "Heart rate"
            }
          ]
        },
        "subject": {
          "reference": "urn:uuid:e371bc4a-2970-465c-8eab-e5cf8cd255f9",
          "display": "Charlene Sharpe"
        },
        "effectiveDateTime": "2024-08-07"
      }
    },
    {
      "fullUrl": "urn:uuid:dc4e3500-653b-4ff9-a0a9-94b01e07ff75",
      "resource": {
        "resourceType": "Observation",
        "id": "dc4e3500-653b-4ff9-a0a9-94b01e07ff75",
        "meta": {
          "profile": [
            "http://hl7.org/fhir/StructureDefinition/vitalsigns"
          ]
        },
        "category": [
          {
            "coding": [
              {
                "system": "http://terminology.hl7.org/CodeSystem/observation-category",
                "code": "vital-signs",
                "display": "Vital Signs"
              }
            ]
          }
        ],
        "valueQuantity": {
          "value": 14,
          "code": "/min",
          "unit": "/min"
        },
        "text": {
          "status": "generated",
          "div": "<div xmlns=\"http://www.w3.org/1999/xhtml\"><table class=\"hl7__ips\"><tr><th>Vital Sign</th><th>Date</th><th>Measurement</th></tr><tr><td>Respiratory rate</td><td>07-Aug-2024</td><td>14 /min</td></tr></table></div>"
        },
        "status": "final",
        "code": {
          "coding": [
            {
              "code": "$9279-1",
              "system": "http://loinc.org",
              "display": "Respiratory rate"
            }
          ]
        },
        "subject": {
          "reference": "urn:uuid:e371bc4a-2970-465c-8eab-e5cf8cd255f9",
          "display": "Charlene Sharpe"
        },
        "effectiveDateTime": "2024-08-07"
      }
    },
    {
      "fullUrl": "urn:uuid:fb3acc96-c58d-4074-b879-42e339fb3ef7",
      "resource": {
        "resourceType": "Observation",
        "id": "fb3acc96-c58d-4074-b879-42e339fb3ef7",
        "meta": {
          "profile": [
            "http://hl7.org/fhir/StructureDefinition/vitalsigns"
          ]
        },
        "category": [
          {
            "coding": [
              {
                "system": "http://terminology.hl7.org/CodeSystem/observation-category",
                "code": "vital-signs",
                "display": "Vital Signs"
              }
            ]
          }
        ],
        "valueQuantity": {
          "value": 157.1,
          "code": "cm",
          "unit": "cm"
        },
        "text": {
          "status": "generated",
          "div": "<div xmlns=\"http://www.w3.org/1999/xhtml\"><table class=\"hl7__ips\"><tr><th>Vital Sign</th><th>Date</th><th>Measurement</th></tr><tr><td>Body Height</td><td>04-Aug-2021</td><td>157.1 cm</td></tr></table></div>"
        },
        "status": "final",
        "code": {
          "coding": [
            {
              "code": "$8302-2",
              "system": "http://loinc.org",
              "display": "Body Height"
            }
          ]
        },
        "subject": {
          "reference": "urn:uuid:e371bc4a-2970-465c-8eab-e5cf8cd255f9",
          "display": "Charlene Sharpe"
        },
        "effectiveDateTime": "2021-08-04"
      }
    },
    {
      "fullUrl": "urn:uuid:f46193a6-f055-4829-b3b9-1f8ce3fa7409",
      "resource": {
        "resourceType": "Observation",
        "id": "f46193a6-f055-4829-b3b9-1f8ce3fa7409",
        "meta": {
          "profile": [
            "http://hl7.org/fhir/StructureDefinition/vitalsigns"
          ]
        },
        "category": [
          {
            "coding": [
              {
                "system": "http://terminology.hl7.org/CodeSystem/observation-category",
                "code": "vital-signs",
                "display": "Vital Signs"
              }
            ]
          }
        ],
        "valueQuantity": {
          "value": 1,
          "code": "{score}",
          "unit": "{score}"
        },
        "text": {
          "status": "generated",
          "div": "<div xmlns=\"http://www.w3.org/1999/xhtml\"><table class=\"hl7__ips\"><tr><th>Vital Sign</th><th>Date</th><th>Measurement</th></tr><tr><td>Pain severity - 0-10 verbal numeric rating [Score] - Reported</td><td>04-Aug-2021</td><td>1 {score}</td></tr></table></div>"
        },
        "status": "final",
        "code": {
          "coding": [
            {
              "code": "$72514-3",
              "system": "http://loinc.org",
              "display": "Pain severity - 0-10 verbal numeric rating [Score] - Reported"
            }
          ]
        },
        "subject": {
          "reference": "urn:uuid:e371bc4a-2970-465c-8eab-e5cf8cd255f9",
          "display": "Charlene Sharpe"
        },
        "effectiveDateTime": "2021-08-04"
      }
    },
    {
      "fullUrl": "urn:uuid:bc2377d0-4518-4c3b-88cf-f752dcd28560",
      "resource": {
        "resourceType": "Observation",
        "id": "bc2377d0-4518-4c3b-88cf-f752dcd28560",
        "meta": {
          "profile": [
            "http://hl7.org/fhir/StructureDefinition/vitalsigns"
          ]
        },
        "category": [
          {
            "coding": [
              {
                "system": "http://terminology.hl7.org/CodeSystem/observation-category",
                "code": "vital-signs",
                "display": "Vital Signs"
              }
            ]
          }
        ],
        "valueQuantity": {
          "value": 74.1,
          "code": "kg",
          "unit": "kg"
        },
        "text": {
          "status": "generated",
          "div": "<div xmlns=\"http://www.w3.org/1999/xhtml\"><table class=\"hl7__ips\"><tr><th>Vital Sign</th><th>Date</th><th>Measurement</th></tr><tr><td>Body Weight</td><td>04-Aug-2021</td><td>74.1 kg</td></tr></table></div>"
        },
        "status": "final",
        "code": {
          "coding": [
            {
              "code": "$29463-7",
              "system": "http://loinc.org",
              "display": "Body Weight"
            }
          ]
        },
        "subject": {
          "reference": "urn:uuid:e371bc4a-2970-465c-8eab-e5cf8cd255f9",
          "display": "Charlene Sharpe"
        },
        "effectiveDateTime": "2021-08-04"
      }
    },
    {
      "fullUrl": "urn:uuid:53059bf8-3c56-481d-958b-33bdffcabba9",
      "resource": {
        "resourceType": "Observation",
        "id": "53059bf8-3c56-481d-958b-33bdffcabba9",
        "meta": {
          "profile": [
            "http://hl7.org/fhir/StructureDefinition/vitalsigns"
          ]
        },
        "category": [
          {
            "coding": [
              {
                "system": "http://terminology.hl7.org/CodeSystem/observation-category",
                "code": "vital-signs",
                "display": "Vital Signs"
              }
            ]
          }
        ],
        "valueQuantity": {
          "value": 30,
          "code": "kg/m2",
          "unit": "kg/m2"
        },
        "text": {
          "status": "generated",
          "div": "<div xmlns=\"http://www.w3.org/1999/xhtml\"><table class=\"hl7__ips\"><tr><th>Vital Sign</th><th>Date</th><th>Measurement</th></tr><tr><td>Body mass index (BMI) [Ratio]</td><td>04-Aug-2021</td><td>30 kg/m2</td></tr></table></div>"
        },
        "status": "final",
        "code": {
          "coding": [
            {
              "code": "$39156-5",
              "system": "http://loinc.org",
              "display": "Body mass index (BMI) [Ratio]"
            }
          ]
        },
        "subject": {
          "reference": "urn:uuid:e371bc4a-2970-465c-8eab-e5cf8cd255f9",
          "display": "Charlene Sharpe"
        },
        "effectiveDateTime": "2021-08-04"
      }
    },
    {
      "fullUrl": "urn:uuid:141a3db3-c286-43f9-9b26-1ad5f8a5a4a3",
      "resource": {
        "resourceType": "Observation",
        "id": "141a3db3-c286-43f9-9b26-1ad5f8a5a4a3",
        "meta": {
          "profile": [
            "http://hl7.org/fhir/StructureDefinition/vitalsigns"
          ]
        },
        "category": [
          {
            "coding": [
              {
                "system": "http://terminology.hl7.org/CodeSystem/observation-category",
                "code": "vital-signs",
                "display": "Vital Signs"
              }
            ]
          }
        ],
        "valueQuantity": {
          "value": 79,
          "code": "mm[Hg]",
          "unit": "mm[Hg]"
        },
        "text": {
          "status": "generated",
          "div": "<div xmlns=\"http://www.w3.org/1999/xhtml\"><table class=\"hl7__ips\"><tr><th>Vital Sign</th><th>Date</th><th>Measurement</th></tr><tr><td>Diastolic Blood Pressure</td><td>04-Aug-2021</td><td>79 mm[Hg]</td></tr></table></div>"
        },
        "status": "final",
        "code": {
          "coding": [
            {
              "code": "$8462-4",
              "system": "http://loinc.org",
              "display": "Diastolic Blood Pressure"
            }
          ]
        },
        "subject": {
          "reference": "urn:uuid:e371bc4a-2970-465c-8eab-e5cf8cd255f9",
          "display": "Charlene Sharpe"
        },
        "effectiveDateTime": "2021-08-04"
      }
    },
    {
      "fullUrl": "urn:uuid:95e3f4c7-c420-448b-9674-9ab783d78eff",
      "resource": {
        "resourceType": "Observation",
        "id": "95e3f4c7-c420-448b-9674-9ab783d78eff",
        "meta": {
          "profile": [
            "http://hl7.org/fhir/StructureDefinition/vitalsigns"
          ]
        },
        "category": [
          {
            "coding": [
              {
                "system": "http://terminology.hl7.org/CodeSystem/observation-category",
                "code": "vital-signs",
                "display": "Vital Signs"
              }
            ]
          }
        ],
        "valueQuantity": {
          "value": 128,
          "code": "mm[Hg]",
          "unit": "mm[Hg]"
        },
        "text": {
          "status": "generated",
          "div": "<div xmlns=\"http://www.w3.org/1999/xhtml\"><table class=\"hl7__ips\"><tr><th>Vital Sign</th><th>Date</th><th>Measurement</th></tr><tr><td>Systolic Blood Pressure</td><td>04-Aug-2021</td><td>128 mm[Hg]</td></tr></table></div>"
        },
        "status": "final",
        "code": {
          "coding": [
            {
              "code": "$8480-6",
              "system": "http://loinc.org",
              "display": "Systolic Blood Pressure"
            }
          ]
        },
        "subject": {
          "reference": "urn:uuid:e371bc4a-2970-465c-8eab-e5cf8cd255f9",
          "display": "Charlene Sharpe"
        },
        "effectiveDateTime": "2021-08-04"
      }
    },
    {
      "fullUrl": "urn:uuid:1a04a717-3661-4c64-b57e-d8e46dbe93ee",
      "resource": {
        "resourceType": "Observation",
        "id": "1a04a717-3661-4c64-b57e-d8e46dbe93ee",
        "meta": {
          "profile": [
            "http://hl7.org/fhir/StructureDefinition/vitalsigns"
          ]
        },
        "category": [
          {
            "coding": [
              {
                "system": "http://terminology.hl7.org/CodeSystem/observation-category",
                "code": "vital-signs",
                "display": "Vital Signs"
              }
            ]
          }
        ],
        "valueQuantity": {
          "value": 73,
          "code": "/min",
          "unit": "/min"
        },
        "text": {
          "status": "generated",
          "div": "<div xmlns=\"http://www.w3.org/1999/xhtml\"><table class=\"hl7__ips\"><tr><th>Vital Sign</th><th>Date</th><th>Measurement</th></tr><tr><td>Heart rate</td><td>04-Aug-2021</td><td>73 /min</td></tr></table></div>"
        },
        "status": "final",
        "code": {
          "coding": [
            {
              "code": "$8867-4",
              "system": "http://loinc.org",
              "display": "Heart rate"
            }
          ]
        },
        "subject": {
          "reference": "urn:uuid:e371bc4a-2970-465c-8eab-e5cf8cd255f9",
          "display": "Charlene Sharpe"
        },
        "effectiveDateTime": "2021-08-04"
      }
    },
    {
      "fullUrl": "urn:uuid:3ca14c5f-5b38-4666-871f-83b78b4a1e77",
      "resource": {
        "resourceType": "Observation",
        "id": "3ca14c5f-5b38-4666-871f-83b78b4a1e77",
        "meta": {
          "profile": [
            "http://hl7.org/fhir/StructureDefinition/vitalsigns"
          ]
        },
        "category": [
          {
            "coding": [
              {
                "system": "http://terminology.hl7.org/CodeSystem/observation-category",
                "code": "vital-signs",
                "display": "Vital Signs"
              }
            ]
          }
        ],
        "valueQuantity": {
          "value": 14,
          "code": "/min",
          "unit": "/min"
        },
        "text": {
          "status": "generated",
          "div": "<div xmlns=\"http://www.w3.org/1999/xhtml\"><table class=\"hl7__ips\"><tr><th>Vital Sign</th><th>Date</th><th>Measurement</th></tr><tr><td>Respiratory rate</td><td>04-Aug-2021</td><td>14 /min</td></tr></table></div>"
        },
        "status": "final",
        "code": {
          "coding": [
            {
              "code": "$9279-1",
              "system": "http://loinc.org",
              "display": "Respiratory rate"
            }
          ]
        },
        "subject": {
          "reference": "urn:uuid:e371bc4a-2970-465c-8eab-e5cf8cd255f9",
          "display": "Charlene Sharpe"
        },
        "effectiveDateTime": "2021-08-04"
      }
    },
    {
      "fullUrl": "urn:uuid:8fbf7aab-fc6f-43f7-8958-20e55dbf8ea9",
      "resource": {
        "resourceType": "Observation",
        "id": "8fbf7aab-fc6f-43f7-8958-20e55dbf8ea9",
        "meta": {
          "profile": [
            "http://hl7.eu/fhir/laboratory/StructureDefinition/Observation-resultslab-eu-lab"
          ]
        },
        "performer": [
          {
            "display": "The Central European Lab"
          }
        ],
        "category": [
          {
            "coding": [
              {
                "system": "http://terminology.hl7.org/CodeSystem/observation-category",
                "code": "laboratory"
              }
            ]
          }
        ],
        "code": {
          "coding": [
            {
              "code": "2093-3",
              "system": "http://loinc.org",
              "display": "Cholesterol [Mass/volume] in Serum or Plasma"
            }
          ],
          "text": "Cholesterol [Mass/volume] in Serum or Plasma"
        },
        "valueQuantity": {
          "system": "http://unitsofmeasure.org",
          "value": 147.2,
          "unit": "mg/dL",
          "code": "mg/dL"
        },
        "referenceRange": [
          {
            "low": {
              "value": 125,
              "code": "mg/dL",
              "system": "http://unitsofmeasure.org"
            }
          },
          {
            "high": {
              "value": 200,
              "code": "mg/dL",
              "system": "http://unitsofmeasure.org"
            }
          }
        ],
        "text": {
          "status": "generated",
          "div": "<div xmlns=\"http://www.w3.org/1999/xhtml\"><table class=\"hl7__eu__lab__report\"><tr><th>Test</th><th>07-Aug-2024</th><th>Reference&#xA0;Range</th><th>Unit</th></tr><tr><td>Cholesterol [Mass/volume] in Serum or Plasma</td><td>147.2</td><td>125 - 200</td><td></td><td>mg/dL</td></tr></table></div>"
        },
        "status": "final",
        "subject": {
          "reference": "urn:uuid:e371bc4a-2970-465c-8eab-e5cf8cd255f9",
          "display": "Charlene Sharpe"
        },
        "effectiveDateTime": "2024-08-07T00:49:39Z"
      }
    },
    {
      "fullUrl": "urn:uuid:38dccc55-5a5b-4cf8-a76c-6eda5228d0e6",
      "resource": {
        "resourceType": "Observation",
        "id": "38dccc55-5a5b-4cf8-a76c-6eda5228d0e6",
        "meta": {
          "profile": [
            "http://hl7.eu/fhir/laboratory/StructureDefinition/Observation-resultslab-eu-lab"
          ]
        },
        "performer": [
          {
            "display": "The Central European Lab"
          }
        ],
        "category": [
          {
            "coding": [
              {
                "system": "http://terminology.hl7.org/CodeSystem/observation-category",
                "code": "laboratory"
              }
            ]
          }
        ],
        "code": {
          "coding": [
            {
              "code": "2571-8",
              "system": "http://loinc.org",
              "display": "Triglyceride [Mass/volume] in Serum or Plasma"
            }
          ],
          "text": "Triglyceride [Mass/volume] in Serum or Plasma"
        },
        "valueQuantity": {
          "system": "http://unitsofmeasure.org",
          "value": 123.7,
          "unit": "mg/dL",
          "code": "mg/dL"
        },
        "referenceRange": [
          {
            "low": {
              "value": 35,
              "code": "mg/dL",
              "system": "http://unitsofmeasure.org"
            }
          },
          {
            "high": {
              "value": 150,
              "code": "mg/dL",
              "system": "http://unitsofmeasure.org"
            }
          }
        ],
        "text": {
          "status": "generated",
          "div": "<div xmlns=\"http://www.w3.org/1999/xhtml\"><table class=\"hl7__eu__lab__report\"><tr><th>Test</th><th>07-Aug-2024</th><th>Reference&#xA0;Range</th><th>Unit</th></tr><tr><td>Triglyceride [Mass/volume] in Serum or Plasma</td><td>123.7</td><td>35 - 150</td><td></td><td>mg/dL</td></tr></table></div>"
        },
        "status": "final",
        "subject": {
          "reference": "urn:uuid:e371bc4a-2970-465c-8eab-e5cf8cd255f9",
          "display": "Charlene Sharpe"
        },
        "effectiveDateTime": "2024-08-07T00:49:39Z"
      }
    },
    {
      "fullUrl": "urn:uuid:e4e309fc-463d-43e5-acea-9080ddb3a02f",
      "resource": {
        "resourceType": "Observation",
        "id": "e4e309fc-463d-43e5-acea-9080ddb3a02f",
        "meta": {
          "profile": [
            "http://hl7.eu/fhir/laboratory/StructureDefinition/Observation-resultslab-eu-lab"
          ]
        },
        "performer": [
          {
            "display": "The Central European Lab"
          }
        ],
        "category": [
          {
            "coding": [
              {
                "system": "http://terminology.hl7.org/CodeSystem/observation-category",
                "code": "laboratory"
              }
            ]
          }
        ],
        "code": {
          "coding": [
            {
              "code": "18262-6",
              "system": "http://loinc.org",
              "display": "Cholesterol in LDL [Mass/volume] in Serum or Plasma by Direct assay"
            }
          ],
          "text": "Cholesterol in LDL [Mass/volume] in Serum or Plasma by Direct assay"
        },
        "valueQuantity": {
          "system": "http://unitsofmeasure.org",
          "value": 63.8,
          "unit": "mg/dL",
          "code": "mg/dL"
        },
        "referenceRange": [
          {
            "low": {
              "value": 0,
              "code": "mg/dL",
              "system": "http://unitsofmeasure.org"
            }
          },
          {
            "high": {
              "value": 130,
              "code": "mg/dL",
              "system": "http://unitsofmeasure.org"
            }
          }
        ],
        "text": {
          "status": "generated",
          "div": "<div xmlns=\"http://www.w3.org/1999/xhtml\"><table class=\"hl7__eu__lab__report\"><tr><th>Test</th><th>07-Aug-2024</th><th>Reference&#xA0;Range</th><th>Unit</th></tr><tr><td>Cholesterol in LDL [Mass/volume] in Serum or Plasma by Direct assay</td><td>63.8</td><td>0 - 130</td><td></td><td>mg/dL</td></tr></table></div>"
        },
        "status": "final",
        "subject": {
          "reference": "urn:uuid:e371bc4a-2970-465c-8eab-e5cf8cd255f9",
          "display": "Charlene Sharpe"
        },
        "effectiveDateTime": "2024-08-07T00:49:39Z"
      }
    },
    {
      "fullUrl": "urn:uuid:8d4cfa6a-729e-4c37-8498-919904b9018c",
      "resource": {
        "resourceType": "Observation",
        "id": "8d4cfa6a-729e-4c37-8498-919904b9018c",
        "meta": {
          "profile": [
            "http://hl7.eu/fhir/laboratory/StructureDefinition/Observation-resultslab-eu-lab"
          ]
        },
        "performer": [
          {
            "display": "The Central European Lab"
          }
        ],
        "category": [
          {
            "coding": [
              {
                "system": "http://terminology.hl7.org/CodeSystem/observation-category",
                "code": "laboratory"
              }
            ]
          }
        ],
        "code": {
          "coding": [
            {
              "code": "2085-9",
              "system": "http://loinc.org",
              "display": "Cholesterol in HDL [Mass/volume] in Serum or Plasma"
            }
          ],
          "text": "Cholesterol in HDL [Mass/volume] in Serum or Plasma"
        },
        "valueQuantity": {
          "system": "http://unitsofmeasure.org",
          "value": 58.7,
          "unit": "mg/dL",
          "code": "mg/dL"
        },
        "referenceRange": [
          {
            "low": {
              "value": 40,
              "code": "mg/dL",
              "system": "http://unitsofmeasure.org"
            }
          },
          {
            "high": {
              "value": 60,
              "code": "mg/dL",
              "system": "http://unitsofmeasure.org"
            }
          }
        ],
        "text": {
          "status": "generated",
          "div": "<div xmlns=\"http://www.w3.org/1999/xhtml\"><table class=\"hl7__eu__lab__report\"><tr><th>Test</th><th>07-Aug-2024</th><th>Reference&#xA0;Range</th><th>Unit</th></tr><tr><td>Cholesterol in HDL [Mass/volume] in Serum or Plasma</td><td>58.7</td><td>40 - 60</td><td></td><td>mg/dL</td></tr></table></div>"
        },
        "status": "final",
        "subject": {
          "reference": "urn:uuid:e371bc4a-2970-465c-8eab-e5cf8cd255f9",
          "display": "Charlene Sharpe"
        },
        "effectiveDateTime": "2024-08-07T00:49:39Z"
      }
    },
    {
      "fullUrl": "urn:uuid:d9197edf-2fcd-4535-999b-568265869314",
      "resource": {
        "resourceType": "Observation",
        "id": "d9197edf-2fcd-4535-999b-568265869314",
        "meta": {
          "profile": [
            "http://hl7.eu/fhir/laboratory/StructureDefinition/Observation-resultslab-eu-lab"
          ]
        },
        "performer": [
          {
            "display": "The Central European Lab"
          }
        ],
        "category": [
          {
            "coding": [
              {
                "system": "http://terminology.hl7.org/CodeSystem/observation-category",
                "code": "laboratory"
              }
            ]
          }
        ],
        "code": {
          "coding": [
            {
              "code": "6690-2",
              "system": "http://loinc.org",
              "display": "Leukocytes [#/volume] in Blood by Automated count"
            }
          ],
          "text": "Leukocytes [#/volume] in Blood by Automated count"
        },
        "valueQuantity": {
          "system": "http://unitsofmeasure.org",
          "value": 7.5,
          "unit": "10*3/uL",
          "code": "10*3/uL"
        },
        "referenceRange": [
          {
            "low": {
              "value": 3.5,
              "code": "10*3/uL",
              "system": "http://unitsofmeasure.org"
            }
          },
          {
            "high": {
              "value": 10.5,
              "code": "10*3/uL",
              "system": "http://unitsofmeasure.org"
            }
          }
        ],
        "text": {
          "status": "generated",
          "div": "<div xmlns=\"http://www.w3.org/1999/xhtml\"><table class=\"hl7__eu__lab__report\"><tr><th>Test</th><th>07-Aug-2024</th><th>Reference&#xA0;Range</th><th>Unit</th></tr><tr><td>Leukocytes [#/volume] in Blood by Automated count</td><td>7.5</td><td>3.5 - 10.5</td><td></td><td>10*3/uL</td></tr></table></div>"
        },
        "status": "final",
        "subject": {
          "reference": "urn:uuid:e371bc4a-2970-465c-8eab-e5cf8cd255f9",
          "display": "Charlene Sharpe"
        },
        "effectiveDateTime": "2024-08-07T00:49:39Z"
      }
    },
    {
      "fullUrl": "urn:uuid:0e84fb29-6130-46dc-9a78-dd65c3622e5f",
      "resource": {
        "resourceType": "Observation",
        "id": "0e84fb29-6130-46dc-9a78-dd65c3622e5f",
        "meta": {
          "profile": [
            "http://hl7.eu/fhir/laboratory/StructureDefinition/Observation-resultslab-eu-lab"
          ]
        },
        "performer": [
          {
            "display": "The Central European Lab"
          }
        ],
        "category": [
          {
            "coding": [
              {
                "system": "http://terminology.hl7.org/CodeSystem/observation-category",
                "code": "laboratory"
              }
            ]
          }
        ],
        "code": {
          "coding": [
            {
              "code": "789-8",
              "system": "http://loinc.org",
              "display": "Erythrocytes [#/volume] in Blood by Automated count"
            }
          ],
          "text": "Erythrocytes [#/volume] in Blood by Automated count"
        },
        "valueQuantity": {
          "system": "http://unitsofmeasure.org",
          "value": 5,
          "unit": "10*6/uL",
          "code": "10*6/uL"
        },
        "referenceRange": [
          {
            "low": {
              "value": 4.5,
              "code": "10*6/uL",
              "system": "http://unitsofmeasure.org"
            }
          },
          {
            "high": {
              "value": 5.5,
              "code": "10*6/uL",
              "system": "http://unitsofmeasure.org"
            }
          }
        ],
        "text": {
          "status": "generated",
          "div": "<div xmlns=\"http://www.w3.org/1999/xhtml\"><table class=\"hl7__eu__lab__report\"><tr><th>Test</th><th>07-Aug-2024</th><th>Reference&#xA0;Range</th><th>Unit</th></tr><tr><td>Erythrocytes [#/volume] in Blood by Automated count</td><td>5.0</td><td>4.5 - 5.5</td><td></td><td>10*6/uL</td></tr></table></div>"
        },
        "status": "final",
        "subject": {
          "reference": "urn:uuid:e371bc4a-2970-465c-8eab-e5cf8cd255f9",
          "display": "Charlene Sharpe"
        },
        "effectiveDateTime": "2024-08-07T00:49:39Z"
      }
    },
    {
      "fullUrl": "urn:uuid:4a305f29-f089-448e-bfe3-d029f69fce5a",
      "resource": {
        "resourceType": "Observation",
        "id": "4a305f29-f089-448e-bfe3-d029f69fce5a",
        "meta": {
          "profile": [
            "http://hl7.eu/fhir/laboratory/StructureDefinition/Observation-resultslab-eu-lab"
          ]
        },
        "performer": [
          {
            "display": "The Central European Lab"
          }
        ],
        "category": [
          {
            "coding": [
              {
                "system": "http://terminology.hl7.org/CodeSystem/observation-category",
                "code": "laboratory"
              }
            ]
          }
        ],
        "code": {
          "coding": [
            {
              "code": "718-7",
              "system": "http://loinc.org",
              "display": "Hemoglobin [Mass/volume] in Blood"
            }
          ],
          "text": "Hemoglobin [Mass/volume] in Blood"
        },
        "valueQuantity": {
          "system": "http://unitsofmeasure.org",
          "value": 14.2,
          "unit": "g/dL",
          "code": "g/dL"
        },
        "referenceRange": [
          {
            "low": {
              "value": 12,
              "code": "g/dL",
              "system": "http://unitsofmeasure.org"
            }
          },
          {
            "high": {
              "value": 16,
              "code": "g/dL",
              "system": "http://unitsofmeasure.org"
            }
          }
        ],
        "text": {
          "status": "generated",
          "div": "<div xmlns=\"http://www.w3.org/1999/xhtml\"><table class=\"hl7__eu__lab__report\"><tr><th>Test</th><th>07-Aug-2024</th><th>Reference&#xA0;Range</th><th>Unit</th></tr><tr><td>Hemoglobin [Mass/volume] in Blood</td><td>14.2</td><td>12 - 16</td><td></td><td>g/dL</td></tr></table></div>"
        },
        "status": "final",
        "subject": {
          "reference": "urn:uuid:e371bc4a-2970-465c-8eab-e5cf8cd255f9",
          "display": "Charlene Sharpe"
        },
        "effectiveDateTime": "2024-08-07T00:49:39Z"
      }
    },
    {
      "fullUrl": "urn:uuid:c6083fa5-c0bd-4f48-be0a-d055812d8e18",
      "resource": {
        "resourceType": "Observation",
        "id": "c6083fa5-c0bd-4f48-be0a-d055812d8e18",
        "meta": {
          "profile": [
            "http://hl7.eu/fhir/laboratory/StructureDefinition/Observation-resultslab-eu-lab"
          ]
        },
        "performer": [
          {
            "display": "The Central European Lab"
          }
        ],
        "category": [
          {
            "coding": [
              {
                "system": "http://terminology.hl7.org/CodeSystem/observation-category",
                "code": "laboratory"
              }
            ]
          }
        ],
        "code": {
          "coding": [
            {
              "code": "4544-3",
              "system": "http://loinc.org",
              "display": "Hematocrit [Volume Fraction] of Blood by Automated count"
            }
          ],
          "text": "Hematocrit [Volume Fraction] of Blood by Automated count"
        },
        "valueQuantity": {
          "system": "http://unitsofmeasure.org",
          "value": 39.4,
          "unit": "%",
          "code": "%"
        },
        "referenceRange": [
          {
            "low": {
              "value": 36,
              "code": "%",
              "system": "http://unitsofmeasure.org"
            }
          },
          {
            "high": {
              "value": 48,
              "code": "%",
              "system": "http://unitsofmeasure.org"
            }
          }
        ],
        "text": {
          "status": "generated",
          "div": "<div xmlns=\"http://www.w3.org/1999/xhtml\"><table class=\"hl7__eu__lab__report\"><tr><th>Test</th><th>07-Aug-2024</th><th>Reference&#xA0;Range</th><th>Unit</th></tr><tr><td>Hematocrit [Volume Fraction] of Blood by Automated count</td><td>39.4</td><td>36 - 48</td><td></td><td>%</td></tr></table></div>"
        },
        "status": "final",
        "subject": {
          "reference": "urn:uuid:e371bc4a-2970-465c-8eab-e5cf8cd255f9",
          "display": "Charlene Sharpe"
        },
        "effectiveDateTime": "2024-08-07T00:49:39Z"
      }
    },
    {
      "fullUrl": "urn:uuid:0a370b69-cd37-43a2-bb8f-fd0e68b05aa3",
      "resource": {
        "resourceType": "Observation",
        "id": "0a370b69-cd37-43a2-bb8f-fd0e68b05aa3",
        "meta": {
          "profile": [
            "http://hl7.eu/fhir/laboratory/StructureDefinition/Observation-resultslab-eu-lab"
          ]
        },
        "performer": [
          {
            "display": "The Central European Lab"
          }
        ],
        "category": [
          {
            "coding": [
              {
                "system": "http://terminology.hl7.org/CodeSystem/observation-category",
                "code": "laboratory"
              }
            ]
          }
        ],
        "code": {
          "coding": [
            {
              "code": "787-2",
              "system": "http://loinc.org",
              "display": "MCV [Entitic volume] by Automated count"
            }
          ],
          "text": "MCV [Entitic volume] by Automated count"
        },
        "valueQuantity": {
          "system": "http://unitsofmeasure.org",
          "value": 90.1,
          "unit": "fL",
          "code": "fL"
        },
        "referenceRange": [
          {
            "low": {
              "value": 82,
              "code": "fL",
              "system": "http://unitsofmeasure.org"
            }
          },
          {
            "high": {
              "value": 98,
              "code": "fL",
              "system": "http://unitsofmeasure.org"
            }
          }
        ],
        "text": {
          "status": "generated",
          "div": "<div xmlns=\"http://www.w3.org/1999/xhtml\"><table class=\"hl7__eu__lab__report\"><tr><th>Test</th><th>07-Aug-2024</th><th>Reference&#xA0;Range</th><th>Unit</th></tr><tr><td>MCV [Entitic volume] by Automated count</td><td>90.1</td><td>82 - 98</td><td></td><td>fL</td></tr></table></div>"
        },
        "status": "final",
        "subject": {
          "reference": "urn:uuid:e371bc4a-2970-465c-8eab-e5cf8cd255f9",
          "display": "Charlene Sharpe"
        },
        "effectiveDateTime": "2024-08-07T00:49:39Z"
      }
    },
    {
      "fullUrl": "urn:uuid:1c3eaed3-09f3-447c-853b-f1be934f9d89",
      "resource": {
        "resourceType": "Observation",
        "id": "1c3eaed3-09f3-447c-853b-f1be934f9d89",
        "meta": {
          "profile": [
            "http://hl7.eu/fhir/laboratory/StructureDefinition/Observation-resultslab-eu-lab"
          ]
        },
        "performer": [
          {
            "display": "The Central European Lab"
          }
        ],
        "category": [
          {
            "coding": [
              {
                "system": "http://terminology.hl7.org/CodeSystem/observation-category",
                "code": "laboratory"
              }
            ]
          }
        ],
        "code": {
          "coding": [
            {
              "code": "785-6",
              "system": "http://loinc.org",
              "display": "MCH [Entitic mass] by Automated count"
            }
          ],
          "text": "MCH [Entitic mass] by Automated count"
        },
        "valueQuantity": {
          "system": "http://unitsofmeasure.org",
          "value": 31.5,
          "unit": "pg",
          "code": "pg"
        },
        "referenceRange": [
          {
            "low": {
              "value": 27.5,
              "code": "pg",
              "system": "http://unitsofmeasure.org"
            }
          },
          {
            "high": {
              "value": 34.5,
              "code": "pg",
              "system": "http://unitsofmeasure.org"
            }
          }
        ],
        "text": {
          "status": "generated",
          "div": "<div xmlns=\"http://www.w3.org/1999/xhtml\"><table class=\"hl7__eu__lab__report\"><tr><th>Test</th><th>07-Aug-2024</th><th>Reference&#xA0;Range</th><th>Unit</th></tr><tr><td>MCH [Entitic mass] by Automated count</td><td>31.5</td><td>27.5 - 34.5</td><td></td><td>pg</td></tr></table></div>"
        },
        "status": "final",
        "subject": {
          "reference": "urn:uuid:e371bc4a-2970-465c-8eab-e5cf8cd255f9",
          "display": "Charlene Sharpe"
        },
        "effectiveDateTime": "2024-08-07T00:49:39Z"
      }
    },
    {
      "fullUrl": "urn:uuid:ec781f4c-8589-49e0-b2fd-c6780889cd8a",
      "resource": {
        "resourceType": "Observation",
        "id": "ec781f4c-8589-49e0-b2fd-c6780889cd8a",
        "meta": {
          "profile": [
            "http://hl7.eu/fhir/laboratory/StructureDefinition/Observation-resultslab-eu-lab"
          ]
        },
        "performer": [
          {
            "display": "The Central European Lab"
          }
        ],
        "category": [
          {
            "coding": [
              {
                "system": "http://terminology.hl7.org/CodeSystem/observation-category",
                "code": "laboratory"
              }
            ]
          }
        ],
        "code": {
          "coding": [
            {
              "code": "786-4",
              "system": "http://loinc.org",
              "display": "MCHC [Mass/volume] by Automated count"
            }
          ],
          "text": "MCHC [Mass/volume] by Automated count"
        },
        "valueQuantity": {
          "system": "http://unitsofmeasure.org",
          "value": 35.7,
          "unit": "g/dL",
          "code": "g/dL"
        },
        "referenceRange": [
          {
            "low": {
              "value": 32,
              "code": "g/dL",
              "system": "http://unitsofmeasure.org"
            }
          },
          {
            "high": {
              "value": 37,
              "code": "g/dL",
              "system": "http://unitsofmeasure.org"
            }
          }
        ],
        "text": {
          "status": "generated",
          "div": "<div xmlns=\"http://www.w3.org/1999/xhtml\"><table class=\"hl7__eu__lab__report\"><tr><th>Test</th><th>07-Aug-2024</th><th>Reference&#xA0;Range</th><th>Unit</th></tr><tr><td>MCHC [Mass/volume] by Automated count</td><td>35.7</td><td>32 - 37</td><td></td><td>g/dL</td></tr></table></div>"
        },
        "status": "final",
        "subject": {
          "reference": "urn:uuid:e371bc4a-2970-465c-8eab-e5cf8cd255f9",
          "display": "Charlene Sharpe"
        },
        "effectiveDateTime": "2024-08-07T00:49:39Z"
      }
    },
    {
      "fullUrl": "urn:uuid:6f9568e1-863c-49e2-9111-4907a78f537a",
      "resource": {
        "resourceType": "Observation",
        "id": "6f9568e1-863c-49e2-9111-4907a78f537a",
        "meta": {
          "profile": [
            "http://hl7.eu/fhir/laboratory/StructureDefinition/Observation-resultslab-eu-lab"
          ]
        },
        "performer": [
          {
            "display": "The Central European Lab"
          }
        ],
        "category": [
          {
            "coding": [
              {
                "system": "http://terminology.hl7.org/CodeSystem/observation-category",
                "code": "laboratory"
              }
            ]
          }
        ],
        "code": {
          "coding": [
            {
              "code": "21000-5",
              "system": "http://loinc.org",
              "display": "Erythrocyte distribution width [Entitic volume] by Automated count"
            }
          ],
          "text": "Erythrocyte distribution width [Entitic volume] by Automated count"
        },
        "valueQuantity": {
          "system": "http://unitsofmeasure.org",
          "value": 46,
          "unit": "fL",
          "code": "fL"
        },
        "referenceRange": [
          {
            "low": {
              "value": 36,
              "code": "fL",
              "system": "http://unitsofmeasure.org"
            }
          },
          {
            "high": {
              "value": 55,
              "code": "fL",
              "system": "http://unitsofmeasure.org"
            }
          }
        ],
        "text": {
          "status": "generated",
          "div": "<div xmlns=\"http://www.w3.org/1999/xhtml\"><table class=\"hl7__eu__lab__report\"><tr><th>Test</th><th>07-Aug-2024</th><th>Reference&#xA0;Range</th><th>Unit</th></tr><tr><td>Erythrocyte distribution width [Entitic volume] by Automated count</td><td>46.0</td><td>36 - 55</td><td></td><td>fL</td></tr></table></div>"
        },
        "status": "final",
        "subject": {
          "reference": "urn:uuid:e371bc4a-2970-465c-8eab-e5cf8cd255f9",
          "display": "Charlene Sharpe"
        },
        "effectiveDateTime": "2024-08-07T00:49:39Z"
      }
    },
    {
      "fullUrl": "urn:uuid:f199c378-705c-4957-93f3-39a372f8037e",
      "resource": {
        "resourceType": "Observation",
        "id": "f199c378-705c-4957-93f3-39a372f8037e",
        "meta": {
          "profile": [
            "http://hl7.eu/fhir/laboratory/StructureDefinition/Observation-resultslab-eu-lab"
          ]
        },
        "performer": [
          {
            "display": "The Central European Lab"
          }
        ],
        "category": [
          {
            "coding": [
              {
                "system": "http://terminology.hl7.org/CodeSystem/observation-category",
                "code": "laboratory"
              }
            ]
          }
        ],
        "code": {
          "coding": [
            {
              "code": "777-3",
              "system": "http://loinc.org",
              "display": "Platelets [#/volume] in Blood by Automated count"
            }
          ],
          "text": "Platelets [#/volume] in Blood by Automated count"
        },
        "valueQuantity": {
          "system": "http://unitsofmeasure.org",
          "value": 343.1,
          "unit": "10*3/uL",
          "code": "10*3/uL"
        },
        "referenceRange": [
          {
            "low": {
              "value": 150,
              "code": "10*3/uL",
              "system": "http://unitsofmeasure.org"
            }
          },
          {
            "high": {
              "value": 450,
              "code": "10*3/uL",
              "system": "http://unitsofmeasure.org"
            }
          }
        ],
        "text": {
          "status": "generated",
          "div": "<div xmlns=\"http://www.w3.org/1999/xhtml\"><table class=\"hl7__eu__lab__report\"><tr><th>Test</th><th>07-Aug-2024</th><th>Reference&#xA0;Range</th><th>Unit</th></tr><tr><td>Platelets [#/volume] in Blood by Automated count</td><td>343.1</td><td>150 - 450</td><td></td><td>10*3/uL</td></tr></table></div>"
        },
        "status": "final",
        "subject": {
          "reference": "urn:uuid:e371bc4a-2970-465c-8eab-e5cf8cd255f9",
          "display": "Charlene Sharpe"
        },
        "effectiveDateTime": "2024-08-07T00:49:39Z"
      }
    },
    {
      "fullUrl": "urn:uuid:f874e104-a10e-43bf-94a3-80e55b37e9c3",
      "resource": {
        "resourceType": "Observation",
        "id": "f874e104-a10e-43bf-94a3-80e55b37e9c3",
        "meta": {
          "profile": [
            "http://hl7.eu/fhir/laboratory/StructureDefinition/Observation-resultslab-eu-lab"
          ]
        },
        "performer": [
          {
            "display": "The Central European Lab"
          }
        ],
        "category": [
          {
            "coding": [
              {
                "system": "http://terminology.hl7.org/CodeSystem/observation-category",
                "code": "laboratory"
              }
            ]
          }
        ],
        "code": {
          "coding": [
            {
              "code": "32207-3",
              "system": "http://loinc.org",
              "display": "Platelet distribution width [Entitic volume] in Blood by Automated count"
            }
          ],
          "text": "Platelet distribution width [Entitic volume] in Blood by Automated count"
        },
        "valueQuantity": {
          "system": "http://unitsofmeasure.org",
          "value": 305.1,
          "unit": "fL",
          "code": "fL"
        },
        "referenceRange": [
          {
            "low": {
              "value": 11,
              "code": "fL",
              "system": "http://unitsofmeasure.org"
            }
          },
          {
            "high": {
              "value": 15,
              "code": "fL",
              "system": "http://unitsofmeasure.org"
            }
          }
        ],
        "interpretation": [
          {
            "coding": [
              {
                "code": "H",
                "system": "http://terminology.hl7.org/CodeSystem/v3-ObservationInterpretation",
                "display": "High"
              }
            ]
          }
        ],
        "text": {
          "status": "generated",
          "div": "<div xmlns=\"http://www.w3.org/1999/xhtml\"><table class=\"hl7__eu__lab__report\"><tr><th>Test</th><th>07-Aug-2024</th><th>Reference&#xA0;Range</th><th>Unit</th></tr><tr><td>Platelet distribution width [Entitic volume] in Blood by Automated count</td><td>305.1</td><td>11 - 15</td><td>H</td><td>fL</td></tr></table></div>"
        },
        "status": "final",
        "subject": {
          "reference": "urn:uuid:e371bc4a-2970-465c-8eab-e5cf8cd255f9",
          "display": "Charlene Sharpe"
        },
        "effectiveDateTime": "2024-08-07T00:49:39Z"
      }
    },
    {
      "fullUrl": "urn:uuid:ff7e5acb-fccf-40f5-99cc-c2f71c6029f2",
      "resource": {
        "resourceType": "Observation",
        "id": "ff7e5acb-fccf-40f5-99cc-c2f71c6029f2",
        "meta": {
          "profile": [
            "http://hl7.eu/fhir/laboratory/StructureDefinition/Observation-resultslab-eu-lab"
          ]
        },
        "performer": [
          {
            "display": "The Central European Lab"
          }
        ],
        "category": [
          {
            "coding": [
              {
                "system": "http://terminology.hl7.org/CodeSystem/observation-category",
                "code": "laboratory"
              }
            ]
          }
        ],
        "code": {
          "coding": [
            {
              "code": "32623-1",
              "system": "http://loinc.org",
              "display": "Platelet mean volume [Entitic volume] in Blood by Automated count"
            }
          ],
          "text": "Platelet mean volume [Entitic volume] in Blood by Automated count"
        },
        "valueQuantity": {
          "system": "http://unitsofmeasure.org",
          "value": 9.8,
          "unit": "fL",
          "code": "fL"
        },
        "referenceRange": [
          {
            "low": {
              "value": 7.2,
              "code": "fL",
              "system": "http://unitsofmeasure.org"
            }
          },
          {
            "high": {
              "value": 13.8,
              "code": "fL",
              "system": "http://unitsofmeasure.org"
            }
          }
        ],
        "text": {
          "status": "generated",
          "div": "<div xmlns=\"http://www.w3.org/1999/xhtml\"><table class=\"hl7__eu__lab__report\"><tr><th>Test</th><th>07-Aug-2024</th><th>Reference&#xA0;Range</th><th>Unit</th></tr><tr><td>Platelet mean volume [Entitic volume] in Blood by Automated count</td><td>9.8</td><td>7.2 - 13.8</td><td></td><td>fL</td></tr></table></div>"
        },
        "status": "final",
        "subject": {
          "reference": "urn:uuid:e371bc4a-2970-465c-8eab-e5cf8cd255f9",
          "display": "Charlene Sharpe"
        },
        "effectiveDateTime": "2024-08-07T00:49:39Z"
      }
    },
    {
      "fullUrl": "urn:uuid:0f9fe6b1-66e5-4c2a-804f-b7e7a114eb6f",
      "resource": {
        "resourceType": "Device",
        "id": "0f9fe6b1-66e5-4c2a-804f-b7e7a114eb6f",
        "deviceName": [
          {
            "name": "SYNDERAI Synthetic Generator",
            "type": "manufacturer-name"
          }
        ],
        "version": [
          {
            "value": "5.0"
          }
        ],
        "text": {
          "status": "generated",
          "div": "<div xmlns=\"http://www.w3.org/1999/xhtml\">SYNDERAI Synthetic Generator v5.0</div>"
        },
        "status": "active\"",
        "distinctIdentifier": "synderai-generator-50",
        "manufacturer": "SYNDERAI Project"
      }
    },
    {
      "fullUrl": "urn:uuid:915c642d-c099-4bdc-8ab8-482a9eedafa0",
      "resource": {
        "resourceType": "Provenance",
        "id": "915c642d-c099-4bdc-8ab8-482a9eedafa0",
        "target": [
          {
            "reference": "Patient/e371bc4a-2970-465c-8eab-e5cf8cd255f9"
          },
          {
            "reference": "Bundle/63ec5f59-c135-4826-83c7-609e64e62363"
          },
          {
            "reference": "Composition/4db4af21-cab5-454a-99f1-05fd2f756697"
          },
          {
            "reference": "PractitionerRole/1143a6d3-55d5-448a-93a9-8ca251cc8237"
          },
          {
            "reference": "Organization/6c7a8322-e7f9-41be-930e-19e775238e7b"
          },
          {
            "reference": "Practitioner/154aa02c-d991-4a13-aa0d-4cd1f5d82ebd"
          }
        ],
        "activity": {
          "text": "Synthetic Example Data Generation"
        },
        "policy": [
          "https://synderai.net/synderai-synthetic-data-policy"
        ],
        "agent": [
          {
            "type": {
              "text": "author"
            },
            "who": {
              "reference": "Device/0f9fe6b1-66e5-4c2a-804f-b7e7a114eb6f"
            }
          }
        ],
        "reason": [
          {
            "text": "Interoperability Testing and Training (non-clinical use)"
          }
        ],
        "text": {
          "status": "generated",
          "div": "<div xmlns=\"http://www.w3.org/1999/xhtml\">Provenance for SYNDERAI Synthetic Example Data Resource</div>"
        },
        "recorded": "2024-08-07T00:49:39Z"
      }
    }
  ],
  "type": "document",
  "timestamp": "2024-08-07T00:49:39Z"
}
