<Bundle xmlns="http://hl7.org/fhir">
   <id value="abad48b1-2e29-4e19-8fb8-33d9862fe9f9"/>
   <meta>
      <profile value="http://hl7.eu/fhir/eps/StructureDefinition/bundle-eu-eps"/>
   </meta>
   <identifier>
      <system value="urn:oid:2.16.840.1.113883.2.51.999"/>
      <value value="6daf0ee6-8e2e-47b6-8d86-7295f51bc8c1"/>
      <assigner>
         <display value="HL7 Europe"/>
      </assigner>
   </identifier>
   <type value="document"/>
   <timestamp value="2025-06-04T06:55:50Z"/>
   <entry>
      <fullUrl value="urn:uuid:923e9124-80f2-4ece-bf51-dea9d36b4d54"/>
      <resource>
         <Composition>
            <id value="923e9124-80f2-4ece-bf51-dea9d36b4d54"/>
            <meta>
               <profile value="http://hl7.eu/fhir/eps/StructureDefinition/composition-eu-eps"/>
               <security>
                  <system value="http://terminology.hl7.org/CodeSystem/v3-ActReason"/>
                  <code value="HTEST"/>
               </security>
               <security>
                  <system value="http://terminology.hl7.org/CodeSystem/v3-ActReason"/>
                  <code value="TRAIN"/>
               </security>
               <tag>
                  <system value="https://synderai.net/fhir/CodeSystem/tags"/>
                  <code value="synthetic"/>
                  <display value="SYNDERAI Synthetic data"/>
               </tag>
            </meta>
            <identifier>
               <system value="urn:oid:2.16.840.1.113883.2.51.999"/>
               <value value="c0c21119-bad5-4b28-8447-99c668fc4ae0"/>
               <assigner>
                  <display value="HL7 Europe"/>
               </assigner>
            </identifier>
            <status value="final"/>
            <type>
               <coding>
                  <system value="http://loinc.org"/>
                  <code value="60591-5"/>
                  <display value="Patient summary Document"/>
               </coding>
               <text value="Patient summary Document"/>
            </type>
            <subject>
               <reference value="urn:uuid:c32f74ec-f559-4c50-be37-3c8de05bb2ce"/>
               <display value="Stephen Weinhage"/>
            </subject>
            <date value="2025-06-04"/>
            <author>
               <reference value="urn:uuid:097bfa50-f478-479d-817d-d0ed39591b15"/>
            </author>
            <title value="European Patient Summary"/>
            <confidentiality value="N"/>
            <custodian>
               <reference value="urn:uuid:414443e5-df5a-4636-ba4f-d48f5132c439"/>
            </custodian>
            <section>
               <title value="Problem list"/>
               <code>
                  <coding>
                     <system value="http://loinc.org"/>
                     <code value="11450-4"/>
                     <display value="Problem list - Reported"/>
                  </coding>
               </code>
               <text>
                  <status value="generated"/>
                  <div xmlns="http://www.w3.org/1999/xhtml">
                     <table class="hl7__ips">
                        <tr>
                           <th>Condition</th>
                           <th>Onset Date</th>
                           <th>Status</th>
                        </tr>
                        <tr>
                           <td>Retinopathy due to type 2 diabetes mellitus</td>
                           <td>
                              <span class="nb">20-May-2024</span>
                           </td>
                           <td>active</td>
                        </tr>
                        <tr>
                           <td>Hyperlipidemia</td>
                           <td>
                              <span class="nb">15-May-2023</span>
                           </td>
                           <td>active</td>
                        </tr>
                        <tr>
                           <td>Hypertriglyceridemia</td>
                           <td>
                              <span class="nb">10-Apr-2017</span>
                           </td>
                           <td>active</td>
                        </tr>
                        <tr>
                           <td>Type 2 diabetes mellitus</td>
                           <td>
                              <span class="nb">04-Apr-2016</span>
                           </td>
                           <td>active</td>
                        </tr>
                        <tr>
                           <td>Ischemic heart disease</td>
                           <td>
                              <span class="nb">24-Mar-2014</span>
                           </td>
                           <td>active</td>
                        </tr>
                        <tr>
                           <td>Metabolic syndrome X</td>
                           <td>
                              <span class="nb">08-Jan-2001</span>
                           </td>
                           <td>active</td>
                        </tr>
                        <tr>
                           <td>Polyp of colon</td>
                           <td>
                              <span class="nb">04-Jan-1999</span>
                           </td>
                           <td>active</td>
                        </tr>
                        <tr>
                           <td>Essential hypertension</td>
                           <td>
                              <span class="nb">28-Dec-1998</span>
                           </td>
                           <td>active</td>
                        </tr>
                        <tr>
                           <td>Prediabetes</td>
                           <td>
                              <span class="nb">07-Mar-1977</span>
                           </td>
                           <td>active</td>
                        </tr>
                        <tr>
                           <td>Anemia</td>
                           <td>
                              <span class="nb">07-Mar-1977</span>
                           </td>
                           <td>active</td>
                        </tr>
                        <tr>
                           <td>Chronic sinusitis</td>
                           <td>
                              <span class="nb">28-Aug-1972</span>
                           </td>
                           <td>active</td>
                        </tr>
                     </table>
                  </div>
               </text>
               <entry>
                  <reference value="urn:uuid:e94bbdd4-64b8-4ba7-9575-bd4a90c1db5a"/>
               </entry>
               <entry>
                  <reference value="urn:uuid:88350441-72ee-4fc9-a4a8-48674aef0bfc"/>
               </entry>
               <entry>
                  <reference value="urn:uuid:e3a281fd-5985-4e09-bb91-9e54b001f1b4"/>
               </entry>
               <entry>
                  <reference value="urn:uuid:8f2326d3-6935-48a6-a681-d7757059bd49"/>
               </entry>
               <entry>
                  <reference value="urn:uuid:dfc4aee1-4636-4c95-8e48-de981a74bef4"/>
               </entry>
               <entry>
                  <reference value="urn:uuid:5fc9b55d-930c-4818-9816-b4c17cd35462"/>
               </entry>
               <entry>
                  <reference value="urn:uuid:d14c134b-5d8a-4203-bff9-bc57d5b9cf20"/>
               </entry>
               <entry>
                  <reference value="urn:uuid:b119f54c-480d-493a-9d6a-7af0ecbc242c"/>
               </entry>
               <entry>
                  <reference value="urn:uuid:ca57eb74-4273-49e4-8f34-add538cbdaf7"/>
               </entry>
               <entry>
                  <reference value="urn:uuid:9fd9ad43-df3f-41eb-bbad-53240bc07e6b"/>
               </entry>
               <entry>
                  <reference value="urn:uuid:00f72d0c-cb7f-492a-9514-fdd206d474b8"/>
               </entry>
            </section>
            <section>
               <title value="Medication list"/>
               <code>
                  <coding>
                     <system value="http://loinc.org"/>
                     <code value="10160-0"/>
                     <display value="History of Medication use Narrative"/>
                  </coding>
               </code>
               <text>
                  <status value="generated"/>
                  <div xmlns="http://www.w3.org/1999/xhtml">
                     <table class="hl7__ips">
                        <tr>
                           <th>Medication</th>
                           <th>Since</th>
                           <th>Form</th>
                           <th>Dosage</th>
                           <th>Reason</th>
                        </tr>
                        <tr>
                           <td>Simvastatin 10 mg oral tablet</td>
                           <td>
                              <span class="nb">2025-06-04</span>
                           </td>
                           <td>-</td>
                           <td>1 tablet (10 mg) by mouth once daily</td>
                           <td>Hyperlipidemia</td>
                        </tr>
                        <tr>
                           <td>Amlodipine (as amlodipine besylate) 2.5 mg oral tablet</td>
                           <td>
                              <span class="nb">2025-05-26</span>
                           </td>
                           <td>-</td>
                           <td>1 tablet (2.5 mg) by mouth once daily</td>
                           <td>Essential hypertension (disorder)</td>
                        </tr>
                        <tr>
                           <td>Clopidogrel (as clopidogrel bisulfate) 75 mg oral tablet</td>
                           <td>
                              <span class="nb">2014-03-31</span>
                           </td>
                           <td>-</td>
                           <td>1 tablet (75 mg) once daily</td>
                           <td>-</td>
                        </tr>
                        <tr>
                           <td>Simvastatin 20 mg oral tablet</td>
                           <td>
                              <span class="nb">2014-03-31</span>
                           </td>
                           <td>-</td>
                           <td>1 tablet (20 mg) by mouth once daily</td>
                           <td>-</td>
                        </tr>
                        <tr>
                           <td>Nitroglycerin 400 microgram/actuation sublingual spray</td>
                           <td>
                              <span class="nb">2014-03-31</span>
                           </td>
                           <td>-</td>
                           <td>400 micrograms per spray, 1 spray under the tongue as needed for chest pain, may repeat every 5 minutes as needed, up to 3 sprays in 15 minutes</td>
                           <td>-</td>
                        </tr>
                        <tr>
                           <td>Metoprolol tartrate (as metoprolol succinate) 100 mg prolonged-release oral tablet</td>
                           <td>
                              <span class="nb">2014-03-31</span>
                           </td>
                           <td>-</td>
                           <td>1 tablet (100 mg) once daily</td>
                           <td>-</td>
                        </tr>
                     </table>
                  </div>
               </text>
               <entry>
                  <reference value="urn:uuid:2d60a425-582f-4250-b267-8a666fe4a770"/>
               </entry>
               <entry>
                  <reference value="urn:uuid:499d886e-0b55-408a-9de3-2cff56dc3f66"/>
               </entry>
               <entry>
                  <reference value="urn:uuid:3d0ab46e-3946-4de1-928b-d0f8b05d3b79"/>
               </entry>
               <entry>
                  <reference value="urn:uuid:b3015365-3bdf-40f2-9917-237481763cdc"/>
               </entry>
               <entry>
                  <reference value="urn:uuid:45c911a7-6963-46a3-a66b-1906c314eacc"/>
               </entry>
               <entry>
                  <reference value="urn:uuid:c67d3e71-2b3c-4cef-a4a4-3c07af0fff35"/>
               </entry>
            </section>
            <section>
               <title value="Immunizations list"/>
               <code>
                  <coding>
                     <system value="http://loinc.org"/>
                     <code value="11369-6"/>
                     <display value="History of Immunization note"/>
                  </coding>
               </code>
               <text>
                  <status value="generated"/>
                  <div xmlns="http://www.w3.org/1999/xhtml">
                     <table class="hl7__ips">
                        <tr>
                           <th>Vaccine</th>
                           <th>Date</th>
                        </tr>
                        <tr>
                           <td>Influenza virus antigen only vaccine product</td>
                           <td>
                              <span class="nb">26-May-2025</span>
                           </td>
                        </tr>
                        <tr>
                           <td>SARS-CoV-2 mRNA vaccine</td>
                           <td>
                              <span class="nb">22-Feb-2021</span>
                           </td>
                        </tr>
                        <tr>
                           <td>Clostridium tetani toxoid antigen adsorbed only vaccine product</td>
                           <td>
                              <span class="nb">27-Apr-2020</span>
                           </td>
                        </tr>
                     </table>
                  </div>
               </text>
               <entry>
                  <reference value="urn:uuid:421e091e-970a-4c20-a0c4-dfabf01a90b4"/>
               </entry>
               <entry>
                  <reference value="urn:uuid:7ab06bb5-5bff-4361-936e-0a2de3427d3b"/>
               </entry>
               <entry>
                  <reference value="urn:uuid:2dfb5665-d205-4a2c-a7ad-cc34c13ef456"/>
               </entry>
            </section>
            <section>
               <title value="Procedure History list"/>
               <code>
                  <coding>
                     <system value="http://loinc.org"/>
                     <code value="47519-4"/>
                     <display value="History of Procedures Document"/>
                  </coding>
               </code>
               <text>
                  <status value="generated"/>
                  <div xmlns="http://www.w3.org/1999/xhtml">
                     <table class="hl7__ips">
                        <tr>
                           <th>Procedure</th>
                           <th>Date</th>
                           <th>Reason</th>
                        </tr>
                        <tr>
                           <td>Patient discharge</td>
                           <td>
                              <span class="nb">02-Jan-2024</span>
                           </td>
                           <td>-</td>
                        </tr>
                        <tr>
                           <td>Notifications</td>
                           <td>
                              <span class="nb">01-Jan-2024</span>
                           </td>
                           <td>-</td>
                        </tr>
                        <tr>
                           <td>Certification procedure</td>
                           <td>
                              <span class="nb">01-Jan-2024</span>
                           </td>
                           <td>-</td>
                        </tr>
                        <tr>
                           <td>Initial patient assessment</td>
                           <td>
                              <span class="nb">01-Jan-2024</span>
                           </td>
                           <td>-</td>
                        </tr>
                        <tr>
                           <td>Development of individualized plan of care</td>
                           <td>
                              <span class="nb">01-Jan-2024</span>
                           </td>
                           <td>-</td>
                        </tr>
                        <tr>
                           <td>Hospice care</td>
                           <td>
                              <span class="nb">01-Jan-2024</span>
                           </td>
                           <td>-</td>
                        </tr>
                     </table>
                  </div>
               </text>
               <entry>
                  <reference value="urn:uuid:b3578862-5402-4ff2-8472-002903cac6da"/>
               </entry>
               <entry>
                  <reference value="urn:uuid:4d8bcfb5-0b45-468d-8102-ea80d87ad902"/>
               </entry>
               <entry>
                  <reference value="urn:uuid:094e7515-044e-499d-ac38-fe56919544f9"/>
               </entry>
               <entry>
                  <reference value="urn:uuid:8d6fd57f-ee83-49fb-95ee-d617a74c3c33"/>
               </entry>
               <entry>
                  <reference value="urn:uuid:91a7f3e5-8e63-4038-aeff-9007c5512bc3"/>
               </entry>
               <entry>
                  <reference value="urn:uuid:43095c18-6f40-4f44-88ab-c5fd009a64f8"/>
               </entry>
            </section>
            <section>
               <title value="Allergies and Intolerances"/>
               <code>
                  <coding>
                     <system value="http://loinc.org"/>
                     <code value="48765-2"/>
                     <display value="Allergies and adverse reactions Document"/>
                  </coding>
               </code>
               <text>
                  <status value="generated"/>
                  <div xmlns="http://www.w3.org/1999/xhtml">
                     <table class="hl7__ips">
                        <tr>
                           <th>Allergy/Intolerance</th>
                           <th>Onset Date</th>
                           <th>Status</th>
                           <th>Type</th>
                           <th>Reaction</th>
                        </tr>
                        <tr>
                           <td>Allergy to substance</td>
                           <td>
                              <span class="nb">1949-11-19</span>
                           </td>
                           <td>active</td>
                           <td>environment</td>
                           <td/>
                        </tr>
                        <tr>
                           <td>Peanut</td>
                           <td>
                              <span class="nb">1949-11-19</span>
                           </td>
                           <td>active</td>
                           <td>food</td>
                           <td>Wheal (finding)<br/>Finding of vomiting (finding)</td>
                        </tr>
                     </table>
                  </div>
               </text>
               <entry>
                  <reference value="urn:uuid:1467b0a5-1c81-4bc0-ac6a-7696035e6258"/>
               </entry>
               <entry>
                  <reference value="urn:uuid:fb56e0ae-e34f-4206-afa8-b6b2d6b02fc5"/>
               </entry>
            </section>
            <section>
               <title value="Care Plan"/>
               <code>
                  <coding>
                     <system value="http://loinc.org"/>
                     <code value="18776-5"/>
                     <display value="Plan of care note"/>
                  </coding>
               </code>
               <text>
                  <status value="generated"/>
                  <div xmlns="http://www.w3.org/1999/xhtml">
                     <table class="hl7__ips">
                        <tr>
                           <th>Active Planned Care / Goals</th>
                           <th>Start Date</th>
                           <th>Reason</th>
                        </tr>
                        <tr>
                           <td>Hyperlipidemia clinical management plan</td>
                           <td>
                              <span class="nb">05-Jun-2023</span>
                           </td>
                           <td>Hyperlipidemia</td>
                        </tr>
                        <tr>
                           <td>
                              <ul>
                                 <li>Achieve LDL cholesterol below 1.8 mmol/L to reduce cardiovascular risk.</li>
                                 <li>Achieve total cholesterol below 4.0 mmol/L.</li>
                                 <li>Achieve triglycerides below 1.7 mmol/L.</li>
                                 <li>Maintain HDL cholesterol above 1.0 mmol/L.</li>
                              </ul>
                           </td>
                           <td/>
                           <td/>
                        </tr>
                        <tr>
                           <td>Lifestyle education regarding hypertension</td>
                           <td>
                              <span class="nb">28-Dec-1998</span>
                           </td>
                           <td>Essential hypertension (disorder)</td>
                        </tr>
                        <tr>
                           <td>
                              <ul>
                                 <li>Maintain blood pressure below 130/80 mmHg through lifestyle modifications.</li>
                                 <li>Limit daily sodium intake to less than 2.3 grams to support blood pressure control.</li>
                                 <li>Engage in at least 150 minutes of moderate-intensity aerobic physical activity per week.</li>
                                 <li>Achieve at least 5% reduction in body weight if overweight or obese.</li>
                              </ul>
                           </td>
                           <td/>
                           <td/>
                        </tr>
                        <tr>
                           <td>Diabetes self management plan</td>
                           <td>
                              <span class="nb">07-Mar-1977</span>
                           </td>
                           <td>Prediabetes</td>
                        </tr>
                        <tr>
                           <td>
                              <ul>
                                 <li>Patient will participate in diabetes self-management education to improve understanding and management of prediabetes and diabetes.</li>
                                 <li>Achieve and maintain HbA1c at individualized target level.</li>
                                 <li>Achieve and maintain fasting plasma glucose within recommended range.</li>
                                 <li>Achieve weight reduction of at least 5% from baseline to improve glycemic control.</li>
                                 <li>Achieve and maintain blood pressure within recommended range for diabetes.</li>
                              </ul>
                           </td>
                           <td/>
                           <td/>
                        </tr>
                        <tr>
                           <td>Self-care interventions</td>
                           <td>
                              <span class="nb">02-Nov-1949</span>
                           </td>
                           <td>-</td>
                        </tr>
                        <tr>
                           <th>Immunization Recommendation</th>
                           <th>Due Date</th>
                           <th>Reason</th>
                        </tr>
                        <tr>
                           <td>Vaccine product containing only Influenza virus antigen (medicinal product)</td>
                           <td>
                              <span class="nb">01-Oct-2025</span>
                           </td>
                           <td>Annual seasonal influenza vaccination</td>
                        </tr>
                     </table>
                  </div>
               </text>
               <entry>
                  <reference value="urn:uuid:4a53728d-fc80-4357-92b9-1ae309c213ac"/>
               </entry>
               <entry>
                  <reference value="urn:uuid:4a9b89c3-18a5-4ad6-9f6d-39c168051d61"/>
               </entry>
               <entry>
                  <reference value="urn:uuid:a6aa553d-480d-4fdd-b9bc-9fba19bb6d33"/>
               </entry>
               <entry>
                  <reference value="urn:uuid:e64ae4d0-b70a-4b11-b370-7f2ccd0d08e4"/>
               </entry>
               <entry>
                  <reference value="urn:uuid:d40f55a2-dcbd-40ef-ad96-54dab6d178ff"/>
               </entry>
            </section>
            <section>
               <title value="Vital Signs"/>
               <code>
                  <coding>
                     <system value="http://loinc.org"/>
                     <code value="8716-3"/>
                     <display value="Vital signs note"/>
                  </coding>
               </code>
               <text>
                  <status value="generated"/>
                  <div xmlns="http://www.w3.org/1999/xhtml">
                     <table class="hl7__ips">
                        <tr>
                           <th>Vital Signs</th>
                           <th>2025-05-26</th>
                           <th>2024-05-20</th>
                        </tr>
                        <tr>
                           <td>Body Height</td>
                           <td>173.1 cm</td>
                           <td>173.1 cm</td>
                        </tr>
                        <tr>
                           <td>Pain severity - 0-10 verbal numeric rating [Score] - Reported</td>
                           <td>1 {score}</td>
                           <td>1 {score}</td>
                        </tr>
                        <tr>
                           <td>Body Weight</td>
                           <td>83.2 kg</td>
                           <td>83.2 kg</td>
                        </tr>
                        <tr>
                           <td>Body mass index (BMI) [Ratio]</td>
                           <td>27.8 kg/m2</td>
                           <td>27.8 kg/m2</td>
                        </tr>
                        <tr>
                           <td>Diastolic Blood Pressure</td>
                           <td>88 mm[Hg]</td>
                           <td>85 mm[Hg]</td>
                        </tr>
                        <tr>
                           <td>Systolic Blood Pressure</td>
                           <td>119 mm[Hg]</td>
                           <td>122 mm[Hg]</td>
                        </tr>
                        <tr>
                           <td>Heart rate</td>
                           <td>85 /min</td>
                           <td>85 /min</td>
                        </tr>
                        <tr>
                           <td>Respiratory rate</td>
                           <td>15 /min</td>
                           <td>13 /min</td>
                        </tr>
                     </table>
                  </div>
               </text>
               <entry>
                  <reference value="urn:uuid:43fabe80-cf3a-44e0-9835-becc0880e395"/>
               </entry>
               <entry>
                  <reference value="urn:uuid:4c84e5fd-d2df-4c56-89df-fb79f8b3c8f8"/>
               </entry>
               <entry>
                  <reference value="urn:uuid:329aa76a-2d99-4357-b494-52c462bab2da"/>
               </entry>
               <entry>
                  <reference value="urn:uuid:63f7d11b-2aa9-4892-ab4c-2db8974ab8bc"/>
               </entry>
               <entry>
                  <reference value="urn:uuid:78777424-e3b7-4659-9396-6d4c8e06d4f2"/>
               </entry>
               <entry>
                  <reference value="urn:uuid:c10a27ed-3f62-4753-b5d4-ab2124ae90e5"/>
               </entry>
               <entry>
                  <reference value="urn:uuid:554bca10-9a35-4cfe-81f9-d449305ee79d"/>
               </entry>
               <entry>
                  <reference value="urn:uuid:6c3d0cf1-9337-4e89-be8b-91c93fac83ce"/>
               </entry>
               <entry>
                  <reference value="urn:uuid:c55ea03d-8d40-44b8-a519-745dad0eb58d"/>
               </entry>
               <entry>
                  <reference value="urn:uuid:56897ff9-1a53-456c-91d7-c2b1bec454fc"/>
               </entry>
               <entry>
                  <reference value="urn:uuid:70efe471-de10-464e-934f-5f79a848c4aa"/>
               </entry>
               <entry>
                  <reference value="urn:uuid:b9f69a96-1d94-428b-a6c4-1ece1dafb6c7"/>
               </entry>
               <entry>
                  <reference value="urn:uuid:50e826e3-8491-4c34-b44c-0eb2734194bb"/>
               </entry>
               <entry>
                  <reference value="urn:uuid:78471719-f3a6-416a-a344-a529a32ea7b2"/>
               </entry>
               <entry>
                  <reference value="urn:uuid:64b0fc03-2f3e-49df-8869-4722aaab2f92"/>
               </entry>
               <entry>
                  <reference value="urn:uuid:5b5e1184-ddf8-4ccf-aaa3-0180b5f8c8ff"/>
               </entry>
            </section>
            <section>
               <title value="Relevant diagnostic tests/laboratory data"/>
               <code>
                  <coding>
                     <system value="http://loinc.org"/>
                     <code value="30954-2"/>
                     <display value="Relevant diagnostic tests/laboratory data note"/>
                  </coding>
               </code>
               <text>
                  <status value="generated"/>
                  <div xmlns="http://www.w3.org/1999/xhtml">
                     <table class="hl7__ips">
                        <table class="hl7__ips">
                           <thead>
                              <tr>
                                 <th>Recent Lab Observations</th>
                                 <th>04-JUN-2025</th>
                                 <th>Reference Range</th>
                                 <th>Unit</th>
                              </tr>
                           </thead>
                           <tbody>
                              <tr>
                                 <td>Glucose [Mass/volume] in Blood</td>
                                 <td>114.6</td>
                                 <td>70 - 140</td>
                                 <td>mg/dL</td>
                              </tr>
                              <tr>
                                 <td>Urea nitrogen [Mass/volume] in Blood</td>
                                 <td>7.1</td>
                                 <td>7 - 20</td>
                                 <td>mg/dL</td>
                              </tr>
                              <tr>
                                 <td>Creatinine [Mass/volume] in Blood</td>
                                 <td>
                                    <strong>3.5 H</strong>
                                 </td>
                                 <td>0.6 - 1.3</td>
                                 <td>mg/dL</td>
                              </tr>
                              <tr>
                                 <td>Calcium [Mass/volume] in Blood</td>
                                 <td>8.8</td>
                                 <td>8.5 - 10.5</td>
                                 <td>mg/dL</td>
                              </tr>
                              <tr>
                                 <td>Sodium [Moles/volume] in Blood</td>
                                 <td>143.6</td>
                                 <td>135 - 145</td>
                                 <td>mmol/L</td>
                              </tr>
                              <tr>
                                 <td>Potassium [Moles/volume] in Blood</td>
                                 <td>4.8</td>
                                 <td>3.5 - 5.1</td>
                                 <td>mmol/L</td>
                              </tr>
                              <tr>
                                 <td>Chloride [Moles/volume] in Blood</td>
                                 <td>
                                    <strong>109.7 H</strong>
                                 </td>
                                 <td>98 - 108</td>
                                 <td>mmol/L</td>
                              </tr>
                              <tr>
                                 <td>Carbon dioxide, total [Moles/volume] in Blood</td>
                                 <td>
                                    <strong>20.6 L</strong>
                                 </td>
                                 <td>22 - 32</td>
                                 <td>mmol/L</td>
                              </tr>
                              <tr>
                                 <td>Protein [Mass/volume] in Serum or Plasma</td>
                                 <td>7.0</td>
                                 <td>6.6 - 8.3</td>
                                 <td>g/dL</td>
                              </tr>
                              <tr>
                                 <td>Albumin [Mass/volume] in Serum or Plasma</td>
                                 <td>4.7</td>
                                 <td>3.5 - 5.5</td>
                                 <td>g/dL</td>
                              </tr>
                              <tr>
                                 <td>Globulin [Mass/volume] in Serum by calculation</td>
                                 <td>3.4</td>
                                 <td>2 - 3.5</td>
                                 <td>g/L</td>
                              </tr>
                              <tr>
                                 <td>Bilirubin.total [Mass/volume] in Serum or Plasma</td>
                                 <td>1.1</td>
                                 <td>0.3 - 1.2</td>
                                 <td>mg/dL</td>
                              </tr>
                              <tr>
                                 <td>Alkaline phosphatase [Enzymatic activity/volume] in Serum or Plasma</td>
                                 <td>92.4</td>
                                 <td>53 - 130</td>
                                 <td>U/L</td>
                              </tr>
                              <tr>
                                 <td>Alanine aminotransferase [Enzymatic activity/volume] in Serum or Plasma</td>
                                 <td>36.1</td>
                                 <td>7 - 60</td>
                                 <td>U/L</td>
                              </tr>
                              <tr>
                                 <td>Aspartate aminotransferase [Enzymatic activity/volume] in Serum or Plasma</td>
                                 <td>28.3</td>
                                 <td>10 - 49</td>
                                 <td>U/L</td>
                              </tr>
                              <tr>
                                 <td>Cholesterol [Mass/volume] in Serum or Plasma</td>
                                 <td>177.6</td>
                                 <td>125 - 200</td>
                                 <td>mg/dL</td>
                              </tr>
                              <tr>
                                 <td>Triglyceride [Mass/volume] in Serum or Plasma</td>
                                 <td>
                                    <strong>175.5 H</strong>
                                 </td>
                                 <td>40 - 150</td>
                                 <td>mg/dL</td>
                              </tr>
                              <tr>
                                 <td>Cholesterol in LDL [Mass/volume] in Serum or Plasma by Direct assay</td>
                                 <td>93.9</td>
                                 <td>0 - 190</td>
                                 <td>mg/dL</td>
                              </tr>
                              <tr>
                                 <td>Cholesterol in HDL [Mass/volume] in Serum or Plasma</td>
                                 <td>42.6</td>
                                 <td>40 - 60</td>
                                 <td>mg/dL</td>
                              </tr>
                           </tbody>
                        </table>
                     </table>
                  </div>
               </text>
               <entry>
                  <reference value="urn:uuid:0925ae83-40d4-466e-aca1-21627d19f0b4"/>
               </entry>
               <entry>
                  <reference value="urn:uuid:0e63fb5b-0c39-4369-a799-4105bd352f7e"/>
               </entry>
               <entry>
                  <reference value="urn:uuid:9c38dc6f-9087-441d-902d-afef8b6b1f6c"/>
               </entry>
               <entry>
                  <reference value="urn:uuid:e26849c2-f6ca-4176-813b-65504cce0658"/>
               </entry>
               <entry>
                  <reference value="urn:uuid:3dd1601e-d03b-4056-90b7-0692d36f5b6d"/>
               </entry>
               <entry>
                  <reference value="urn:uuid:f449a266-d93d-4604-8969-bf8b63aa1343"/>
               </entry>
               <entry>
                  <reference value="urn:uuid:1a58ae02-0c89-4485-bd22-37b959a88b7c"/>
               </entry>
               <entry>
                  <reference value="urn:uuid:039ad45f-f708-4962-a848-a4cf4b856a41"/>
               </entry>
               <entry>
                  <reference value="urn:uuid:e09e4417-8d9b-4026-8ab8-3459459ff716"/>
               </entry>
               <entry>
                  <reference value="urn:uuid:9c6fc5e5-677b-4b8d-b1c6-badb3e5d41f4"/>
               </entry>
               <entry>
                  <reference value="urn:uuid:4dad3e56-11f5-4123-b991-134cc4760cf3"/>
               </entry>
               <entry>
                  <reference value="urn:uuid:ef4de292-a788-4282-b79d-a4decf0c724f"/>
               </entry>
               <entry>
                  <reference value="urn:uuid:9e1961e0-c7a4-47e4-a07e-36d9d4021cc1"/>
               </entry>
               <entry>
                  <reference value="urn:uuid:48210133-b7f3-4f2f-b176-d6c51a6e1018"/>
               </entry>
               <entry>
                  <reference value="urn:uuid:90820b5e-6a98-4398-b95b-92704007f109"/>
               </entry>
               <entry>
                  <reference value="urn:uuid:0a0bf042-b1f8-47a1-bb16-e9a36f1f0035"/>
               </entry>
               <entry>
                  <reference value="urn:uuid:07784e2d-f30e-4b00-9a29-4d2471ec9c9b"/>
               </entry>
               <entry>
                  <reference value="urn:uuid:9879d1cf-50ba-4540-b721-b856f718e0b7"/>
               </entry>
               <entry>
                  <reference value="urn:uuid:01da51d4-4dbc-4b68-bfca-0178f3a1e6cb"/>
               </entry>
            </section>
            <section>
               <title value="Device Use"/>
               <code>
                  <coding>
                     <system value="http://loinc.org"/>
                     <code value="46264-8"/>
                     <display value="History of medical device use"/>
                  </coding>
               </code>
               <text>
                  <status value="generated"/>
                  <div xmlns="http://www.w3.org/1999/xhtml">
                     <table class="hl7__ips">
                        <tr>
                           <th>Device</th>
                           <th>Date (since)</th>
                        </tr>
                        <tr>
                           <td>Blood glucose meter (physical object)</td>
                           <td>
                              <span class="nb">07-Mar-1977</span>
                           </td>
                        </tr>
                        <tr>
                           <td>Home nebulizer (physical object)</td>
                           <td>
                              <span class="nb">28-Aug-1972</span>
                           </td>
                        </tr>
                     </table>
                  </div>
               </text>
               <entry>
                  <reference value="urn:uuid:26481638-a01d-4ab1-a4e2-c7cacfb3bab3"/>
               </entry>
               <entry>
                  <reference value="urn:uuid:8284182f-0821-4e84-a6bf-ad11a2a84b54"/>
               </entry>
            </section>
         </Composition>
      </resource>
   </entry>
   <entry>
      <fullUrl value="urn:uuid:c32f74ec-f559-4c50-be37-3c8de05bb2ce"/>
      <resource>
         <Patient>
            <id value="c32f74ec-f559-4c50-be37-3c8de05bb2ce"/>
            <meta>
               <profile value="http://hl7.eu/fhir/eps/StructureDefinition/patient-eu-eps"/>
               <security>
                  <system value="http://terminology.hl7.org/CodeSystem/v3-ActReason"/>
                  <code value="HTEST"/>
               </security>
               <security>
                  <system value="http://terminology.hl7.org/CodeSystem/v3-ActReason"/>
                  <code value="TRAIN"/>
               </security>
               <tag>
                  <system value="https://synderai.net/fhir/CodeSystem/tags"/>
                  <code value="synthetic"/>
                  <display value="SYNDERAI Synthetic data"/>
               </tag>
            </meta>
            <text>
               <status value="generated"/>
               <div xmlns="http://www.w3.org/1999/xhtml">
                  <table class="hl7__ips">
                     <tr>
                        <td>Stephen Weinhage</td>
                        <td>male</td>
                        <td>11-Aug-1950</td>
                     </tr>
                  </table>
               </div>
            </text>
            <extension url="http://hl7.org/fhir/StructureDefinition/patient-nationality">
               <valueCodeableConcept>
                  <coding>
                     <system value="http://hl7.org/fhir/ValueSet/country"/>
                     <code value="DE"/>
                  </coding>
               </valueCodeableConcept>
            </extension>
            <identifier>
               <type>
                  <coding>
                     <system value="http://terminology.hl7.org/CodeSystem/v2-0203"/>
                     <code value="PT"/>
                  </coding>
               </type>
               <system value="http://ec.europa.eu/identifier/eci"/>
               <value value="6413-101438-9"/>
            </identifier>
            <identifier>
               <type>
                  <coding>
                     <system value="http://terminology.hl7.org/CodeSystem/v2-0203"/>
                     <code value="MR"/>
                  </coding>
               </type>
               <system value="http://local.setting.eu/identifier"/>
               <value value="24ebd065-2072-c582-96d3-10256a4a5a7d"/>
            </identifier>
            <name>
               <family value="Weinhage"/>
            </name>
            <name>
               <given value="Stephen"/>
            </name>
            <name>
               <text value="Stephen Weinhage"/>
            </name>
            <telecom>
               <system value="phone"/>
               <value value="+49(0)5355171263"/>
            </telecom>
            <gender value="male"/>
            <birthDate value="1950-08-11"/>
            <address>
               <use value="home"/>
               <type value="physical"/>
               <line value="Bertold-Stahr-Platz 6/3"/>
               <city value="Neustadt am Rübenberge"/>
               <postalCode value="31535"/>
               <country value="Germany"/>
            </address>
         </Patient>
      </resource>
   </entry>
   <entry>
      <fullUrl value="urn:uuid:097bfa50-f478-479d-817d-d0ed39591b15"/>
      <resource>
         <PractitionerRole>
            <id value="097bfa50-f478-479d-817d-d0ed39591b15"/>
            <meta>
               <profile value="http://hl7.eu/fhir/base/StructureDefinition/practitionerRole-eu"/>
            </meta>
            <text>
               <status value="generated"/>
               <div xmlns="http://www.w3.org/1999/xhtml">
                  <table class="hl7__ips">Provider Role Id 097bfa50-f478-479d-817d-d0ed39591b15</table>
               </div>
            </text>
            <practitioner>
               <reference value="urn:uuid:fe472899-b1fd-4c66-ba06-ad2971712b5a"/>
            </practitioner>
            <organization>
               <reference value="urn:uuid:414443e5-df5a-4636-ba4f-d48f5132c439"/>
            </organization>
         </PractitionerRole>
      </resource>
   </entry>
   <entry>
      <fullUrl value="urn:uuid:fe472899-b1fd-4c66-ba06-ad2971712b5a"/>
      <resource>
         <Practitioner>
            <id value="fe472899-b1fd-4c66-ba06-ad2971712b5a"/>
            <meta>
               <profile value="http://hl7.eu/fhir/base/StructureDefinition/practitioner-eu"/>
            </meta>
            <text>
               <status value="generated"/>
               <div xmlns="http://www.w3.org/1999/xhtml">
                  <table class="hl7__ips">Dr. Hel Ping</table>
               </div>
            </text>
            <name>
               <family value="Ping"/>
               <given value="Hel"/>
               <prefix value="Dr."/>
            </name>
         </Practitioner>
      </resource>
   </entry>
   <entry>
      <fullUrl value="urn:uuid:414443e5-df5a-4636-ba4f-d48f5132c439"/>
      <resource>
         <Organization>
            <id value="414443e5-df5a-4636-ba4f-d48f5132c439"/>
            <meta>
               <profile value="http://hl7.eu/fhir/base/StructureDefinition/organization-eu"/>
            </meta>
            <text>
               <status value="generated"/>
               <div xmlns="http://www.w3.org/1999/xhtml">
                  <table class="hl7__ips">Landarztpraxis Dudensen</table>
               </div>
            </text>
            <identifier>
               <system value="urn:oid:2.16.840.1.113883.2.51.999"/>
               <value value="9332417c-f9a0-4d58-8e20-42b0128f323f"/>
               <assigner>
                  <display value="HL7 Europe"/>
               </assigner>
            </identifier>
            <name value="Landarztpraxis Dudensen"/>
            <address>
               <line value="Dudenser Straße 41A"/>
               <city value="Neustadt am Rübenberge"/>
               <postalCode value="31535"/>
               <country value="Germany"/>
            </address>
         </Organization>
      </resource>
   </entry>
   <entry>
      <fullUrl value="urn:uuid:e94bbdd4-64b8-4ba7-9575-bd4a90c1db5a"/>
      <resource>
         <Condition>
            <id value="e94bbdd4-64b8-4ba7-9575-bd4a90c1db5a"/>
            <meta>
               <profile value="http://hl7.org/fhir/uv/ips/StructureDefinition/Condition-uv-ips"/>
            </meta>
            <text>
               <status value="generated"/>
               <div xmlns="http://www.w3.org/1999/xhtml">
                  <table class="hl7__ips">
                     <tr>
                        <td>Retinopathy due to type 2 diabetes mellitus</td>
                        <td>
                           <span class="nb">20-May-2024</span>
                        </td>
                        <td>active</td>
                     </tr>
                  </table>
               </div>
            </text>
            <category>
               <coding>
                  <system value="http://terminology.hl7.org/CodeSystem/condition-category"/>
                  <code value="problem-list-item"/>
                  <display value="Problem List Item"/>
               </coding>
            </category>
            <code>
               <coding>
                  <system value="http://snomed.info/sct"/>
                  <code value="422034002"/>
                  <display value="Retinopathy due to type 2 diabetes mellitus (disorder)"/>
               </coding>
               <text value="Retinopathy due to type 2 diabetes mellitus"/>
            </code>
            <subject>
               <reference value="urn:uuid:"/>
               <display value="Stephen Weinhage"/>
            </subject>
            <onsetDateTime value="2024-05-20"/>
            <asserter>
               <reference value="urn:uuid:"/>
               <display value="Landarztpraxis Dudensen"/>
            </asserter>
         </Condition>
      </resource>
   </entry>
   <entry>
      <fullUrl value="urn:uuid:88350441-72ee-4fc9-a4a8-48674aef0bfc"/>
      <resource>
         <Condition>
            <id value="88350441-72ee-4fc9-a4a8-48674aef0bfc"/>
            <meta>
               <profile value="http://hl7.org/fhir/uv/ips/StructureDefinition/Condition-uv-ips"/>
            </meta>
            <text>
               <status value="generated"/>
               <div xmlns="http://www.w3.org/1999/xhtml">
                  <table class="hl7__ips">
                     <tr>
                        <td>Hyperlipidemia</td>
                        <td>
                           <span class="nb">15-May-2023</span>
                        </td>
                        <td>active</td>
                     </tr>
                  </table>
               </div>
            </text>
            <category>
               <coding>
                  <system value="http://terminology.hl7.org/CodeSystem/condition-category"/>
                  <code value="problem-list-item"/>
                  <display value="Problem List Item"/>
               </coding>
            </category>
            <code>
               <coding>
                  <system value="http://snomed.info/sct"/>
                  <code value="55822004"/>
                  <display value="Hyperlipidemia (disorder)"/>
               </coding>
               <text value="Hyperlipidemia"/>
            </code>
            <subject>
               <reference value="urn:uuid:"/>
               <display value="Stephen Weinhage"/>
            </subject>
            <onsetDateTime value="2023-05-15"/>
            <asserter>
               <reference value="urn:uuid:"/>
               <display value="Landarztpraxis Dudensen"/>
            </asserter>
         </Condition>
      </resource>
   </entry>
   <entry>
      <fullUrl value="urn:uuid:e3a281fd-5985-4e09-bb91-9e54b001f1b4"/>
      <resource>
         <Condition>
            <id value="e3a281fd-5985-4e09-bb91-9e54b001f1b4"/>
            <meta>
               <profile value="http://hl7.org/fhir/uv/ips/StructureDefinition/Condition-uv-ips"/>
            </meta>
            <text>
               <status value="generated"/>
               <div xmlns="http://www.w3.org/1999/xhtml">
                  <table class="hl7__ips">
                     <tr>
                        <td>Hypertriglyceridemia</td>
                        <td>
                           <span class="nb">10-Apr-2017</span>
                        </td>
                        <td>active</td>
                     </tr>
                  </table>
               </div>
            </text>
            <category>
               <coding>
                  <system value="http://terminology.hl7.org/CodeSystem/condition-category"/>
                  <code value="problem-list-item"/>
                  <display value="Problem List Item"/>
               </coding>
            </category>
            <code>
               <coding>
                  <system value="http://snomed.info/sct"/>
                  <code value="302870006"/>
                  <display value="Hypertriglyceridemia (disorder)"/>
               </coding>
               <text value="Hypertriglyceridemia"/>
            </code>
            <subject>
               <reference value="urn:uuid:"/>
               <display value="Stephen Weinhage"/>
            </subject>
            <onsetDateTime value="2017-04-10"/>
            <asserter>
               <reference value="urn:uuid:"/>
               <display value="Landarztpraxis Dudensen"/>
            </asserter>
         </Condition>
      </resource>
   </entry>
   <entry>
      <fullUrl value="urn:uuid:8f2326d3-6935-48a6-a681-d7757059bd49"/>
      <resource>
         <Condition>
            <id value="8f2326d3-6935-48a6-a681-d7757059bd49"/>
            <meta>
               <profile value="http://hl7.org/fhir/uv/ips/StructureDefinition/Condition-uv-ips"/>
            </meta>
            <text>
               <status value="generated"/>
               <div xmlns="http://www.w3.org/1999/xhtml">
                  <table class="hl7__ips">
                     <tr>
                        <td>Type 2 diabetes mellitus</td>
                        <td>
                           <span class="nb">04-Apr-2016</span>
                        </td>
                        <td>active</td>
                     </tr>
                  </table>
               </div>
            </text>
            <category>
               <coding>
                  <system value="http://terminology.hl7.org/CodeSystem/condition-category"/>
                  <code value="problem-list-item"/>
                  <display value="Problem List Item"/>
               </coding>
            </category>
            <code>
               <coding>
                  <system value="http://snomed.info/sct"/>
                  <code value="44054006"/>
                  <display value="Diabetes mellitus type 2 (disorder)"/>
               </coding>
               <text value="Type 2 diabetes mellitus"/>
            </code>
            <subject>
               <reference value="urn:uuid:"/>
               <display value="Stephen Weinhage"/>
            </subject>
            <onsetDateTime value="2016-04-04"/>
            <asserter>
               <reference value="urn:uuid:"/>
               <display value="Landarztpraxis Dudensen"/>
            </asserter>
         </Condition>
      </resource>
   </entry>
   <entry>
      <fullUrl value="urn:uuid:dfc4aee1-4636-4c95-8e48-de981a74bef4"/>
      <resource>
         <Condition>
            <id value="dfc4aee1-4636-4c95-8e48-de981a74bef4"/>
            <meta>
               <profile value="http://hl7.org/fhir/uv/ips/StructureDefinition/Condition-uv-ips"/>
            </meta>
            <text>
               <status value="generated"/>
               <div xmlns="http://www.w3.org/1999/xhtml">
                  <table class="hl7__ips">
                     <tr>
                        <td>Ischemic heart disease</td>
                        <td>
                           <span class="nb">24-Mar-2014</span>
                        </td>
                        <td>active</td>
                     </tr>
                  </table>
               </div>
            </text>
            <category>
               <coding>
                  <system value="http://terminology.hl7.org/CodeSystem/condition-category"/>
                  <code value="problem-list-item"/>
                  <display value="Problem List Item"/>
               </coding>
            </category>
            <code>
               <coding>
                  <system value="http://snomed.info/sct"/>
                  <code value="414545008"/>
                  <display value="Ischemic heart disease (disorder)"/>
               </coding>
               <text value="Ischemic heart disease"/>
            </code>
            <subject>
               <reference value="urn:uuid:"/>
               <display value="Stephen Weinhage"/>
            </subject>
            <onsetDateTime value="2014-03-24"/>
            <asserter>
               <reference value="urn:uuid:"/>
               <display value="Landarztpraxis Dudensen"/>
            </asserter>
         </Condition>
      </resource>
   </entry>
   <entry>
      <fullUrl value="urn:uuid:5fc9b55d-930c-4818-9816-b4c17cd35462"/>
      <resource>
         <Condition>
            <id value="5fc9b55d-930c-4818-9816-b4c17cd35462"/>
            <meta>
               <profile value="http://hl7.org/fhir/uv/ips/StructureDefinition/Condition-uv-ips"/>
            </meta>
            <text>
               <status value="generated"/>
               <div xmlns="http://www.w3.org/1999/xhtml">
                  <table class="hl7__ips">
                     <tr>
                        <td>Metabolic syndrome X</td>
                        <td>
                           <span class="nb">08-Jan-2001</span>
                        </td>
                        <td>active</td>
                     </tr>
                  </table>
               </div>
            </text>
            <category>
               <coding>
                  <system value="http://terminology.hl7.org/CodeSystem/condition-category"/>
                  <code value="problem-list-item"/>
                  <display value="Problem List Item"/>
               </coding>
            </category>
            <code>
               <coding>
                  <system value="http://snomed.info/sct"/>
                  <code value="237602007"/>
                  <display value="Metabolic syndrome X (disorder)"/>
               </coding>
               <text value="Metabolic syndrome X"/>
            </code>
            <subject>
               <reference value="urn:uuid:"/>
               <display value="Stephen Weinhage"/>
            </subject>
            <onsetDateTime value="2001-01-08"/>
            <asserter>
               <reference value="urn:uuid:"/>
               <display value="Landarztpraxis Dudensen"/>
            </asserter>
         </Condition>
      </resource>
   </entry>
   <entry>
      <fullUrl value="urn:uuid:d14c134b-5d8a-4203-bff9-bc57d5b9cf20"/>
      <resource>
         <Condition>
            <id value="d14c134b-5d8a-4203-bff9-bc57d5b9cf20"/>
            <meta>
               <profile value="http://hl7.org/fhir/uv/ips/StructureDefinition/Condition-uv-ips"/>
            </meta>
            <text>
               <status value="generated"/>
               <div xmlns="http://www.w3.org/1999/xhtml">
                  <table class="hl7__ips">
                     <tr>
                        <td>Polyp of colon</td>
                        <td>
                           <span class="nb">04-Jan-1999</span>
                        </td>
                        <td>active</td>
                     </tr>
                  </table>
               </div>
            </text>
            <category>
               <coding>
                  <system value="http://terminology.hl7.org/CodeSystem/condition-category"/>
                  <code value="problem-list-item"/>
                  <display value="Problem List Item"/>
               </coding>
            </category>
            <code>
               <coding>
                  <system value="http://snomed.info/sct"/>
                  <code value="68496003"/>
                  <display value="Polyp of colon (disorder)"/>
               </coding>
               <text value="Polyp of colon"/>
            </code>
            <subject>
               <reference value="urn:uuid:"/>
               <display value="Stephen Weinhage"/>
            </subject>
            <onsetDateTime value="1999-01-04"/>
            <asserter>
               <reference value="urn:uuid:"/>
               <display value="Landarztpraxis Dudensen"/>
            </asserter>
         </Condition>
      </resource>
   </entry>
   <entry>
      <fullUrl value="urn:uuid:b119f54c-480d-493a-9d6a-7af0ecbc242c"/>
      <resource>
         <Condition>
            <id value="b119f54c-480d-493a-9d6a-7af0ecbc242c"/>
            <meta>
               <profile value="http://hl7.org/fhir/uv/ips/StructureDefinition/Condition-uv-ips"/>
            </meta>
            <text>
               <status value="generated"/>
               <div xmlns="http://www.w3.org/1999/xhtml">
                  <table class="hl7__ips">
                     <tr>
                        <td>Essential hypertension</td>
                        <td>
                           <span class="nb">28-Dec-1998</span>
                        </td>
                        <td>active</td>
                     </tr>
                  </table>
               </div>
            </text>
            <category>
               <coding>
                  <system value="http://terminology.hl7.org/CodeSystem/condition-category"/>
                  <code value="problem-list-item"/>
                  <display value="Problem List Item"/>
               </coding>
            </category>
            <code>
               <coding>
                  <system value="http://snomed.info/sct"/>
                  <code value="59621000"/>
                  <display value="Essential hypertension (disorder)"/>
               </coding>
               <text value="Essential hypertension"/>
            </code>
            <subject>
               <reference value="urn:uuid:"/>
               <display value="Stephen Weinhage"/>
            </subject>
            <onsetDateTime value="1998-12-28"/>
            <asserter>
               <reference value="urn:uuid:"/>
               <display value="Landarztpraxis Dudensen"/>
            </asserter>
         </Condition>
      </resource>
   </entry>
   <entry>
      <fullUrl value="urn:uuid:ca57eb74-4273-49e4-8f34-add538cbdaf7"/>
      <resource>
         <Condition>
            <id value="ca57eb74-4273-49e4-8f34-add538cbdaf7"/>
            <meta>
               <profile value="http://hl7.org/fhir/uv/ips/StructureDefinition/Condition-uv-ips"/>
            </meta>
            <text>
               <status value="generated"/>
               <div xmlns="http://www.w3.org/1999/xhtml">
                  <table class="hl7__ips">
                     <tr>
                        <td>Prediabetes</td>
                        <td>
                           <span class="nb">07-Mar-1977</span>
                        </td>
                        <td>active</td>
                     </tr>
                  </table>
               </div>
            </text>
            <category>
               <coding>
                  <system value="http://terminology.hl7.org/CodeSystem/condition-category"/>
                  <code value="problem-list-item"/>
                  <display value="Problem List Item"/>
               </coding>
            </category>
            <code>
               <coding>
                  <system value="http://snomed.info/sct"/>
                  <code value="15777000"/>
                  <display value="Prediabetes (disorder)"/>
               </coding>
               <text value="Prediabetes"/>
            </code>
            <subject>
               <reference value="urn:uuid:"/>
               <display value="Stephen Weinhage"/>
            </subject>
            <onsetDateTime value="1977-03-07"/>
            <asserter>
               <reference value="urn:uuid:"/>
               <display value="Landarztpraxis Dudensen"/>
            </asserter>
         </Condition>
      </resource>
   </entry>
   <entry>
      <fullUrl value="urn:uuid:9fd9ad43-df3f-41eb-bbad-53240bc07e6b"/>
      <resource>
         <Condition>
            <id value="9fd9ad43-df3f-41eb-bbad-53240bc07e6b"/>
            <meta>
               <profile value="http://hl7.org/fhir/uv/ips/StructureDefinition/Condition-uv-ips"/>
            </meta>
            <text>
               <status value="generated"/>
               <div xmlns="http://www.w3.org/1999/xhtml">
                  <table class="hl7__ips">
                     <tr>
                        <td>Anemia</td>
                        <td>
                           <span class="nb">07-Mar-1977</span>
                        </td>
                        <td>active</td>
                     </tr>
                  </table>
               </div>
            </text>
            <category>
               <coding>
                  <system value="http://terminology.hl7.org/CodeSystem/condition-category"/>
                  <code value="problem-list-item"/>
                  <display value="Problem List Item"/>
               </coding>
            </category>
            <code>
               <coding>
                  <system value="http://snomed.info/sct"/>
                  <code value="271737000"/>
                  <display value="Anemia (disorder)"/>
               </coding>
               <text value="Anemia"/>
            </code>
            <subject>
               <reference value="urn:uuid:"/>
               <display value="Stephen Weinhage"/>
            </subject>
            <onsetDateTime value="1977-03-07"/>
            <asserter>
               <reference value="urn:uuid:"/>
               <display value="Landarztpraxis Dudensen"/>
            </asserter>
         </Condition>
      </resource>
   </entry>
   <entry>
      <fullUrl value="urn:uuid:00f72d0c-cb7f-492a-9514-fdd206d474b8"/>
      <resource>
         <Condition>
            <id value="00f72d0c-cb7f-492a-9514-fdd206d474b8"/>
            <meta>
               <profile value="http://hl7.org/fhir/uv/ips/StructureDefinition/Condition-uv-ips"/>
            </meta>
            <text>
               <status value="generated"/>
               <div xmlns="http://www.w3.org/1999/xhtml">
                  <table class="hl7__ips">
                     <tr>
                        <td>Chronic sinusitis</td>
                        <td>
                           <span class="nb">28-Aug-1972</span>
                        </td>
                        <td>active</td>
                     </tr>
                  </table>
               </div>
            </text>
            <category>
               <coding>
                  <system value="http://terminology.hl7.org/CodeSystem/condition-category"/>
                  <code value="problem-list-item"/>
                  <display value="Problem List Item"/>
               </coding>
            </category>
            <code>
               <coding>
                  <system value="http://snomed.info/sct"/>
                  <code value="40055000"/>
                  <display value="Chronic sinusitis (disorder)"/>
               </coding>
               <text value="Chronic sinusitis"/>
            </code>
            <subject>
               <reference value="urn:uuid:"/>
               <display value="Stephen Weinhage"/>
            </subject>
            <onsetDateTime value="1972-08-28"/>
            <asserter>
               <reference value="urn:uuid:"/>
               <display value="Landarztpraxis Dudensen"/>
            </asserter>
         </Condition>
      </resource>
   </entry>
   <entry>
      <fullUrl value="urn:uuid:6553cab1-b8cc-4bc3-89af-249efe321835"/>
      <resource>
         <Condition>
            <id value="6553cab1-b8cc-4bc3-89af-249efe321835"/>
            <meta>
               <profile value="http://hl7.org/fhir/uv/ips/StructureDefinition/Condition-uv-ips"/>
            </meta>
            <text>
               <status value="generated"/>
               <div xmlns="http://www.w3.org/1999/xhtml">
                  <table class="hl7__ips">
                     <tr>
                        <td>
                           <span class="grayedout">Acute infective cystitis</span>
                        </td>
                        <td>
                           <span class="nb">25-Nov-2021 - 29-Nov-2021</span>
                        </td>
                        <td>
                           <span class="grayedout">inactive</span>
                        </td>
                     </tr>
                  </table>
               </div>
            </text>
            <category>
               <coding>
                  <system value="http://terminology.hl7.org/CodeSystem/condition-category"/>
                  <code value="problem-list-item"/>
                  <display value="Problem List Item"/>
               </coding>
            </category>
            <code>
               <coding>
                  <system value="http://snomed.info/sct"/>
                  <code value="307426000"/>
                  <display value="Acute infective cystitis (disorder)"/>
               </coding>
               <text value="Acute infective cystitis"/>
            </code>
            <subject>
               <reference value="urn:uuid:"/>
               <display value="Stephen Weinhage"/>
            </subject>
            <onsetDateTime value="2021-11-25"/>
            <abatementDateTime value="2021-11-29"/>
            <asserter>
               <reference value="urn:uuid:"/>
               <display value="Landarztpraxis Dudensen"/>
            </asserter>
         </Condition>
      </resource>
   </entry>
   <entry>
      <fullUrl value="urn:uuid:5f2ab57b-e621-4fac-bc20-ebf9856012c9"/>
      <resource>
         <Condition>
            <id value="5f2ab57b-e621-4fac-bc20-ebf9856012c9"/>
            <meta>
               <profile value="http://hl7.org/fhir/uv/ips/StructureDefinition/Condition-uv-ips"/>
            </meta>
            <text>
               <status value="generated"/>
               <div xmlns="http://www.w3.org/1999/xhtml">
                  <table class="hl7__ips">
                     <tr>
                        <td>
                           <span class="grayedout">Streptococcal sore throat</span>
                        </td>
                        <td>
                           <span class="nb">14-Mar-2020 - 24-Mar-2020</span>
                        </td>
                        <td>
                           <span class="grayedout">inactive</span>
                        </td>
                     </tr>
                  </table>
               </div>
            </text>
            <category>
               <coding>
                  <system value="http://terminology.hl7.org/CodeSystem/condition-category"/>
                  <code value="problem-list-item"/>
                  <display value="Problem List Item"/>
               </coding>
            </category>
            <code>
               <coding>
                  <system value="http://snomed.info/sct"/>
                  <code value="43878008"/>
                  <display value="Streptococcal sore throat (disorder)"/>
               </coding>
               <text value="Streptococcal sore throat"/>
            </code>
            <subject>
               <reference value="urn:uuid:"/>
               <display value="Stephen Weinhage"/>
            </subject>
            <onsetDateTime value="2020-03-14"/>
            <abatementDateTime value="2020-03-24"/>
            <asserter>
               <reference value="urn:uuid:"/>
               <display value="Landarztpraxis Dudensen"/>
            </asserter>
         </Condition>
      </resource>
   </entry>
   <entry>
      <fullUrl value="urn:uuid:c847315d-67d7-4856-a2a1-6e78cd2f6391"/>
      <resource>
         <Condition>
            <id value="c847315d-67d7-4856-a2a1-6e78cd2f6391"/>
            <meta>
               <profile value="http://hl7.org/fhir/uv/ips/StructureDefinition/Condition-uv-ips"/>
            </meta>
            <text>
               <status value="generated"/>
               <div xmlns="http://www.w3.org/1999/xhtml">
                  <table class="hl7__ips">
                     <tr>
                        <td>
                           <span class="grayedout">Acute viral pharyngitis</span>
                        </td>
                        <td>
                           <span class="nb">03-May-2019 - 17-May-2019</span>
                        </td>
                        <td>
                           <span class="grayedout">inactive</span>
                        </td>
                     </tr>
                  </table>
               </div>
            </text>
            <category>
               <coding>
                  <system value="http://terminology.hl7.org/CodeSystem/condition-category"/>
                  <code value="problem-list-item"/>
                  <display value="Problem List Item"/>
               </coding>
            </category>
            <code>
               <coding>
                  <system value="http://snomed.info/sct"/>
                  <code value="195662009"/>
                  <display value="Acute viral pharyngitis (disorder)"/>
               </coding>
               <text value="Acute viral pharyngitis"/>
            </code>
            <subject>
               <reference value="urn:uuid:"/>
               <display value="Stephen Weinhage"/>
            </subject>
            <onsetDateTime value="2019-05-03"/>
            <abatementDateTime value="2019-05-17"/>
            <asserter>
               <reference value="urn:uuid:"/>
               <display value="Landarztpraxis Dudensen"/>
            </asserter>
         </Condition>
      </resource>
   </entry>
   <entry>
      <fullUrl value="urn:uuid:aa55b7c5-cded-42f5-94a6-89745b822bb8"/>
      <resource>
         <Condition>
            <id value="aa55b7c5-cded-42f5-94a6-89745b822bb8"/>
            <meta>
               <profile value="http://hl7.org/fhir/uv/ips/StructureDefinition/Condition-uv-ips"/>
            </meta>
            <text>
               <status value="generated"/>
               <div xmlns="http://www.w3.org/1999/xhtml">
                  <table class="hl7__ips">
                     <tr>
                        <td>
                           <span class="grayedout">Viral sinusitis</span>
                        </td>
                        <td>
                           <span class="nb">12-Apr-2019 - 20-Apr-2019</span>
                        </td>
                        <td>
                           <span class="grayedout">inactive</span>
                        </td>
                     </tr>
                  </table>
               </div>
            </text>
            <category>
               <coding>
                  <system value="http://terminology.hl7.org/CodeSystem/condition-category"/>
                  <code value="problem-list-item"/>
                  <display value="Problem List Item"/>
               </coding>
            </category>
            <code>
               <coding>
                  <system value="http://snomed.info/sct"/>
                  <code value="444814009"/>
                  <display value="Viral sinusitis (disorder)"/>
               </coding>
               <text value="Viral sinusitis"/>
            </code>
            <subject>
               <reference value="urn:uuid:"/>
               <display value="Stephen Weinhage"/>
            </subject>
            <onsetDateTime value="2019-04-12"/>
            <abatementDateTime value="2019-04-20"/>
            <asserter>
               <reference value="urn:uuid:"/>
               <display value="Landarztpraxis Dudensen"/>
            </asserter>
         </Condition>
      </resource>
   </entry>
   <entry>
      <fullUrl value="urn:uuid:6016666b-f48c-498d-a8a3-7ef6992d402a"/>
      <resource>
         <Medication>
            <id value="6016666b-f48c-498d-a8a3-7ef6992d402a"/>
            <meta>
               <profile value="http://hl7.eu/fhir/eps/StructureDefinition/Medication-eu-eps"/>
            </meta>
            <text>
               <status value="generated"/>
               <div xmlns="http://www.w3.org/1999/xhtml">Simvastatin 10 mg oral tablet</div>
            </text>
            <code>
               <coding>
                  <system value="http://snomed.info/sct"/>
                  <code value="319996000"/>
                  <display value="Simvastatin 10 mg oral tablet"/>
               </coding>
               <text value="Simvastatin 10 mg oral tablet"/>
            </code>
         </Medication>
      </resource>
   </entry>
   <entry>
      <fullUrl value="urn:uuid:2d60a425-582f-4250-b267-8a666fe4a770"/>
      <resource>
         <MedicationStatement>
            <id value="2d60a425-582f-4250-b267-8a666fe4a770"/>
            <meta>
               <profile value="http://hl7.eu/fhir/eps/StructureDefinition/MedicationStatement-eu-eps"/>
            </meta>
            <text>
               <status value="generated"/>
               <div xmlns="http://www.w3.org/1999/xhtml">
                  <table class="hl7__ips first25">
                     <tr>
                        <th>Medication</th>
                        <th>Since</th>
                        <th>Form</th>
                        <th>Dosage</th>
                        <th>Reason</th>
                     </tr>
                     <tr>
                        <td>Simvastatin 10 mg oral tablet</td>
                        <td>
                           <span class="nb">2025-06-04</span>
                        </td>
                        <td>-</td>
                        <td>1 tablet (10 mg) by mouth once daily</td>
                        <td>Hyperlipidemia</td>
                     </tr>
                  </table>
               </div>
            </text>
            <status value="active"/>
            <medicationReference>
               <reference value="urn:uuid:6016666b-f48c-498d-a8a3-7ef6992d402a"/>
               <display value="Simvastatin 10 mg oral tablet"/>
            </medicationReference>
            <subject>
               <reference value="urn:uuid:c32f74ec-f559-4c50-be37-3c8de05bb2ce"/>
               <display value="Stephen Weinhage"/>
            </subject>
            <effectivePeriod>
               <start value="2025-06-04"/>
            </effectivePeriod>
            <reasonCode>
               <coding>
                  <system value="http://snomed.info/sct"/>
                  <code value="55822004"/>
                  <display value="Hyperlipidemia"/>
               </coding>
            </reasonCode>
            <dosage>
               <text value="1 tablet (10 mg) by mouth once daily"/>
               <timing>
                  <repeat>
                     <frequency value="1"/>
                     <period value="1"/>
                     <periodUnit value="d"/>
                  </repeat>
               </timing>
               <asNeededBoolean value="false"/>
               <doseAndRate>
                  <doseQuantity>
                     <value value="1"/>
                     <unit value="{tbl}"/>
                     <code value="{tbl}"/>
                  </doseQuantity>
               </doseAndRate>
            </dosage>
         </MedicationStatement>
      </resource>
   </entry>
   <entry>
      <fullUrl value="urn:uuid:0da3ee88-cf5c-4828-9714-1023b9f948d6"/>
      <resource>
         <Medication>
            <id value="0da3ee88-cf5c-4828-9714-1023b9f948d6"/>
            <meta>
               <profile value="http://hl7.eu/fhir/eps/StructureDefinition/Medication-eu-eps"/>
            </meta>
            <text>
               <status value="generated"/>
               <div xmlns="http://www.w3.org/1999/xhtml">Amlodipine (as amlodipine besylate) 2.5 mg oral tablet</div>
            </text>
            <code>
               <coding>
                  <system value="http://snomed.info/sct"/>
                  <code value="1153431000"/>
                  <display value="Amlodipine (as amlodipine besylate) 2.5 mg oral tablet"/>
               </coding>
               <text value="Amlodipine (as amlodipine besylate) 2.5 mg oral tablet"/>
            </code>
         </Medication>
      </resource>
   </entry>
   <entry>
      <fullUrl value="urn:uuid:499d886e-0b55-408a-9de3-2cff56dc3f66"/>
      <resource>
         <MedicationStatement>
            <id value="499d886e-0b55-408a-9de3-2cff56dc3f66"/>
            <meta>
               <profile value="http://hl7.eu/fhir/eps/StructureDefinition/MedicationStatement-eu-eps"/>
            </meta>
            <text>
               <status value="generated"/>
               <div xmlns="http://www.w3.org/1999/xhtml">
                  <table class="hl7__ips first25">
                     <tr>
                        <th>Medication</th>
                        <th>Since</th>
                        <th>Form</th>
                        <th>Dosage</th>
                        <th>Reason</th>
                     </tr>
                     <tr>
                        <td>Amlodipine (as amlodipine besylate) 2.5 mg oral tablet</td>
                        <td>
                           <span class="nb">2025-05-26</span>
                        </td>
                        <td>-</td>
                        <td>1 tablet (2.5 mg) by mouth once daily</td>
                        <td>Essential hypertension (disorder)</td>
                     </tr>
                  </table>
               </div>
            </text>
            <status value="active"/>
            <medicationReference>
               <reference value="urn:uuid:0da3ee88-cf5c-4828-9714-1023b9f948d6"/>
               <display value="Amlodipine (as amlodipine besylate) 2.5 mg oral tablet"/>
            </medicationReference>
            <subject>
               <reference value="urn:uuid:c32f74ec-f559-4c50-be37-3c8de05bb2ce"/>
               <display value="Stephen Weinhage"/>
            </subject>
            <effectivePeriod>
               <start value="2025-05-26"/>
            </effectivePeriod>
            <reasonCode>
               <coding>
                  <system value="http://snomed.info/sct"/>
                  <code value="59621000"/>
                  <display value="Essential hypertension (disorder)"/>
               </coding>
            </reasonCode>
            <dosage>
               <text value="1 tablet (2.5 mg) by mouth once daily"/>
               <timing>
                  <repeat>
                     <frequency value="1"/>
                     <period value="1"/>
                     <periodUnit value="d"/>
                  </repeat>
               </timing>
               <asNeededBoolean value="false"/>
               <doseAndRate>
                  <doseQuantity>
                     <value value="1"/>
                     <unit value="{tbl}"/>
                     <code value="{tbl}"/>
                  </doseQuantity>
               </doseAndRate>
            </dosage>
         </MedicationStatement>
      </resource>
   </entry>
   <entry>
      <fullUrl value="urn:uuid:4245f911-326e-4b18-903a-6df2d33231fa"/>
      <resource>
         <Medication>
            <id value="4245f911-326e-4b18-903a-6df2d33231fa"/>
            <meta>
               <profile value="http://hl7.eu/fhir/eps/StructureDefinition/Medication-eu-eps"/>
            </meta>
            <text>
               <status value="generated"/>
               <div xmlns="http://www.w3.org/1999/xhtml">Clopidogrel (as clopidogrel bisulfate) 75 mg oral tablet</div>
            </text>
            <code>
               <coding>
                  <system value="http://snomed.info/sct"/>
                  <code value="783586007"/>
                  <display value="Clopidogrel (as clopidogrel bisulfate) 75 mg oral tablet"/>
               </coding>
               <text value="Clopidogrel (as clopidogrel bisulfate) 75 mg oral tablet"/>
            </code>
         </Medication>
      </resource>
   </entry>
   <entry>
      <fullUrl value="urn:uuid:3d0ab46e-3946-4de1-928b-d0f8b05d3b79"/>
      <resource>
         <MedicationStatement>
            <id value="3d0ab46e-3946-4de1-928b-d0f8b05d3b79"/>
            <meta>
               <profile value="http://hl7.eu/fhir/eps/StructureDefinition/MedicationStatement-eu-eps"/>
            </meta>
            <text>
               <status value="generated"/>
               <div xmlns="http://www.w3.org/1999/xhtml">
                  <table class="hl7__ips first25">
                     <tr>
                        <th>Medication</th>
                        <th>Since</th>
                        <th>Form</th>
                        <th>Dosage</th>
                        <th>Reason</th>
                     </tr>
                     <tr>
                        <td>Clopidogrel (as clopidogrel bisulfate) 75 mg oral tablet</td>
                        <td>
                           <span class="nb">2014-03-31</span>
                        </td>
                        <td>-</td>
                        <td>1 tablet (75 mg) once daily</td>
                        <td>-</td>
                     </tr>
                  </table>
               </div>
            </text>
            <status value="active"/>
            <medicationReference>
               <reference value="urn:uuid:4245f911-326e-4b18-903a-6df2d33231fa"/>
               <display value="Clopidogrel (as clopidogrel bisulfate) 75 mg oral tablet"/>
            </medicationReference>
            <subject>
               <reference value="urn:uuid:c32f74ec-f559-4c50-be37-3c8de05bb2ce"/>
               <display value="Stephen Weinhage"/>
            </subject>
            <effectivePeriod>
               <start value="2014-03-31"/>
            </effectivePeriod>
            <dosage>
               <text value="1 tablet (75 mg) once daily"/>
               <timing>
                  <repeat>
                     <frequency value="1"/>
                     <period value="1"/>
                     <periodUnit value="d"/>
                  </repeat>
               </timing>
               <asNeededBoolean value="false"/>
               <doseAndRate>
                  <doseQuantity>
                     <value value="1"/>
                     <unit value="{tbl}"/>
                     <code value="{tbl}"/>
                  </doseQuantity>
               </doseAndRate>
            </dosage>
         </MedicationStatement>
      </resource>
   </entry>
   <entry>
      <fullUrl value="urn:uuid:961494cf-35a8-49ba-9af7-bd0ce608a701"/>
      <resource>
         <Medication>
            <id value="961494cf-35a8-49ba-9af7-bd0ce608a701"/>
            <meta>
               <profile value="http://hl7.eu/fhir/eps/StructureDefinition/Medication-eu-eps"/>
            </meta>
            <text>
               <status value="generated"/>
               <div xmlns="http://www.w3.org/1999/xhtml">Simvastatin 20 mg oral tablet</div>
            </text>
            <code>
               <coding>
                  <system value="http://snomed.info/sct"/>
                  <code value="319997009"/>
                  <display value="Simvastatin 20 mg oral tablet"/>
               </coding>
               <text value="Simvastatin 20 mg oral tablet"/>
            </code>
         </Medication>
      </resource>
   </entry>
   <entry>
      <fullUrl value="urn:uuid:b3015365-3bdf-40f2-9917-237481763cdc"/>
      <resource>
         <MedicationStatement>
            <id value="b3015365-3bdf-40f2-9917-237481763cdc"/>
            <meta>
               <profile value="http://hl7.eu/fhir/eps/StructureDefinition/MedicationStatement-eu-eps"/>
            </meta>
            <text>
               <status value="generated"/>
               <div xmlns="http://www.w3.org/1999/xhtml">
                  <table class="hl7__ips first25">
                     <tr>
                        <th>Medication</th>
                        <th>Since</th>
                        <th>Form</th>
                        <th>Dosage</th>
                        <th>Reason</th>
                     </tr>
                     <tr>
                        <td>Simvastatin 20 mg oral tablet</td>
                        <td>
                           <span class="nb">2014-03-31</span>
                        </td>
                        <td>-</td>
                        <td>1 tablet (20 mg) by mouth once daily</td>
                        <td>-</td>
                     </tr>
                  </table>
               </div>
            </text>
            <status value="active"/>
            <medicationReference>
               <reference value="urn:uuid:961494cf-35a8-49ba-9af7-bd0ce608a701"/>
               <display value="Simvastatin 20 mg oral tablet"/>
            </medicationReference>
            <subject>
               <reference value="urn:uuid:c32f74ec-f559-4c50-be37-3c8de05bb2ce"/>
               <display value="Stephen Weinhage"/>
            </subject>
            <effectivePeriod>
               <start value="2014-03-31"/>
            </effectivePeriod>
            <dosage>
               <text value="1 tablet (20 mg) by mouth once daily"/>
               <timing>
                  <repeat>
                     <frequency value="1"/>
                     <period value="1"/>
                     <periodUnit value="d"/>
                  </repeat>
               </timing>
               <asNeededBoolean value="false"/>
               <doseAndRate>
                  <doseQuantity>
                     <value value="1"/>
                     <unit value="{tbl}"/>
                     <code value="{tbl}"/>
                  </doseQuantity>
               </doseAndRate>
            </dosage>
         </MedicationStatement>
      </resource>
   </entry>
   <entry>
      <fullUrl value="urn:uuid:20642873-d305-493b-8b66-e842fe418196"/>
      <resource>
         <Medication>
            <id value="20642873-d305-493b-8b66-e842fe418196"/>
            <meta>
               <profile value="http://hl7.eu/fhir/eps/StructureDefinition/Medication-eu-eps"/>
            </meta>
            <text>
               <status value="generated"/>
               <div xmlns="http://www.w3.org/1999/xhtml">Nitroglycerin 400 microgram/actuation sublingual spray</div>
            </text>
            <code>
               <coding>
                  <system value="http://snomed.info/sct"/>
                  <code value="425176000"/>
                  <display value="Nitroglycerin 400 microgram/actuation sublingual spray"/>
               </coding>
               <text value="Nitroglycerin 400 microgram/actuation sublingual spray"/>
            </code>
         </Medication>
      </resource>
   </entry>
   <entry>
      <fullUrl value="urn:uuid:45c911a7-6963-46a3-a66b-1906c314eacc"/>
      <resource>
         <MedicationStatement>
            <id value="45c911a7-6963-46a3-a66b-1906c314eacc"/>
            <meta>
               <profile value="http://hl7.eu/fhir/eps/StructureDefinition/MedicationStatement-eu-eps"/>
            </meta>
            <text>
               <status value="generated"/>
               <div xmlns="http://www.w3.org/1999/xhtml">
                  <table class="hl7__ips first25">
                     <tr>
                        <th>Medication</th>
                        <th>Since</th>
                        <th>Form</th>
                        <th>Dosage</th>
                        <th>Reason</th>
                     </tr>
                     <tr>
                        <td>Nitroglycerin 400 microgram/actuation sublingual spray</td>
                        <td>
                           <span class="nb">2014-03-31</span>
                        </td>
                        <td>-</td>
                        <td>400 micrograms per spray, 1 spray under the tongue as needed for chest pain, may repeat every 5 minutes as needed, up to 3 sprays in 15 minutes</td>
                        <td>-</td>
                     </tr>
                  </table>
               </div>
            </text>
            <status value="active"/>
            <medicationReference>
               <reference value="urn:uuid:20642873-d305-493b-8b66-e842fe418196"/>
               <display value="Nitroglycerin 400 microgram/actuation sublingual spray"/>
            </medicationReference>
            <subject>
               <reference value="urn:uuid:c32f74ec-f559-4c50-be37-3c8de05bb2ce"/>
               <display value="Stephen Weinhage"/>
            </subject>
            <effectivePeriod>
               <start value="2014-03-31"/>
            </effectivePeriod>
            <dosage>
               <text value="400 micrograms per spray, 1 spray under the tongue as needed for chest pain, may repeat every 5 minutes as needed, up to 3 sprays in 15 minutes"/>
               <timing>
                  <repeat>
                     <frequency value="1"/>
                     <period value="5"/>
                     <periodUnit value="min"/>
                  </repeat>
               </timing>
               <asNeededBoolean value="true"/>
               <doseAndRate>
                  <doseQuantity>
                     <value value="400"/>
                     <unit value="microgram"/>
                     <code value="ug"/>
                  </doseQuantity>
               </doseAndRate>
            </dosage>
         </MedicationStatement>
      </resource>
   </entry>
   <entry>
      <fullUrl value="urn:uuid:07181df6-8eb5-4209-8972-190cd9327650"/>
      <resource>
         <Medication>
            <id value="07181df6-8eb5-4209-8972-190cd9327650"/>
            <meta>
               <profile value="http://hl7.eu/fhir/eps/StructureDefinition/Medication-eu-eps"/>
            </meta>
            <text>
               <status value="generated"/>
               <div xmlns="http://www.w3.org/1999/xhtml">Metoprolol tartrate (as metoprolol succinate) 100 mg prolonged-release oral tablet</div>
            </text>
            <code>
               <coding>
                  <system value="http://snomed.info/sct"/>
                  <code value="879980009"/>
                  <display value="Metoprolol tartrate (as metoprolol succinate) 100 mg prolonged-release oral tablet"/>
               </coding>
               <text value="Metoprolol tartrate (as metoprolol succinate) 100 mg prolonged-release oral tablet"/>
            </code>
         </Medication>
      </resource>
   </entry>
   <entry>
      <fullUrl value="urn:uuid:c67d3e71-2b3c-4cef-a4a4-3c07af0fff35"/>
      <resource>
         <MedicationStatement>
            <id value="c67d3e71-2b3c-4cef-a4a4-3c07af0fff35"/>
            <meta>
               <profile value="http://hl7.eu/fhir/eps/StructureDefinition/MedicationStatement-eu-eps"/>
            </meta>
            <text>
               <status value="generated"/>
               <div xmlns="http://www.w3.org/1999/xhtml">
                  <table class="hl7__ips first25">
                     <tr>
                        <th>Medication</th>
                        <th>Since</th>
                        <th>Form</th>
                        <th>Dosage</th>
                        <th>Reason</th>
                     </tr>
                     <tr>
                        <td>Metoprolol tartrate (as metoprolol succinate) 100 mg prolonged-release oral tablet</td>
                        <td>
                           <span class="nb">2014-03-31</span>
                        </td>
                        <td>-</td>
                        <td>1 tablet (100 mg) once daily</td>
                        <td>-</td>
                     </tr>
                  </table>
               </div>
            </text>
            <status value="active"/>
            <medicationReference>
               <reference value="urn:uuid:07181df6-8eb5-4209-8972-190cd9327650"/>
               <display value="Metoprolol tartrate (as metoprolol succinate) 100 mg prolonged-release oral tablet"/>
            </medicationReference>
            <subject>
               <reference value="urn:uuid:c32f74ec-f559-4c50-be37-3c8de05bb2ce"/>
               <display value="Stephen Weinhage"/>
            </subject>
            <effectivePeriod>
               <start value="2014-03-31"/>
            </effectivePeriod>
            <dosage>
               <text value="1 tablet (100 mg) once daily"/>
               <timing>
                  <repeat>
                     <frequency value="1"/>
                     <period value="1"/>
                     <periodUnit value="d"/>
                  </repeat>
               </timing>
               <asNeededBoolean value="false"/>
               <doseAndRate>
                  <doseQuantity>
                     <value value="1"/>
                     <unit value="{tbl}"/>
                     <code value="{tbl}"/>
                  </doseQuantity>
               </doseAndRate>
            </dosage>
         </MedicationStatement>
      </resource>
   </entry>
   <entry>
      <fullUrl value="urn:uuid:421e091e-970a-4c20-a0c4-dfabf01a90b4"/>
      <resource>
         <Immunization>
            <id value="421e091e-970a-4c20-a0c4-dfabf01a90b4"/>
            <meta>
               <profile value="http://hl7.org/fhir/uv/ips/StructureDefinition/Immunization-uv-ips"/>
            </meta>
            <text>
               <status value="generated"/>
               <div xmlns="http://www.w3.org/1999/xhtml">
                  <table class="hl7__ips">
                     <tr>
                        <td>Influenza virus antigen only vaccine product</td>
                        <td>
                           <span class="nb">26-May-2025</span>
                        </td>
                     </tr>
                  </table>
               </div>
            </text>
            <status value="completed"/>
            <vaccineCode>
               <coding>
                  <system value="http://snomed.info/sct"/>
                  <code value="1181000221105"/>
                  <display value="Vaccine product containing Influenza virus antigen"/>
               </coding>
               <coding>
                  <system value="http://www.whocc.no/atc"/>
                  <code value="J07BB02"/>
                  <display value="Influenza, inactivated, split virus"/>
               </coding>
               <text value="Influenza virus antigen only vaccine product"/>
            </vaccineCode>
            <patient>
               <reference value="urn:uuid:c32f74ec-f559-4c50-be37-3c8de05bb2ce"/>
               <display value="Stephen Weinhage"/>
            </patient>
            <occurrenceDateTime value="2025-05-26"/>
            <lotNumber value="ZP-4XhOD"/>
            <expirationDate value="2025-08-03"/>
            <site>
               <coding>
                  <system value="http://snomed.info/sct"/>
                  <code value="244979005"/>
                  <display value="Entire muscle of upper arm"/>
               </coding>
               <text value="Entire muscle of upper arm"/>
            </site>
            <route>
               <coding>
                  <system value="http://snomed.info/sct"/>
                  <code value="78421000"/>
                  <display value="Intramuscular route"/>
               </coding>
               <text value="Intramuscular route"/>
            </route>
         </Immunization>
      </resource>
   </entry>
   <entry>
      <fullUrl value="urn:uuid:7ab06bb5-5bff-4361-936e-0a2de3427d3b"/>
      <resource>
         <Immunization>
            <id value="7ab06bb5-5bff-4361-936e-0a2de3427d3b"/>
            <meta>
               <profile value="http://hl7.org/fhir/uv/ips/StructureDefinition/Immunization-uv-ips"/>
            </meta>
            <text>
               <status value="generated"/>
               <div xmlns="http://www.w3.org/1999/xhtml">
                  <table class="hl7__ips">
                     <tr>
                        <td>SARS-CoV-2 mRNA vaccine</td>
                        <td>
                           <span class="nb">22-Feb-2021</span>
                        </td>
                     </tr>
                  </table>
               </div>
            </text>
            <status value="completed"/>
            <vaccineCode>
               <coding>
                  <system value="http://snomed.info/sct"/>
                  <code value="1119349007"/>
                  <display value="Vaccine product containing SARS-CoV-2 mRNA"/>
               </coding>
               <coding>
                  <system value="http://www.whocc.no/atc"/>
                  <code value="J07BX03"/>
                  <display value="COVID-19 mRNA vaccines"/>
               </coding>
               <text value="SARS-CoV-2 mRNA vaccine"/>
            </vaccineCode>
            <patient>
               <reference value="urn:uuid:c32f74ec-f559-4c50-be37-3c8de05bb2ce"/>
               <display value="Stephen Weinhage"/>
            </patient>
            <occurrenceDateTime value="2021-02-22"/>
            <lotNumber value="PC-WAlh"/>
            <expirationDate value="2021-05-30"/>
            <site>
               <coding>
                  <system value="http://snomed.info/sct"/>
                  <code value="244979005"/>
                  <display value="Entire muscle of upper arm"/>
               </coding>
               <text value="Entire muscle of upper arm"/>
            </site>
            <route>
               <coding>
                  <system value="http://snomed.info/sct"/>
                  <code value="78421000"/>
                  <display value="Intramuscular route"/>
               </coding>
               <text value="Intramuscular route"/>
            </route>
         </Immunization>
      </resource>
   </entry>
   <entry>
      <fullUrl value="urn:uuid:2dfb5665-d205-4a2c-a7ad-cc34c13ef456"/>
      <resource>
         <Immunization>
            <id value="2dfb5665-d205-4a2c-a7ad-cc34c13ef456"/>
            <meta>
               <profile value="http://hl7.org/fhir/uv/ips/StructureDefinition/Immunization-uv-ips"/>
            </meta>
            <text>
               <status value="generated"/>
               <div xmlns="http://www.w3.org/1999/xhtml">
                  <table class="hl7__ips">
                     <tr>
                        <td>Clostridium tetani toxoid antigen adsorbed only vaccine product</td>
                        <td>
                           <span class="nb">27-Apr-2020</span>
                        </td>
                     </tr>
                  </table>
               </div>
            </text>
            <status value="completed"/>
            <vaccineCode>
               <coding>
                  <system value="http://snomed.info/sct"/>
                  <code value="777725002"/>
                  <display value="Vaccine product containing only Clostridium tetani toxoid antigen adsorbed"/>
               </coding>
               <coding>
                  <system value="http://www.whocc.no/atc"/>
                  <code value="J07AM51"/>
                  <display value="Diphtheria-tetanus vaccines, adult type"/>
               </coding>
               <text value="Clostridium tetani toxoid antigen adsorbed only vaccine product"/>
            </vaccineCode>
            <patient>
               <reference value="urn:uuid:c32f74ec-f559-4c50-be37-3c8de05bb2ce"/>
               <display value="Stephen Weinhage"/>
            </patient>
            <occurrenceDateTime value="2020-04-27"/>
            <lotNumber value="FP-EcisfIZ"/>
            <expirationDate value="2021-03-21"/>
            <site>
               <coding>
                  <system value="http://snomed.info/sct"/>
                  <code value="244979005"/>
                  <display value="Entire muscle of upper arm"/>
               </coding>
               <text value="Entire muscle of upper arm"/>
            </site>
            <route>
               <coding>
                  <system value="http://snomed.info/sct"/>
                  <code value="78421000"/>
                  <display value="Intramuscular route"/>
               </coding>
               <text value="Intramuscular route"/>
            </route>
         </Immunization>
      </resource>
   </entry>
   <entry>
      <fullUrl value="urn:uuid:b3578862-5402-4ff2-8472-002903cac6da"/>
      <resource>
         <Procedure>
            <id value="b3578862-5402-4ff2-8472-002903cac6da"/>
            <meta>
               <profile value="http://hl7.org/fhir/uv/ips/StructureDefinition/Procedure-uv-ips"/>
            </meta>
            <text>
               <status value="generated"/>
               <div xmlns="http://www.w3.org/1999/xhtml">
                  <table class="hl7__ips">
                     <tr>
                        <td>Patient discharge</td>
                        <td>
                           <span class="nb">02-Jan-2024</span>
                        </td>
                        <td>-</td>
                     </tr>
                  </table>
               </div>
            </text>
            <status value="completed"/>
            <code>
               <coding>
                  <system value="http://snomed.info/sct"/>
                  <code value="58000006"/>
                  <display value="Patient discharge (procedure)"/>
               </coding>
               <text value="Patient discharge"/>
            </code>
            <subject>
               <reference value="urn:uuid:"/>
               <display value="Stephen Weinhage"/>
            </subject>
            <performedDateTime value="2024-01-02"/>
         </Procedure>
      </resource>
   </entry>
   <entry>
      <fullUrl value="urn:uuid:4d8bcfb5-0b45-468d-8102-ea80d87ad902"/>
      <resource>
         <Procedure>
            <id value="4d8bcfb5-0b45-468d-8102-ea80d87ad902"/>
            <meta>
               <profile value="http://hl7.org/fhir/uv/ips/StructureDefinition/Procedure-uv-ips"/>
            </meta>
            <text>
               <status value="generated"/>
               <div xmlns="http://www.w3.org/1999/xhtml">
                  <table class="hl7__ips">
                     <tr>
                        <td>Notifications</td>
                        <td>
                           <span class="nb">01-Jan-2024</span>
                        </td>
                        <td>-</td>
                     </tr>
                  </table>
               </div>
            </text>
            <status value="completed"/>
            <code>
               <coding>
                  <system value="http://snomed.info/sct"/>
                  <code value="185087000"/>
                  <display value="Notifications (procedure)"/>
               </coding>
               <text value="Notifications"/>
            </code>
            <subject>
               <reference value="urn:uuid:"/>
               <display value="Stephen Weinhage"/>
            </subject>
            <performedDateTime value="2024-01-01"/>
         </Procedure>
      </resource>
   </entry>
   <entry>
      <fullUrl value="urn:uuid:094e7515-044e-499d-ac38-fe56919544f9"/>
      <resource>
         <Procedure>
            <id value="094e7515-044e-499d-ac38-fe56919544f9"/>
            <meta>
               <profile value="http://hl7.org/fhir/uv/ips/StructureDefinition/Procedure-uv-ips"/>
            </meta>
            <text>
               <status value="generated"/>
               <div xmlns="http://www.w3.org/1999/xhtml">
                  <table class="hl7__ips">
                     <tr>
                        <td>Certification procedure</td>
                        <td>
                           <span class="nb">01-Jan-2024</span>
                        </td>
                        <td>-</td>
                     </tr>
                  </table>
               </div>
            </text>
            <status value="completed"/>
            <code>
               <coding>
                  <system value="http://snomed.info/sct"/>
                  <code value="310417005"/>
                  <display value="Certification procedure (procedure)"/>
               </coding>
               <text value="Certification procedure"/>
            </code>
            <subject>
               <reference value="urn:uuid:"/>
               <display value="Stephen Weinhage"/>
            </subject>
            <performedDateTime value="2024-01-01"/>
         </Procedure>
      </resource>
   </entry>
   <entry>
      <fullUrl value="urn:uuid:8d6fd57f-ee83-49fb-95ee-d617a74c3c33"/>
      <resource>
         <Procedure>
            <id value="8d6fd57f-ee83-49fb-95ee-d617a74c3c33"/>
            <meta>
               <profile value="http://hl7.org/fhir/uv/ips/StructureDefinition/Procedure-uv-ips"/>
            </meta>
            <text>
               <status value="generated"/>
               <div xmlns="http://www.w3.org/1999/xhtml">
                  <table class="hl7__ips">
                     <tr>
                        <td>Initial patient assessment</td>
                        <td>
                           <span class="nb">01-Jan-2024</span>
                        </td>
                        <td>-</td>
                     </tr>
                  </table>
               </div>
            </text>
            <status value="completed"/>
            <code>
               <coding>
                  <system value="http://snomed.info/sct"/>
                  <code value="315639002"/>
                  <display value="Initial patient assessment (procedure)"/>
               </coding>
               <text value="Initial patient assessment"/>
            </code>
            <subject>
               <reference value="urn:uuid:"/>
               <display value="Stephen Weinhage"/>
            </subject>
            <performedDateTime value="2024-01-01"/>
         </Procedure>
      </resource>
   </entry>
   <entry>
      <fullUrl value="urn:uuid:91a7f3e5-8e63-4038-aeff-9007c5512bc3"/>
      <resource>
         <Procedure>
            <id value="91a7f3e5-8e63-4038-aeff-9007c5512bc3"/>
            <meta>
               <profile value="http://hl7.org/fhir/uv/ips/StructureDefinition/Procedure-uv-ips"/>
            </meta>
            <text>
               <status value="generated"/>
               <div xmlns="http://www.w3.org/1999/xhtml">
                  <table class="hl7__ips">
                     <tr>
                        <td>Development of individualized plan of care</td>
                        <td>
                           <span class="nb">01-Jan-2024</span>
                        </td>
                        <td>-</td>
                     </tr>
                  </table>
               </div>
            </text>
            <status value="completed"/>
            <code>
               <coding>
                  <system value="http://snomed.info/sct"/>
                  <code value="370789001"/>
                  <display value="Development of individualized plan of care (procedure)"/>
               </coding>
               <text value="Development of individualized plan of care"/>
            </code>
            <subject>
               <reference value="urn:uuid:"/>
               <display value="Stephen Weinhage"/>
            </subject>
            <performedDateTime value="2024-01-01"/>
         </Procedure>
      </resource>
   </entry>
   <entry>
      <fullUrl value="urn:uuid:43095c18-6f40-4f44-88ab-c5fd009a64f8"/>
      <resource>
         <Procedure>
            <id value="43095c18-6f40-4f44-88ab-c5fd009a64f8"/>
            <meta>
               <profile value="http://hl7.org/fhir/uv/ips/StructureDefinition/Procedure-uv-ips"/>
            </meta>
            <text>
               <status value="generated"/>
               <div xmlns="http://www.w3.org/1999/xhtml">
                  <table class="hl7__ips">
                     <tr>
                        <td>Hospice care</td>
                        <td>
                           <span class="nb">01-Jan-2024</span>
                        </td>
                        <td>-</td>
                     </tr>
                  </table>
               </div>
            </text>
            <status value="completed"/>
            <code>
               <coding>
                  <system value="http://snomed.info/sct"/>
                  <code value="385763009"/>
                  <display value="Hospice care (regime/therapy)"/>
               </coding>
               <text value="Hospice care"/>
            </code>
            <subject>
               <reference value="urn:uuid:"/>
               <display value="Stephen Weinhage"/>
            </subject>
            <performedDateTime value="2024-01-01"/>
         </Procedure>
      </resource>
   </entry>
   <entry>
      <fullUrl value="urn:uuid:1467b0a5-1c81-4bc0-ac6a-7696035e6258"/>
      <resource>
         <AllergyIntolerance>
            <id value="1467b0a5-1c81-4bc0-ac6a-7696035e6258"/>
            <meta>
               <profile value="http://hl7.eu/fhir/eps/StructureDefinition/allergyIntolerance-eu-eps"/>
            </meta>
            <text>
               <status value="generated"/>
               <div xmlns="http://www.w3.org/1999/xhtml">
                  <table class="hl7__ips">
                     <tr>
                        <th>Allergy/Intolerance</th>
                        <th>Onset Date</th>
                        <th>Status</th>
                        <th>Type</th>
                        <th>Reaction</th>
                     </tr>
                     <tr>
                        <td>Allergy to substance</td>
                        <td>
                           <span class="nb">1949-11-19</span>
                        </td>
                        <td>active</td>
                        <td>environment</td>
                        <td/>
                     </tr>
                  </table>
               </div>
            </text>
            <clinicalStatus>
               <coding>
                  <system value="http://terminology.hl7.org/CodeSystem/allergyintolerance-clinical"/>
                  <code value="active"/>
               </coding>
            </clinicalStatus>
            <verificationStatus>
               <coding>
                  <system value="http://terminology.hl7.org/CodeSystem/allergyintolerance-verification"/>
                  <code value="confirmed"/>
               </coding>
            </verificationStatus>
            <type value="allergy"/>
            <category value="environment"/>
            <code>
               <coding>
                  <system value="http://snomed.info/sct"/>
                  <code value="419199007"/>
                  <display value="Allergy to substance (finding)"/>
               </coding>
               <text value="Allergy to substance"/>
            </code>
            <patient>
               <reference value="urn:uuid:c32f74ec-f559-4c50-be37-3c8de05bb2ce"/>
               <display value="Stephen Weinhage"/>
            </patient>
            <onsetDateTime value="1949-11-19"/>
         </AllergyIntolerance>
      </resource>
   </entry>
   <entry>
      <fullUrl value="urn:uuid:fb56e0ae-e34f-4206-afa8-b6b2d6b02fc5"/>
      <resource>
         <AllergyIntolerance>
            <id value="fb56e0ae-e34f-4206-afa8-b6b2d6b02fc5"/>
            <meta>
               <profile value="http://hl7.eu/fhir/eps/StructureDefinition/allergyIntolerance-eu-eps"/>
            </meta>
            <text>
               <status value="generated"/>
               <div xmlns="http://www.w3.org/1999/xhtml">
                  <table class="hl7__ips">
                     <tr>
                        <th>Allergy/Intolerance</th>
                        <th>Onset Date</th>
                        <th>Status</th>
                        <th>Type</th>
                        <th>Reaction</th>
                     </tr>
                     <tr>
                        <td>Peanut</td>
                        <td>
                           <span class="nb">1949-11-19</span>
                        </td>
                        <td>active</td>
                        <td>food</td>
                        <td>Wheal (finding)<br/>Finding of vomiting (finding)</td>
                     </tr>
                  </table>
               </div>
            </text>
            <clinicalStatus>
               <coding>
                  <system value="http://terminology.hl7.org/CodeSystem/allergyintolerance-clinical"/>
                  <code value="active"/>
               </coding>
            </clinicalStatus>
            <verificationStatus>
               <coding>
                  <system value="http://terminology.hl7.org/CodeSystem/allergyintolerance-verification"/>
                  <code value="confirmed"/>
               </coding>
            </verificationStatus>
            <type value="allergy"/>
            <category value="food"/>
            <code>
               <coding>
                  <system value="http://snomed.info/sct"/>
                  <code value="762952008"/>
                  <display value="Peanut (substance)"/>
               </coding>
               <text value="Peanut"/>
            </code>
            <patient>
               <reference value="urn:uuid:c32f74ec-f559-4c50-be37-3c8de05bb2ce"/>
               <display value="Stephen Weinhage"/>
            </patient>
            <onsetDateTime value="1949-11-19"/>
            <reaction>
               <manifestation>
                  <coding>
                     <system value="http://snomed.info/sct"/>
                     <code value="247472004"/>
                     <display value="Wheal (finding)"/>
                  </coding>
               </manifestation>
               <severity value="moderate"/>
            </reaction>
            <reaction>
               <manifestation>
                  <coding>
                     <system value="http://snomed.info/sct"/>
                     <code value="300359004"/>
                     <display value="Finding of vomiting (finding)"/>
                  </coding>
               </manifestation>
               <severity value="mild"/>
            </reaction>
         </AllergyIntolerance>
      </resource>
   </entry>
   <entry>
      <fullUrl value="urn:uuid:4a53728d-fc80-4357-92b9-1ae309c213ac"/>
      <resource>
         <CarePlan>
            <id value="4a53728d-fc80-4357-92b9-1ae309c213ac"/>
            <text>
               <status value="generated"/>
               <div xmlns="http://www.w3.org/1999/xhtml">
                  <table class="hl7__ips first25">
                     <tr>
                        <th>Active Planned Care / Goals</th>
                        <th>Start Date</th>
                        <th>Reason</th>
                     </tr>
                     <tr>
                        <td>Hyperlipidemia clinical management plan</td>
                        <td>
                           <span class="nb">05-Jun-2023</span>
                        </td>
                        <td>Hyperlipidemia</td>
                     </tr>
                     <tr>
                        <td>
                           <ul>
                              <li>Achieve LDL cholesterol below 1.8 mmol/L to reduce cardiovascular risk.</li>
                              <li>Achieve total cholesterol below 4.0 mmol/L.</li>
                              <li>Achieve triglycerides below 1.7 mmol/L.</li>
                              <li>Maintain HDL cholesterol above 1.0 mmol/L.</li>
                           </ul>
                        </td>
                        <td/>
                        <td/>
                     </tr>
                  </table>
               </div>
            </text>
            <status value="active"/>
            <intent value="plan"/>
            <category>
               <coding>
                  <system value="http://terminology.hl7.org/CodeSystem/care-plan-category"/>
                  <code value="assess-plan"/>
                  <display value="Assessment and Plan"/>
               </coding>
            </category>
            <subject>
               <reference value="urn:uuid:c32f74ec-f559-4c50-be37-3c8de05bb2ce"/>
               <display value="Stephen Weinhage"/>
            </subject>
            <period>
               <start value="2023-06-05"/>
            </period>
            <goal>
               <reference value="urn:uuid:69069a80-95f5-40fa-856e-14d027d235d6"/>
            </goal>
            <goal>
               <reference value="urn:uuid:b6b23ce8-69c2-472e-ad51-60b008fc8728"/>
            </goal>
            <goal>
               <reference value="urn:uuid:0e046ec5-d70d-489a-ad17-09136a0ca451"/>
            </goal>
            <goal>
               <reference value="urn:uuid:fd922ba2-3926-40f1-8b92-3b77a7216035"/>
            </goal>
            <activity>
               <detail>
                  <kind value="Appointment"/>
                  <code>
                     <coding>
                        <system value="http://snomed.info/sct"/>
                        <code value="736285004"/>
                        <display value="Hyperlipidemia clinical management plan (record artifact)"/>
                     </coding>
                  </code>
                  <reasonCode>
                     <coding>
                        <system value="http://snomed.info/sct"/>
                        <code value="55822004"/>
                        <display value="Hyperlipidemia"/>
                     </coding>
                  </reasonCode>
                  <status value="unknown"/>
                  <description value="Hyperlipidemia clinical management plan"/>
               </detail>
            </activity>
         </CarePlan>
      </resource>
   </entry>
   <entry>
      <fullUrl value="urn:uuid:4a9b89c3-18a5-4ad6-9f6d-39c168051d61"/>
      <resource>
         <CarePlan>
            <id value="4a9b89c3-18a5-4ad6-9f6d-39c168051d61"/>
            <text>
               <status value="generated"/>
               <div xmlns="http://www.w3.org/1999/xhtml">
                  <table class="hl7__ips first25">
                     <tr>
                        <th>Active Planned Care / Goals</th>
                        <th>Start Date</th>
                        <th>Reason</th>
                     </tr>
                     <tr>
                        <td>Lifestyle education regarding hypertension</td>
                        <td>
                           <span class="nb">28-Dec-1998</span>
                        </td>
                        <td>Essential hypertension (disorder)</td>
                     </tr>
                     <tr>
                        <td>
                           <ul>
                              <li>Maintain blood pressure below 130/80 mmHg through lifestyle modifications.</li>
                              <li>Limit daily sodium intake to less than 2.3 grams to support blood pressure control.</li>
                              <li>Engage in at least 150 minutes of moderate-intensity aerobic physical activity per week.</li>
                              <li>Achieve at least 5% reduction in body weight if overweight or obese.</li>
                           </ul>
                        </td>
                        <td/>
                        <td/>
                     </tr>
                  </table>
               </div>
            </text>
            <status value="active"/>
            <intent value="plan"/>
            <category>
               <coding>
                  <system value="http://terminology.hl7.org/CodeSystem/care-plan-category"/>
                  <code value="assess-plan"/>
                  <display value="Assessment and Plan"/>
               </coding>
            </category>
            <subject>
               <reference value="urn:uuid:c32f74ec-f559-4c50-be37-3c8de05bb2ce"/>
               <display value="Stephen Weinhage"/>
            </subject>
            <period>
               <start value="1998-12-28"/>
            </period>
            <goal>
               <reference value="urn:uuid:1d1cdefe-26d7-4560-983e-5142137c6bba"/>
            </goal>
            <goal>
               <reference value="urn:uuid:6f038507-adc1-4eaf-a378-6b7ac6c235de"/>
            </goal>
            <goal>
               <reference value="urn:uuid:6c709565-8458-46cd-b9b3-f485e2cf9e06"/>
            </goal>
            <goal>
               <reference value="urn:uuid:fafb1d21-9368-4762-9c70-ba36502283f1"/>
            </goal>
            <activity>
               <detail>
                  <kind value="Appointment"/>
                  <code>
                     <coding>
                        <system value="http://snomed.info/sct"/>
                        <code value="443402002"/>
                        <display value="Lifestyle education regarding hypertension (procedure)"/>
                     </coding>
                  </code>
                  <reasonCode>
                     <coding>
                        <system value="http://snomed.info/sct"/>
                        <code value="59621000"/>
                        <display value="Essential hypertension (disorder)"/>
                     </coding>
                  </reasonCode>
                  <status value="unknown"/>
                  <description value="Lifestyle education regarding hypertension"/>
               </detail>
            </activity>
         </CarePlan>
      </resource>
   </entry>
   <entry>
      <fullUrl value="urn:uuid:a6aa553d-480d-4fdd-b9bc-9fba19bb6d33"/>
      <resource>
         <CarePlan>
            <id value="a6aa553d-480d-4fdd-b9bc-9fba19bb6d33"/>
            <text>
               <status value="generated"/>
               <div xmlns="http://www.w3.org/1999/xhtml">
                  <table class="hl7__ips first25">
                     <tr>
                        <th>Active Planned Care / Goals</th>
                        <th>Start Date</th>
                        <th>Reason</th>
                     </tr>
                     <tr>
                        <td>Diabetes self management plan</td>
                        <td>
                           <span class="nb">07-Mar-1977</span>
                        </td>
                        <td>Prediabetes</td>
                     </tr>
                     <tr>
                        <td>
                           <ul>
                              <li>Patient will participate in diabetes self-management education to improve understanding and management of prediabetes and diabetes.</li>
                              <li>Achieve and maintain HbA1c at individualized target level.</li>
                              <li>Achieve and maintain fasting plasma glucose within recommended range.</li>
                              <li>Achieve weight reduction of at least 5% from baseline to improve glycemic control.</li>
                              <li>Achieve and maintain blood pressure within recommended range for diabetes.</li>
                           </ul>
                        </td>
                        <td/>
                        <td/>
                     </tr>
                  </table>
               </div>
            </text>
            <status value="active"/>
            <intent value="plan"/>
            <category>
               <coding>
                  <system value="http://terminology.hl7.org/CodeSystem/care-plan-category"/>
                  <code value="assess-plan"/>
                  <display value="Assessment and Plan"/>
               </coding>
            </category>
            <subject>
               <reference value="urn:uuid:c32f74ec-f559-4c50-be37-3c8de05bb2ce"/>
               <display value="Stephen Weinhage"/>
            </subject>
            <period>
               <start value="1977-03-07"/>
            </period>
            <goal>
               <reference value="urn:uuid:e4d873ed-be8a-4c21-9e41-20ed92d6f71a"/>
            </goal>
            <goal>
               <reference value="urn:uuid:105cfebd-d8b2-4e73-8195-4aff37ef41a0"/>
            </goal>
            <goal>
               <reference value="urn:uuid:c4e2ebb9-db93-4bd6-9d18-9440a76b558c"/>
            </goal>
            <goal>
               <reference value="urn:uuid:267c6e15-73a0-4cdb-ab5c-a9f3e47fdce2"/>
            </goal>
            <goal>
               <reference value="urn:uuid:bccbc456-105b-4fc6-ab35-f74a35dfc9a8"/>
            </goal>
            <activity>
               <detail>
                  <kind value="Appointment"/>
                  <code>
                     <coding>
                        <system value="http://snomed.info/sct"/>
                        <code value="698360004"/>
                        <display value="Diabetes self management plan (qualifier value)"/>
                     </coding>
                  </code>
                  <reasonCode>
                     <coding>
                        <system value="http://snomed.info/sct"/>
                        <code value="15777000"/>
                        <display value="Prediabetes"/>
                     </coding>
                  </reasonCode>
                  <status value="unknown"/>
                  <description value="Diabetes self management plan"/>
               </detail>
            </activity>
         </CarePlan>
      </resource>
   </entry>
   <entry>
      <fullUrl value="urn:uuid:e64ae4d0-b70a-4b11-b370-7f2ccd0d08e4"/>
      <resource>
         <CarePlan>
            <id value="e64ae4d0-b70a-4b11-b370-7f2ccd0d08e4"/>
            <text>
               <status value="generated"/>
               <div xmlns="http://www.w3.org/1999/xhtml">
                  <table class="hl7__ips first25">
                     <tr>
                        <th>Active Planned Care / Goals</th>
                        <th>Start Date</th>
                        <th>Reason</th>
                     </tr>
                     <tr>
                        <td>Self-care interventions</td>
                        <td>
                           <span class="nb">02-Nov-1949</span>
                        </td>
                        <td>-</td>
                     </tr>
                  </table>
               </div>
            </text>
            <status value="active"/>
            <intent value="plan"/>
            <category>
               <coding>
                  <system value="http://terminology.hl7.org/CodeSystem/care-plan-category"/>
                  <code value="assess-plan"/>
                  <display value="Assessment and Plan"/>
               </coding>
            </category>
            <subject>
               <reference value="urn:uuid:c32f74ec-f559-4c50-be37-3c8de05bb2ce"/>
               <display value="Stephen Weinhage"/>
            </subject>
            <period>
               <start value="1949-11-02"/>
            </period>
            <activity>
               <detail>
                  <kind value="Appointment"/>
                  <code>
                     <coding>
                        <system value="http://snomed.info/sct"/>
                        <code value="384758001"/>
                        <display value="Self-care interventions (procedure)"/>
                     </coding>
                  </code>
                  <status value="unknown"/>
                  <description value="Self-care interventions"/>
               </detail>
            </activity>
         </CarePlan>
      </resource>
   </entry>
   <entry>
      <fullUrl value="urn:uuid:d40f55a2-dcbd-40ef-ad96-54dab6d178ff"/>
      <resource>
         <ImmunizationRecommendation>
            <id value="d40f55a2-dcbd-40ef-ad96-54dab6d178ff"/>
            <text>
               <status value="generated"/>
               <div xmlns="http://www.w3.org/1999/xhtml">
                  <table class="hl7__ips">
                     <tr>
                        <td>Vaccine product containing only Influenza virus antigen (medicinal product)</td>
                        <td>
                           <span class="nb">01-Oct-2025</span>
                        </td>
                        <td>Annual seasonal influenza vaccination</td>
                     </tr>
                  </table>
               </div>
            </text>
            <patient>
               <reference value="urn:uuid:c32f74ec-f559-4c50-be37-3c8de05bb2ce"/>
               <display value="Stephen Weinhage"/>
            </patient>
            <date value="2025-10-22"/>
            <recommendation>
               <vaccineCode>
                  <coding>
                     <system value="http://snomed.info/sct"/>
                     <code value="1181000221105"/>
                     <display value="Vaccine product containing only Influenza virus antigen (medicinal product)"/>
                  </coding>
               </vaccineCode>
               <targetDisease>
                  <coding>
                     <system value="http://snomed.info/sct"/>
                     <code value="6142004"/>
                     <display value="Influenza (disorder)"/>
                  </coding>
               </targetDisease>
               <forecastStatus>
                  <coding>
                     <system value="http://terminology.hl7.org/CodeSystem/immunization-recommendation-status"/>
                     <code value="due"/>
                     <display value="Due"/>
                  </coding>
               </forecastStatus>
               <dateCriterion>
                  <code>
                     <coding>
                        <system value="http://loinc.org"/>
                        <code value="30980-7"/>
                        <display value="Date vaccine due"/>
                     </coding>
                  </code>
                  <value value="2025-10-01"/>
               </dateCriterion>
               <series value="Annual seasonal influenza vaccination"/>
            </recommendation>
         </ImmunizationRecommendation>
      </resource>
   </entry>
   <entry>
      <fullUrl value="urn:uuid:43fabe80-cf3a-44e0-9835-becc0880e395"/>
      <resource>
         <Observation>
            <id value="43fabe80-cf3a-44e0-9835-becc0880e395"/>
            <meta>
               <profile value="http://hl7.org/fhir/StructureDefinition/vitalsigns"/>
            </meta>
            <text>
               <status value="generated"/>
               <div xmlns="http://www.w3.org/1999/xhtml">
                  <table class="hl7__ips">
                     <tr>
                        <th>Vital Sign</th>
                        <th>Date</th>
                        <th>Measurement</th>
                     </tr>
                     <tr>
                        <td>Body Height</td>
                        <td>26-May-2025</td>
                        <td>173.1 cm</td>
                     </tr>
                  </table>
               </div>
            </text>
            <status value="final"/>
            <category>
               <coding>
                  <system value="http://terminology.hl7.org/CodeSystem/observation-category"/>
                  <code value="vital-signs"/>
                  <display value="Vital Signs"/>
               </coding>
            </category>
            <code>
               <coding>
                  <system value="http://loinc.org"/>
                  <code value="$8302-2"/>
                  <display value="Body Height"/>
               </coding>
            </code>
            <subject>
               <reference value="urn:uuid:c32f74ec-f559-4c50-be37-3c8de05bb2ce"/>
               <display value="Stephen Weinhage"/>
            </subject>
            <effectiveDateTime value="2025-05-26"/>
            <valueQuantity>
               <value value="173.1"/>
               <unit value="cm"/>
               <code value="cm"/>
            </valueQuantity>
         </Observation>
      </resource>
   </entry>
   <entry>
      <fullUrl value="urn:uuid:4c84e5fd-d2df-4c56-89df-fb79f8b3c8f8"/>
      <resource>
         <Observation>
            <id value="4c84e5fd-d2df-4c56-89df-fb79f8b3c8f8"/>
            <meta>
               <profile value="http://hl7.org/fhir/StructureDefinition/vitalsigns"/>
            </meta>
            <text>
               <status value="generated"/>
               <div xmlns="http://www.w3.org/1999/xhtml">
                  <table class="hl7__ips">
                     <tr>
                        <th>Vital Sign</th>
                        <th>Date</th>
                        <th>Measurement</th>
                     </tr>
                     <tr>
                        <td>Pain severity - 0-10 verbal numeric rating [Score] - Reported</td>
                        <td>26-May-2025</td>
                        <td>1 {score}</td>
                     </tr>
                  </table>
               </div>
            </text>
            <status value="final"/>
            <category>
               <coding>
                  <system value="http://terminology.hl7.org/CodeSystem/observation-category"/>
                  <code value="vital-signs"/>
                  <display value="Vital Signs"/>
               </coding>
            </category>
            <code>
               <coding>
                  <system value="http://loinc.org"/>
                  <code value="$72514-3"/>
                  <display value="Pain severity - 0-10 verbal numeric rating [Score] - Reported"/>
               </coding>
            </code>
            <subject>
               <reference value="urn:uuid:c32f74ec-f559-4c50-be37-3c8de05bb2ce"/>
               <display value="Stephen Weinhage"/>
            </subject>
            <effectiveDateTime value="2025-05-26"/>
            <valueQuantity>
               <value value="1"/>
               <unit value="{score}"/>
               <code value="{score}"/>
            </valueQuantity>
         </Observation>
      </resource>
   </entry>
   <entry>
      <fullUrl value="urn:uuid:329aa76a-2d99-4357-b494-52c462bab2da"/>
      <resource>
         <Observation>
            <id value="329aa76a-2d99-4357-b494-52c462bab2da"/>
            <meta>
               <profile value="http://hl7.org/fhir/StructureDefinition/vitalsigns"/>
            </meta>
            <text>
               <status value="generated"/>
               <div xmlns="http://www.w3.org/1999/xhtml">
                  <table class="hl7__ips">
                     <tr>
                        <th>Vital Sign</th>
                        <th>Date</th>
                        <th>Measurement</th>
                     </tr>
                     <tr>
                        <td>Body Weight</td>
                        <td>26-May-2025</td>
                        <td>83.2 kg</td>
                     </tr>
                  </table>
               </div>
            </text>
            <status value="final"/>
            <category>
               <coding>
                  <system value="http://terminology.hl7.org/CodeSystem/observation-category"/>
                  <code value="vital-signs"/>
                  <display value="Vital Signs"/>
               </coding>
            </category>
            <code>
               <coding>
                  <system value="http://loinc.org"/>
                  <code value="$29463-7"/>
                  <display value="Body Weight"/>
               </coding>
            </code>
            <subject>
               <reference value="urn:uuid:c32f74ec-f559-4c50-be37-3c8de05bb2ce"/>
               <display value="Stephen Weinhage"/>
            </subject>
            <effectiveDateTime value="2025-05-26"/>
            <valueQuantity>
               <value value="83.2"/>
               <unit value="kg"/>
               <code value="kg"/>
            </valueQuantity>
         </Observation>
      </resource>
   </entry>
   <entry>
      <fullUrl value="urn:uuid:63f7d11b-2aa9-4892-ab4c-2db8974ab8bc"/>
      <resource>
         <Observation>
            <id value="63f7d11b-2aa9-4892-ab4c-2db8974ab8bc"/>
            <meta>
               <profile value="http://hl7.org/fhir/StructureDefinition/vitalsigns"/>
            </meta>
            <text>
               <status value="generated"/>
               <div xmlns="http://www.w3.org/1999/xhtml">
                  <table class="hl7__ips">
                     <tr>
                        <th>Vital Sign</th>
                        <th>Date</th>
                        <th>Measurement</th>
                     </tr>
                     <tr>
                        <td>Body mass index (BMI) [Ratio]</td>
                        <td>26-May-2025</td>
                        <td>27.8 kg/m2</td>
                     </tr>
                  </table>
               </div>
            </text>
            <status value="final"/>
            <category>
               <coding>
                  <system value="http://terminology.hl7.org/CodeSystem/observation-category"/>
                  <code value="vital-signs"/>
                  <display value="Vital Signs"/>
               </coding>
            </category>
            <code>
               <coding>
                  <system value="http://loinc.org"/>
                  <code value="$39156-5"/>
                  <display value="Body mass index (BMI) [Ratio]"/>
               </coding>
            </code>
            <subject>
               <reference value="urn:uuid:c32f74ec-f559-4c50-be37-3c8de05bb2ce"/>
               <display value="Stephen Weinhage"/>
            </subject>
            <effectiveDateTime value="2025-05-26"/>
            <valueQuantity>
               <value value="27.8"/>
               <unit value="kg/m2"/>
               <code value="kg/m2"/>
            </valueQuantity>
         </Observation>
      </resource>
   </entry>
   <entry>
      <fullUrl value="urn:uuid:78777424-e3b7-4659-9396-6d4c8e06d4f2"/>
      <resource>
         <Observation>
            <id value="78777424-e3b7-4659-9396-6d4c8e06d4f2"/>
            <meta>
               <profile value="http://hl7.org/fhir/StructureDefinition/vitalsigns"/>
            </meta>
            <text>
               <status value="generated"/>
               <div xmlns="http://www.w3.org/1999/xhtml">
                  <table class="hl7__ips">
                     <tr>
                        <th>Vital Sign</th>
                        <th>Date</th>
                        <th>Measurement</th>
                     </tr>
                     <tr>
                        <td>Diastolic Blood Pressure</td>
                        <td>26-May-2025</td>
                        <td>88 mm[Hg]</td>
                     </tr>
                  </table>
               </div>
            </text>
            <status value="final"/>
            <category>
               <coding>
                  <system value="http://terminology.hl7.org/CodeSystem/observation-category"/>
                  <code value="vital-signs"/>
                  <display value="Vital Signs"/>
               </coding>
            </category>
            <code>
               <coding>
                  <system value="http://loinc.org"/>
                  <code value="$8462-4"/>
                  <display value="Diastolic Blood Pressure"/>
               </coding>
            </code>
            <subject>
               <reference value="urn:uuid:c32f74ec-f559-4c50-be37-3c8de05bb2ce"/>
               <display value="Stephen Weinhage"/>
            </subject>
            <effectiveDateTime value="2025-05-26"/>
            <valueQuantity>
               <value value="88"/>
               <unit value="mm[Hg]"/>
               <code value="mm[Hg]"/>
            </valueQuantity>
         </Observation>
      </resource>
   </entry>
   <entry>
      <fullUrl value="urn:uuid:c10a27ed-3f62-4753-b5d4-ab2124ae90e5"/>
      <resource>
         <Observation>
            <id value="c10a27ed-3f62-4753-b5d4-ab2124ae90e5"/>
            <meta>
               <profile value="http://hl7.org/fhir/StructureDefinition/vitalsigns"/>
            </meta>
            <text>
               <status value="generated"/>
               <div xmlns="http://www.w3.org/1999/xhtml">
                  <table class="hl7__ips">
                     <tr>
                        <th>Vital Sign</th>
                        <th>Date</th>
                        <th>Measurement</th>
                     </tr>
                     <tr>
                        <td>Systolic Blood Pressure</td>
                        <td>26-May-2025</td>
                        <td>119 mm[Hg]</td>
                     </tr>
                  </table>
               </div>
            </text>
            <status value="final"/>
            <category>
               <coding>
                  <system value="http://terminology.hl7.org/CodeSystem/observation-category"/>
                  <code value="vital-signs"/>
                  <display value="Vital Signs"/>
               </coding>
            </category>
            <code>
               <coding>
                  <system value="http://loinc.org"/>
                  <code value="$8480-6"/>
                  <display value="Systolic Blood Pressure"/>
               </coding>
            </code>
            <subject>
               <reference value="urn:uuid:c32f74ec-f559-4c50-be37-3c8de05bb2ce"/>
               <display value="Stephen Weinhage"/>
            </subject>
            <effectiveDateTime value="2025-05-26"/>
            <valueQuantity>
               <value value="119"/>
               <unit value="mm[Hg]"/>
               <code value="mm[Hg]"/>
            </valueQuantity>
         </Observation>
      </resource>
   </entry>
   <entry>
      <fullUrl value="urn:uuid:554bca10-9a35-4cfe-81f9-d449305ee79d"/>
      <resource>
         <Observation>
            <id value="554bca10-9a35-4cfe-81f9-d449305ee79d"/>
            <meta>
               <profile value="http://hl7.org/fhir/StructureDefinition/vitalsigns"/>
            </meta>
            <text>
               <status value="generated"/>
               <div xmlns="http://www.w3.org/1999/xhtml">
                  <table class="hl7__ips">
                     <tr>
                        <th>Vital Sign</th>
                        <th>Date</th>
                        <th>Measurement</th>
                     </tr>
                     <tr>
                        <td>Heart rate</td>
                        <td>26-May-2025</td>
                        <td>85 /min</td>
                     </tr>
                  </table>
               </div>
            </text>
            <status value="final"/>
            <category>
               <coding>
                  <system value="http://terminology.hl7.org/CodeSystem/observation-category"/>
                  <code value="vital-signs"/>
                  <display value="Vital Signs"/>
               </coding>
            </category>
            <code>
               <coding>
                  <system value="http://loinc.org"/>
                  <code value="$8867-4"/>
                  <display value="Heart rate"/>
               </coding>
            </code>
            <subject>
               <reference value="urn:uuid:c32f74ec-f559-4c50-be37-3c8de05bb2ce"/>
               <display value="Stephen Weinhage"/>
            </subject>
            <effectiveDateTime value="2025-05-26"/>
            <valueQuantity>
               <value value="85"/>
               <unit value="/min"/>
               <code value="/min"/>
            </valueQuantity>
         </Observation>
      </resource>
   </entry>
   <entry>
      <fullUrl value="urn:uuid:6c3d0cf1-9337-4e89-be8b-91c93fac83ce"/>
      <resource>
         <Observation>
            <id value="6c3d0cf1-9337-4e89-be8b-91c93fac83ce"/>
            <meta>
               <profile value="http://hl7.org/fhir/StructureDefinition/vitalsigns"/>
            </meta>
            <text>
               <status value="generated"/>
               <div xmlns="http://www.w3.org/1999/xhtml">
                  <table class="hl7__ips">
                     <tr>
                        <th>Vital Sign</th>
                        <th>Date</th>
                        <th>Measurement</th>
                     </tr>
                     <tr>
                        <td>Respiratory rate</td>
                        <td>26-May-2025</td>
                        <td>15 /min</td>
                     </tr>
                  </table>
               </div>
            </text>
            <status value="final"/>
            <category>
               <coding>
                  <system value="http://terminology.hl7.org/CodeSystem/observation-category"/>
                  <code value="vital-signs"/>
                  <display value="Vital Signs"/>
               </coding>
            </category>
            <code>
               <coding>
                  <system value="http://loinc.org"/>
                  <code value="$9279-1"/>
                  <display value="Respiratory rate"/>
               </coding>
            </code>
            <subject>
               <reference value="urn:uuid:c32f74ec-f559-4c50-be37-3c8de05bb2ce"/>
               <display value="Stephen Weinhage"/>
            </subject>
            <effectiveDateTime value="2025-05-26"/>
            <valueQuantity>
               <value value="15"/>
               <unit value="/min"/>
               <code value="/min"/>
            </valueQuantity>
         </Observation>
      </resource>
   </entry>
   <entry>
      <fullUrl value="urn:uuid:c55ea03d-8d40-44b8-a519-745dad0eb58d"/>
      <resource>
         <Observation>
            <id value="c55ea03d-8d40-44b8-a519-745dad0eb58d"/>
            <meta>
               <profile value="http://hl7.org/fhir/StructureDefinition/vitalsigns"/>
            </meta>
            <text>
               <status value="generated"/>
               <div xmlns="http://www.w3.org/1999/xhtml">
                  <table class="hl7__ips">
                     <tr>
                        <th>Vital Sign</th>
                        <th>Date</th>
                        <th>Measurement</th>
                     </tr>
                     <tr>
                        <td>Body Height</td>
                        <td>20-May-2024</td>
                        <td>173.1 cm</td>
                     </tr>
                  </table>
               </div>
            </text>
            <status value="final"/>
            <category>
               <coding>
                  <system value="http://terminology.hl7.org/CodeSystem/observation-category"/>
                  <code value="vital-signs"/>
                  <display value="Vital Signs"/>
               </coding>
            </category>
            <code>
               <coding>
                  <system value="http://loinc.org"/>
                  <code value="$8302-2"/>
                  <display value="Body Height"/>
               </coding>
            </code>
            <subject>
               <reference value="urn:uuid:c32f74ec-f559-4c50-be37-3c8de05bb2ce"/>
               <display value="Stephen Weinhage"/>
            </subject>
            <effectiveDateTime value="2024-05-20"/>
            <valueQuantity>
               <value value="173.1"/>
               <unit value="cm"/>
               <code value="cm"/>
            </valueQuantity>
         </Observation>
      </resource>
   </entry>
   <entry>
      <fullUrl value="urn:uuid:56897ff9-1a53-456c-91d7-c2b1bec454fc"/>
      <resource>
         <Observation>
            <id value="56897ff9-1a53-456c-91d7-c2b1bec454fc"/>
            <meta>
               <profile value="http://hl7.org/fhir/StructureDefinition/vitalsigns"/>
            </meta>
            <text>
               <status value="generated"/>
               <div xmlns="http://www.w3.org/1999/xhtml">
                  <table class="hl7__ips">
                     <tr>
                        <th>Vital Sign</th>
                        <th>Date</th>
                        <th>Measurement</th>
                     </tr>
                     <tr>
                        <td>Pain severity - 0-10 verbal numeric rating [Score] - Reported</td>
                        <td>20-May-2024</td>
                        <td>1 {score}</td>
                     </tr>
                  </table>
               </div>
            </text>
            <status value="final"/>
            <category>
               <coding>
                  <system value="http://terminology.hl7.org/CodeSystem/observation-category"/>
                  <code value="vital-signs"/>
                  <display value="Vital Signs"/>
               </coding>
            </category>
            <code>
               <coding>
                  <system value="http://loinc.org"/>
                  <code value="$72514-3"/>
                  <display value="Pain severity - 0-10 verbal numeric rating [Score] - Reported"/>
               </coding>
            </code>
            <subject>
               <reference value="urn:uuid:c32f74ec-f559-4c50-be37-3c8de05bb2ce"/>
               <display value="Stephen Weinhage"/>
            </subject>
            <effectiveDateTime value="2024-05-20"/>
            <valueQuantity>
               <value value="1"/>
               <unit value="{score}"/>
               <code value="{score}"/>
            </valueQuantity>
         </Observation>
      </resource>
   </entry>
   <entry>
      <fullUrl value="urn:uuid:70efe471-de10-464e-934f-5f79a848c4aa"/>
      <resource>
         <Observation>
            <id value="70efe471-de10-464e-934f-5f79a848c4aa"/>
            <meta>
               <profile value="http://hl7.org/fhir/StructureDefinition/vitalsigns"/>
            </meta>
            <text>
               <status value="generated"/>
               <div xmlns="http://www.w3.org/1999/xhtml">
                  <table class="hl7__ips">
                     <tr>
                        <th>Vital Sign</th>
                        <th>Date</th>
                        <th>Measurement</th>
                     </tr>
                     <tr>
                        <td>Body Weight</td>
                        <td>20-May-2024</td>
                        <td>83.2 kg</td>
                     </tr>
                  </table>
               </div>
            </text>
            <status value="final"/>
            <category>
               <coding>
                  <system value="http://terminology.hl7.org/CodeSystem/observation-category"/>
                  <code value="vital-signs"/>
                  <display value="Vital Signs"/>
               </coding>
            </category>
            <code>
               <coding>
                  <system value="http://loinc.org"/>
                  <code value="$29463-7"/>
                  <display value="Body Weight"/>
               </coding>
            </code>
            <subject>
               <reference value="urn:uuid:c32f74ec-f559-4c50-be37-3c8de05bb2ce"/>
               <display value="Stephen Weinhage"/>
            </subject>
            <effectiveDateTime value="2024-05-20"/>
            <valueQuantity>
               <value value="83.2"/>
               <unit value="kg"/>
               <code value="kg"/>
            </valueQuantity>
         </Observation>
      </resource>
   </entry>
   <entry>
      <fullUrl value="urn:uuid:b9f69a96-1d94-428b-a6c4-1ece1dafb6c7"/>
      <resource>
         <Observation>
            <id value="b9f69a96-1d94-428b-a6c4-1ece1dafb6c7"/>
            <meta>
               <profile value="http://hl7.org/fhir/StructureDefinition/vitalsigns"/>
            </meta>
            <text>
               <status value="generated"/>
               <div xmlns="http://www.w3.org/1999/xhtml">
                  <table class="hl7__ips">
                     <tr>
                        <th>Vital Sign</th>
                        <th>Date</th>
                        <th>Measurement</th>
                     </tr>
                     <tr>
                        <td>Body mass index (BMI) [Ratio]</td>
                        <td>20-May-2024</td>
                        <td>27.8 kg/m2</td>
                     </tr>
                  </table>
               </div>
            </text>
            <status value="final"/>
            <category>
               <coding>
                  <system value="http://terminology.hl7.org/CodeSystem/observation-category"/>
                  <code value="vital-signs"/>
                  <display value="Vital Signs"/>
               </coding>
            </category>
            <code>
               <coding>
                  <system value="http://loinc.org"/>
                  <code value="$39156-5"/>
                  <display value="Body mass index (BMI) [Ratio]"/>
               </coding>
            </code>
            <subject>
               <reference value="urn:uuid:c32f74ec-f559-4c50-be37-3c8de05bb2ce"/>
               <display value="Stephen Weinhage"/>
            </subject>
            <effectiveDateTime value="2024-05-20"/>
            <valueQuantity>
               <value value="27.8"/>
               <unit value="kg/m2"/>
               <code value="kg/m2"/>
            </valueQuantity>
         </Observation>
      </resource>
   </entry>
   <entry>
      <fullUrl value="urn:uuid:50e826e3-8491-4c34-b44c-0eb2734194bb"/>
      <resource>
         <Observation>
            <id value="50e826e3-8491-4c34-b44c-0eb2734194bb"/>
            <meta>
               <profile value="http://hl7.org/fhir/StructureDefinition/vitalsigns"/>
            </meta>
            <text>
               <status value="generated"/>
               <div xmlns="http://www.w3.org/1999/xhtml">
                  <table class="hl7__ips">
                     <tr>
                        <th>Vital Sign</th>
                        <th>Date</th>
                        <th>Measurement</th>
                     </tr>
                     <tr>
                        <td>Diastolic Blood Pressure</td>
                        <td>20-May-2024</td>
                        <td>85 mm[Hg]</td>
                     </tr>
                  </table>
               </div>
            </text>
            <status value="final"/>
            <category>
               <coding>
                  <system value="http://terminology.hl7.org/CodeSystem/observation-category"/>
                  <code value="vital-signs"/>
                  <display value="Vital Signs"/>
               </coding>
            </category>
            <code>
               <coding>
                  <system value="http://loinc.org"/>
                  <code value="$8462-4"/>
                  <display value="Diastolic Blood Pressure"/>
               </coding>
            </code>
            <subject>
               <reference value="urn:uuid:c32f74ec-f559-4c50-be37-3c8de05bb2ce"/>
               <display value="Stephen Weinhage"/>
            </subject>
            <effectiveDateTime value="2024-05-20"/>
            <valueQuantity>
               <value value="85"/>
               <unit value="mm[Hg]"/>
               <code value="mm[Hg]"/>
            </valueQuantity>
         </Observation>
      </resource>
   </entry>
   <entry>
      <fullUrl value="urn:uuid:78471719-f3a6-416a-a344-a529a32ea7b2"/>
      <resource>
         <Observation>
            <id value="78471719-f3a6-416a-a344-a529a32ea7b2"/>
            <meta>
               <profile value="http://hl7.org/fhir/StructureDefinition/vitalsigns"/>
            </meta>
            <text>
               <status value="generated"/>
               <div xmlns="http://www.w3.org/1999/xhtml">
                  <table class="hl7__ips">
                     <tr>
                        <th>Vital Sign</th>
                        <th>Date</th>
                        <th>Measurement</th>
                     </tr>
                     <tr>
                        <td>Systolic Blood Pressure</td>
                        <td>20-May-2024</td>
                        <td>122 mm[Hg]</td>
                     </tr>
                  </table>
               </div>
            </text>
            <status value="final"/>
            <category>
               <coding>
                  <system value="http://terminology.hl7.org/CodeSystem/observation-category"/>
                  <code value="vital-signs"/>
                  <display value="Vital Signs"/>
               </coding>
            </category>
            <code>
               <coding>
                  <system value="http://loinc.org"/>
                  <code value="$8480-6"/>
                  <display value="Systolic Blood Pressure"/>
               </coding>
            </code>
            <subject>
               <reference value="urn:uuid:c32f74ec-f559-4c50-be37-3c8de05bb2ce"/>
               <display value="Stephen Weinhage"/>
            </subject>
            <effectiveDateTime value="2024-05-20"/>
            <valueQuantity>
               <value value="122"/>
               <unit value="mm[Hg]"/>
               <code value="mm[Hg]"/>
            </valueQuantity>
         </Observation>
      </resource>
   </entry>
   <entry>
      <fullUrl value="urn:uuid:64b0fc03-2f3e-49df-8869-4722aaab2f92"/>
      <resource>
         <Observation>
            <id value="64b0fc03-2f3e-49df-8869-4722aaab2f92"/>
            <meta>
               <profile value="http://hl7.org/fhir/StructureDefinition/vitalsigns"/>
            </meta>
            <text>
               <status value="generated"/>
               <div xmlns="http://www.w3.org/1999/xhtml">
                  <table class="hl7__ips">
                     <tr>
                        <th>Vital Sign</th>
                        <th>Date</th>
                        <th>Measurement</th>
                     </tr>
                     <tr>
                        <td>Heart rate</td>
                        <td>20-May-2024</td>
                        <td>85 /min</td>
                     </tr>
                  </table>
               </div>
            </text>
            <status value="final"/>
            <category>
               <coding>
                  <system value="http://terminology.hl7.org/CodeSystem/observation-category"/>
                  <code value="vital-signs"/>
                  <display value="Vital Signs"/>
               </coding>
            </category>
            <code>
               <coding>
                  <system value="http://loinc.org"/>
                  <code value="$8867-4"/>
                  <display value="Heart rate"/>
               </coding>
            </code>
            <subject>
               <reference value="urn:uuid:c32f74ec-f559-4c50-be37-3c8de05bb2ce"/>
               <display value="Stephen Weinhage"/>
            </subject>
            <effectiveDateTime value="2024-05-20"/>
            <valueQuantity>
               <value value="85"/>
               <unit value="/min"/>
               <code value="/min"/>
            </valueQuantity>
         </Observation>
      </resource>
   </entry>
   <entry>
      <fullUrl value="urn:uuid:5b5e1184-ddf8-4ccf-aaa3-0180b5f8c8ff"/>
      <resource>
         <Observation>
            <id value="5b5e1184-ddf8-4ccf-aaa3-0180b5f8c8ff"/>
            <meta>
               <profile value="http://hl7.org/fhir/StructureDefinition/vitalsigns"/>
            </meta>
            <text>
               <status value="generated"/>
               <div xmlns="http://www.w3.org/1999/xhtml">
                  <table class="hl7__ips">
                     <tr>
                        <th>Vital Sign</th>
                        <th>Date</th>
                        <th>Measurement</th>
                     </tr>
                     <tr>
                        <td>Respiratory rate</td>
                        <td>20-May-2024</td>
                        <td>13 /min</td>
                     </tr>
                  </table>
               </div>
            </text>
            <status value="final"/>
            <category>
               <coding>
                  <system value="http://terminology.hl7.org/CodeSystem/observation-category"/>
                  <code value="vital-signs"/>
                  <display value="Vital Signs"/>
               </coding>
            </category>
            <code>
               <coding>
                  <system value="http://loinc.org"/>
                  <code value="$9279-1"/>
                  <display value="Respiratory rate"/>
               </coding>
            </code>
            <subject>
               <reference value="urn:uuid:c32f74ec-f559-4c50-be37-3c8de05bb2ce"/>
               <display value="Stephen Weinhage"/>
            </subject>
            <effectiveDateTime value="2024-05-20"/>
            <valueQuantity>
               <value value="13"/>
               <unit value="/min"/>
               <code value="/min"/>
            </valueQuantity>
         </Observation>
      </resource>
   </entry>
   <entry>
      <fullUrl value="urn:uuid:0925ae83-40d4-466e-aca1-21627d19f0b4"/>
      <resource>
         <Observation>
            <id value="0925ae83-40d4-466e-aca1-21627d19f0b4"/>
            <meta>
               <profile value="http://hl7.eu/fhir/laboratory/StructureDefinition/Observation-resultslab-eu-lab"/>
            </meta>
            <text>
               <status value="generated"/>
               <div xmlns="http://www.w3.org/1999/xhtml">
                  <table class="hl7__eu__lab__report">
                     <tr>
                        <th>Test</th>
                        <th>04-Jun-2025</th>
                        <th>Reference Range</th>
                        <th>Unit</th>
                     </tr>
                     <tr>
                        <td>Glucose [Mass/volume] in Blood</td>
                        <td>114.6</td>
                        <td>70 - 140</td>
                        <td/>
                        <td>mg/dL</td>
                     </tr>
                  </table>
               </div>
            </text>
            <status value="final"/>
            <category>
               <coding>
                  <system value="http://terminology.hl7.org/CodeSystem/observation-category"/>
                  <code value="laboratory"/>
               </coding>
            </category>
            <code>
               <coding>
                  <system value="http://loinc.org"/>
                  <code value="2339-0"/>
                  <display value="Glucose [Mass/volume] in Blood"/>
               </coding>
               <text value="Glucose [Mass/volume] in Blood"/>
            </code>
            <subject>
               <reference value="urn:uuid:c32f74ec-f559-4c50-be37-3c8de05bb2ce"/>
               <display value="Stephen Weinhage"/>
            </subject>
            <effectiveDateTime value="2025-06-04T06:55:50Z"/>
            <performer>
               <display value="The Central European Lab"/>
            </performer>
            <valueQuantity>
               <value value="114.6"/>
               <unit value="mg/dL"/>
               <system value="http://unitsofmeasure.org"/>
               <code value="mg/dL"/>
            </valueQuantity>
            <referenceRange>
               <low>
                  <value value="70"/>
                  <system value="http://unitsofmeasure.org"/>
                  <code value="mg/dL"/>
               </low>
            </referenceRange>
            <referenceRange>
               <high>
                  <value value="140"/>
                  <system value="http://unitsofmeasure.org"/>
                  <code value="mg/dL"/>
               </high>
            </referenceRange>
         </Observation>
      </resource>
   </entry>
   <entry>
      <fullUrl value="urn:uuid:0e63fb5b-0c39-4369-a799-4105bd352f7e"/>
      <resource>
         <Observation>
            <id value="0e63fb5b-0c39-4369-a799-4105bd352f7e"/>
            <meta>
               <profile value="http://hl7.eu/fhir/laboratory/StructureDefinition/Observation-resultslab-eu-lab"/>
            </meta>
            <text>
               <status value="generated"/>
               <div xmlns="http://www.w3.org/1999/xhtml">
                  <table class="hl7__eu__lab__report">
                     <tr>
                        <th>Test</th>
                        <th>04-Jun-2025</th>
                        <th>Reference Range</th>
                        <th>Unit</th>
                     </tr>
                     <tr>
                        <td>Urea nitrogen [Mass/volume] in Blood</td>
                        <td>7.1</td>
                        <td>7 - 20</td>
                        <td/>
                        <td>mg/dL</td>
                     </tr>
                  </table>
               </div>
            </text>
            <status value="final"/>
            <category>
               <coding>
                  <system value="http://terminology.hl7.org/CodeSystem/observation-category"/>
                  <code value="laboratory"/>
               </coding>
            </category>
            <code>
               <coding>
                  <system value="http://loinc.org"/>
                  <code value="6299-2"/>
                  <display value="Urea nitrogen [Mass/volume] in Blood"/>
               </coding>
               <text value="Urea nitrogen [Mass/volume] in Blood"/>
            </code>
            <subject>
               <reference value="urn:uuid:c32f74ec-f559-4c50-be37-3c8de05bb2ce"/>
               <display value="Stephen Weinhage"/>
            </subject>
            <effectiveDateTime value="2025-06-04T06:55:50Z"/>
            <performer>
               <display value="The Central European Lab"/>
            </performer>
            <valueQuantity>
               <value value="7.1"/>
               <unit value="mg/dL"/>
               <system value="http://unitsofmeasure.org"/>
               <code value="mg/dL"/>
            </valueQuantity>
            <referenceRange>
               <low>
                  <value value="7"/>
                  <system value="http://unitsofmeasure.org"/>
                  <code value="mg/dL"/>
               </low>
            </referenceRange>
            <referenceRange>
               <high>
                  <value value="20"/>
                  <system value="http://unitsofmeasure.org"/>
                  <code value="mg/dL"/>
               </high>
            </referenceRange>
         </Observation>
      </resource>
   </entry>
   <entry>
      <fullUrl value="urn:uuid:9c38dc6f-9087-441d-902d-afef8b6b1f6c"/>
      <resource>
         <Observation>
            <id value="9c38dc6f-9087-441d-902d-afef8b6b1f6c"/>
            <meta>
               <profile value="http://hl7.eu/fhir/laboratory/StructureDefinition/Observation-resultslab-eu-lab"/>
            </meta>
            <text>
               <status value="generated"/>
               <div xmlns="http://www.w3.org/1999/xhtml">
                  <table class="hl7__eu__lab__report">
                     <tr>
                        <th>Test</th>
                        <th>04-Jun-2025</th>
                        <th>Reference Range</th>
                        <th>Unit</th>
                     </tr>
                     <tr>
                        <td>Creatinine [Mass/volume] in Blood</td>
                        <td>3.5</td>
                        <td>0.6 - 1.3</td>
                        <td>H</td>
                        <td>mg/dL</td>
                     </tr>
                  </table>
               </div>
            </text>
            <status value="final"/>
            <category>
               <coding>
                  <system value="http://terminology.hl7.org/CodeSystem/observation-category"/>
                  <code value="laboratory"/>
               </coding>
            </category>
            <code>
               <coding>
                  <system value="http://loinc.org"/>
                  <code value="38483-4"/>
                  <display value="Creatinine [Mass/volume] in Blood"/>
               </coding>
               <text value="Creatinine [Mass/volume] in Blood"/>
            </code>
            <subject>
               <reference value="urn:uuid:c32f74ec-f559-4c50-be37-3c8de05bb2ce"/>
               <display value="Stephen Weinhage"/>
            </subject>
            <effectiveDateTime value="2025-06-04T06:55:50Z"/>
            <performer>
               <display value="The Central European Lab"/>
            </performer>
            <valueQuantity>
               <value value="3.5"/>
               <unit value="mg/dL"/>
               <system value="http://unitsofmeasure.org"/>
               <code value="mg/dL"/>
            </valueQuantity>
            <interpretation>
               <coding>
                  <system value="http://terminology.hl7.org/CodeSystem/v3-ObservationInterpretation"/>
                  <code value="H"/>
                  <display value="High"/>
               </coding>
            </interpretation>
            <referenceRange>
               <low>
                  <value value="0.6"/>
                  <system value="http://unitsofmeasure.org"/>
                  <code value="mg/dL"/>
               </low>
            </referenceRange>
            <referenceRange>
               <high>
                  <value value="1.3"/>
                  <system value="http://unitsofmeasure.org"/>
                  <code value="mg/dL"/>
               </high>
            </referenceRange>
         </Observation>
      </resource>
   </entry>
   <entry>
      <fullUrl value="urn:uuid:e26849c2-f6ca-4176-813b-65504cce0658"/>
      <resource>
         <Observation>
            <id value="e26849c2-f6ca-4176-813b-65504cce0658"/>
            <meta>
               <profile value="http://hl7.eu/fhir/laboratory/StructureDefinition/Observation-resultslab-eu-lab"/>
            </meta>
            <text>
               <status value="generated"/>
               <div xmlns="http://www.w3.org/1999/xhtml">
                  <table class="hl7__eu__lab__report">
                     <tr>
                        <th>Test</th>
                        <th>04-Jun-2025</th>
                        <th>Reference Range</th>
                        <th>Unit</th>
                     </tr>
                     <tr>
                        <td>Calcium [Mass/volume] in Blood</td>
                        <td>8.8</td>
                        <td>8.5 - 10.5</td>
                        <td/>
                        <td>mg/dL</td>
                     </tr>
                  </table>
               </div>
            </text>
            <status value="final"/>
            <category>
               <coding>
                  <system value="http://terminology.hl7.org/CodeSystem/observation-category"/>
                  <code value="laboratory"/>
               </coding>
            </category>
            <code>
               <coding>
                  <system value="http://loinc.org"/>
                  <code value="49765-1"/>
                  <display value="Calcium [Mass/volume] in Blood"/>
               </coding>
               <text value="Calcium [Mass/volume] in Blood"/>
            </code>
            <subject>
               <reference value="urn:uuid:c32f74ec-f559-4c50-be37-3c8de05bb2ce"/>
               <display value="Stephen Weinhage"/>
            </subject>
            <effectiveDateTime value="2025-06-04T06:55:50Z"/>
            <performer>
               <display value="The Central European Lab"/>
            </performer>
            <valueQuantity>
               <value value="8.8"/>
               <unit value="mg/dL"/>
               <system value="http://unitsofmeasure.org"/>
               <code value="mg/dL"/>
            </valueQuantity>
            <referenceRange>
               <low>
                  <value value="8.5"/>
                  <system value="http://unitsofmeasure.org"/>
                  <code value="mg/dL"/>
               </low>
            </referenceRange>
            <referenceRange>
               <high>
                  <value value="10.5"/>
                  <system value="http://unitsofmeasure.org"/>
                  <code value="mg/dL"/>
               </high>
            </referenceRange>
         </Observation>
      </resource>
   </entry>
   <entry>
      <fullUrl value="urn:uuid:3dd1601e-d03b-4056-90b7-0692d36f5b6d"/>
      <resource>
         <Observation>
            <id value="3dd1601e-d03b-4056-90b7-0692d36f5b6d"/>
            <meta>
               <profile value="http://hl7.eu/fhir/laboratory/StructureDefinition/Observation-resultslab-eu-lab"/>
            </meta>
            <text>
               <status value="generated"/>
               <div xmlns="http://www.w3.org/1999/xhtml">
                  <table class="hl7__eu__lab__report">
                     <tr>
                        <th>Test</th>
                        <th>04-Jun-2025</th>
                        <th>Reference Range</th>
                        <th>Unit</th>
                     </tr>
                     <tr>
                        <td>Sodium [Moles/volume] in Blood</td>
                        <td>143.6</td>
                        <td>135 - 145</td>
                        <td/>
                        <td>mmol/L</td>
                     </tr>
                  </table>
               </div>
            </text>
            <status value="final"/>
            <category>
               <coding>
                  <system value="http://terminology.hl7.org/CodeSystem/observation-category"/>
                  <code value="laboratory"/>
               </coding>
            </category>
            <code>
               <coding>
                  <system value="http://loinc.org"/>
                  <code value="2947-0"/>
                  <display value="Sodium [Moles/volume] in Blood"/>
               </coding>
               <text value="Sodium [Moles/volume] in Blood"/>
            </code>
            <subject>
               <reference value="urn:uuid:c32f74ec-f559-4c50-be37-3c8de05bb2ce"/>
               <display value="Stephen Weinhage"/>
            </subject>
            <effectiveDateTime value="2025-06-04T06:55:50Z"/>
            <performer>
               <display value="The Central European Lab"/>
            </performer>
            <valueQuantity>
               <value value="143.6"/>
               <unit value="mmol/L"/>
               <system value="http://unitsofmeasure.org"/>
               <code value="mmol/L"/>
            </valueQuantity>
            <referenceRange>
               <low>
                  <value value="135"/>
                  <system value="http://unitsofmeasure.org"/>
                  <code value="mmol/L"/>
               </low>
            </referenceRange>
            <referenceRange>
               <high>
                  <value value="145"/>
                  <system value="http://unitsofmeasure.org"/>
                  <code value="mmol/L"/>
               </high>
            </referenceRange>
         </Observation>
      </resource>
   </entry>
   <entry>
      <fullUrl value="urn:uuid:f449a266-d93d-4604-8969-bf8b63aa1343"/>
      <resource>
         <Observation>
            <id value="f449a266-d93d-4604-8969-bf8b63aa1343"/>
            <meta>
               <profile value="http://hl7.eu/fhir/laboratory/StructureDefinition/Observation-resultslab-eu-lab"/>
            </meta>
            <text>
               <status value="generated"/>
               <div xmlns="http://www.w3.org/1999/xhtml">
                  <table class="hl7__eu__lab__report">
                     <tr>
                        <th>Test</th>
                        <th>04-Jun-2025</th>
                        <th>Reference Range</th>
                        <th>Unit</th>
                     </tr>
                     <tr>
                        <td>Potassium [Moles/volume] in Blood</td>
                        <td>4.8</td>
                        <td>3.5 - 5.1</td>
                        <td/>
                        <td>mmol/L</td>
                     </tr>
                  </table>
               </div>
            </text>
            <status value="final"/>
            <category>
               <coding>
                  <system value="http://terminology.hl7.org/CodeSystem/observation-category"/>
                  <code value="laboratory"/>
               </coding>
            </category>
            <code>
               <coding>
                  <system value="http://loinc.org"/>
                  <code value="6298-4"/>
                  <display value="Potassium [Moles/volume] in Blood"/>
               </coding>
               <text value="Potassium [Moles/volume] in Blood"/>
            </code>
            <subject>
               <reference value="urn:uuid:c32f74ec-f559-4c50-be37-3c8de05bb2ce"/>
               <display value="Stephen Weinhage"/>
            </subject>
            <effectiveDateTime value="2025-06-04T06:55:50Z"/>
            <performer>
               <display value="The Central European Lab"/>
            </performer>
            <valueQuantity>
               <value value="4.8"/>
               <unit value="mmol/L"/>
               <system value="http://unitsofmeasure.org"/>
               <code value="mmol/L"/>
            </valueQuantity>
            <referenceRange>
               <low>
                  <value value="3.5"/>
                  <system value="http://unitsofmeasure.org"/>
                  <code value="mmol/L"/>
               </low>
            </referenceRange>
            <referenceRange>
               <high>
                  <value value="5.1"/>
                  <system value="http://unitsofmeasure.org"/>
                  <code value="mmol/L"/>
               </high>
            </referenceRange>
         </Observation>
      </resource>
   </entry>
   <entry>
      <fullUrl value="urn:uuid:1a58ae02-0c89-4485-bd22-37b959a88b7c"/>
      <resource>
         <Observation>
            <id value="1a58ae02-0c89-4485-bd22-37b959a88b7c"/>
            <meta>
               <profile value="http://hl7.eu/fhir/laboratory/StructureDefinition/Observation-resultslab-eu-lab"/>
            </meta>
            <text>
               <status value="generated"/>
               <div xmlns="http://www.w3.org/1999/xhtml">
                  <table class="hl7__eu__lab__report">
                     <tr>
                        <th>Test</th>
                        <th>04-Jun-2025</th>
                        <th>Reference Range</th>
                        <th>Unit</th>
                     </tr>
                     <tr>
                        <td>Chloride [Moles/volume] in Blood</td>
                        <td>109.7</td>
                        <td>98 - 108</td>
                        <td>H</td>
                        <td>mmol/L</td>
                     </tr>
                  </table>
               </div>
            </text>
            <status value="final"/>
            <category>
               <coding>
                  <system value="http://terminology.hl7.org/CodeSystem/observation-category"/>
                  <code value="laboratory"/>
               </coding>
            </category>
            <code>
               <coding>
                  <system value="http://loinc.org"/>
                  <code value="2069-3"/>
                  <display value="Chloride [Moles/volume] in Blood"/>
               </coding>
               <text value="Chloride [Moles/volume] in Blood"/>
            </code>
            <subject>
               <reference value="urn:uuid:c32f74ec-f559-4c50-be37-3c8de05bb2ce"/>
               <display value="Stephen Weinhage"/>
            </subject>
            <effectiveDateTime value="2025-06-04T06:55:50Z"/>
            <performer>
               <display value="The Central European Lab"/>
            </performer>
            <valueQuantity>
               <value value="109.7"/>
               <unit value="mmol/L"/>
               <system value="http://unitsofmeasure.org"/>
               <code value="mmol/L"/>
            </valueQuantity>
            <interpretation>
               <coding>
                  <system value="http://terminology.hl7.org/CodeSystem/v3-ObservationInterpretation"/>
                  <code value="H"/>
                  <display value="High"/>
               </coding>
            </interpretation>
            <referenceRange>
               <low>
                  <value value="98"/>
                  <system value="http://unitsofmeasure.org"/>
                  <code value="mmol/L"/>
               </low>
            </referenceRange>
            <referenceRange>
               <high>
                  <value value="108"/>
                  <system value="http://unitsofmeasure.org"/>
                  <code value="mmol/L"/>
               </high>
            </referenceRange>
         </Observation>
      </resource>
   </entry>
   <entry>
      <fullUrl value="urn:uuid:039ad45f-f708-4962-a848-a4cf4b856a41"/>
      <resource>
         <Observation>
            <id value="039ad45f-f708-4962-a848-a4cf4b856a41"/>
            <meta>
               <profile value="http://hl7.eu/fhir/laboratory/StructureDefinition/Observation-resultslab-eu-lab"/>
            </meta>
            <text>
               <status value="generated"/>
               <div xmlns="http://www.w3.org/1999/xhtml">
                  <table class="hl7__eu__lab__report">
                     <tr>
                        <th>Test</th>
                        <th>04-Jun-2025</th>
                        <th>Reference Range</th>
                        <th>Unit</th>
                     </tr>
                     <tr>
                        <td>Carbon dioxide, total [Moles/volume] in Blood</td>
                        <td>20.6</td>
                        <td>22 - 32</td>
                        <td>L</td>
                        <td>mmol/L</td>
                     </tr>
                  </table>
               </div>
            </text>
            <status value="final"/>
            <category>
               <coding>
                  <system value="http://terminology.hl7.org/CodeSystem/observation-category"/>
                  <code value="laboratory"/>
               </coding>
            </category>
            <code>
               <coding>
                  <system value="http://loinc.org"/>
                  <code value="20565-8"/>
                  <display value="Carbon dioxide, total [Moles/volume] in Blood"/>
               </coding>
               <text value="Carbon dioxide, total [Moles/volume] in Blood"/>
            </code>
            <subject>
               <reference value="urn:uuid:c32f74ec-f559-4c50-be37-3c8de05bb2ce"/>
               <display value="Stephen Weinhage"/>
            </subject>
            <effectiveDateTime value="2025-06-04T06:55:50Z"/>
            <performer>
               <display value="The Central European Lab"/>
            </performer>
            <valueQuantity>
               <value value="20.6"/>
               <unit value="mmol/L"/>
               <system value="http://unitsofmeasure.org"/>
               <code value="mmol/L"/>
            </valueQuantity>
            <interpretation>
               <coding>
                  <system value="http://terminology.hl7.org/CodeSystem/v3-ObservationInterpretation"/>
                  <code value="L"/>
                  <display value="Low"/>
               </coding>
            </interpretation>
            <referenceRange>
               <low>
                  <value value="22"/>
                  <system value="http://unitsofmeasure.org"/>
                  <code value="mmol/L"/>
               </low>
            </referenceRange>
            <referenceRange>
               <high>
                  <value value="32"/>
                  <system value="http://unitsofmeasure.org"/>
                  <code value="mmol/L"/>
               </high>
            </referenceRange>
         </Observation>
      </resource>
   </entry>
   <entry>
      <fullUrl value="urn:uuid:e09e4417-8d9b-4026-8ab8-3459459ff716"/>
      <resource>
         <Observation>
            <id value="e09e4417-8d9b-4026-8ab8-3459459ff716"/>
            <meta>
               <profile value="http://hl7.eu/fhir/laboratory/StructureDefinition/Observation-resultslab-eu-lab"/>
            </meta>
            <text>
               <status value="generated"/>
               <div xmlns="http://www.w3.org/1999/xhtml">
                  <table class="hl7__eu__lab__report">
                     <tr>
                        <th>Test</th>
                        <th>04-Jun-2025</th>
                        <th>Reference Range</th>
                        <th>Unit</th>
                     </tr>
                     <tr>
                        <td>Protein [Mass/volume] in Serum or Plasma</td>
                        <td>7.0</td>
                        <td>6.6 - 8.3</td>
                        <td/>
                        <td>g/dL</td>
                     </tr>
                  </table>
               </div>
            </text>
            <status value="final"/>
            <category>
               <coding>
                  <system value="http://terminology.hl7.org/CodeSystem/observation-category"/>
                  <code value="laboratory"/>
               </coding>
            </category>
            <code>
               <coding>
                  <system value="http://loinc.org"/>
                  <code value="2885-2"/>
                  <display value="Protein [Mass/volume] in Serum or Plasma"/>
               </coding>
               <text value="Protein [Mass/volume] in Serum or Plasma"/>
            </code>
            <subject>
               <reference value="urn:uuid:c32f74ec-f559-4c50-be37-3c8de05bb2ce"/>
               <display value="Stephen Weinhage"/>
            </subject>
            <effectiveDateTime value="2025-06-04T06:55:50Z"/>
            <performer>
               <display value="The Central European Lab"/>
            </performer>
            <valueQuantity>
               <value value="7"/>
               <unit value="g/dL"/>
               <system value="http://unitsofmeasure.org"/>
               <code value="g/dL"/>
            </valueQuantity>
            <referenceRange>
               <low>
                  <value value="6.6"/>
                  <system value="http://unitsofmeasure.org"/>
                  <code value="g/dL"/>
               </low>
            </referenceRange>
            <referenceRange>
               <high>
                  <value value="8.3"/>
                  <system value="http://unitsofmeasure.org"/>
                  <code value="g/dL"/>
               </high>
            </referenceRange>
         </Observation>
      </resource>
   </entry>
   <entry>
      <fullUrl value="urn:uuid:9c6fc5e5-677b-4b8d-b1c6-badb3e5d41f4"/>
      <resource>
         <Observation>
            <id value="9c6fc5e5-677b-4b8d-b1c6-badb3e5d41f4"/>
            <meta>
               <profile value="http://hl7.eu/fhir/laboratory/StructureDefinition/Observation-resultslab-eu-lab"/>
            </meta>
            <text>
               <status value="generated"/>
               <div xmlns="http://www.w3.org/1999/xhtml">
                  <table class="hl7__eu__lab__report">
                     <tr>
                        <th>Test</th>
                        <th>04-Jun-2025</th>
                        <th>Reference Range</th>
                        <th>Unit</th>
                     </tr>
                     <tr>
                        <td>Albumin [Mass/volume] in Serum or Plasma</td>
                        <td>4.7</td>
                        <td>3.5 - 5.5</td>
                        <td/>
                        <td>g/dL</td>
                     </tr>
                  </table>
               </div>
            </text>
            <status value="final"/>
            <category>
               <coding>
                  <system value="http://terminology.hl7.org/CodeSystem/observation-category"/>
                  <code value="laboratory"/>
               </coding>
            </category>
            <code>
               <coding>
                  <system value="http://loinc.org"/>
                  <code value="1751-7"/>
                  <display value="Albumin [Mass/volume] in Serum or Plasma"/>
               </coding>
               <text value="Albumin [Mass/volume] in Serum or Plasma"/>
            </code>
            <subject>
               <reference value="urn:uuid:c32f74ec-f559-4c50-be37-3c8de05bb2ce"/>
               <display value="Stephen Weinhage"/>
            </subject>
            <effectiveDateTime value="2025-06-04T06:55:50Z"/>
            <performer>
               <display value="The Central European Lab"/>
            </performer>
            <valueQuantity>
               <value value="4.7"/>
               <unit value="g/dL"/>
               <system value="http://unitsofmeasure.org"/>
               <code value="g/dL"/>
            </valueQuantity>
            <referenceRange>
               <low>
                  <value value="3.5"/>
                  <system value="http://unitsofmeasure.org"/>
                  <code value="g/dL"/>
               </low>
            </referenceRange>
            <referenceRange>
               <high>
                  <value value="5.5"/>
                  <system value="http://unitsofmeasure.org"/>
                  <code value="g/dL"/>
               </high>
            </referenceRange>
         </Observation>
      </resource>
   </entry>
   <entry>
      <fullUrl value="urn:uuid:4dad3e56-11f5-4123-b991-134cc4760cf3"/>
      <resource>
         <Observation>
            <id value="4dad3e56-11f5-4123-b991-134cc4760cf3"/>
            <meta>
               <profile value="http://hl7.eu/fhir/laboratory/StructureDefinition/Observation-resultslab-eu-lab"/>
            </meta>
            <text>
               <status value="generated"/>
               <div xmlns="http://www.w3.org/1999/xhtml">
                  <table class="hl7__eu__lab__report">
                     <tr>
                        <th>Test</th>
                        <th>04-Jun-2025</th>
                        <th>Reference Range</th>
                        <th>Unit</th>
                     </tr>
                     <tr>
                        <td>Globulin [Mass/volume] in Serum by calculation</td>
                        <td>3.4</td>
                        <td>2 - 3.5</td>
                        <td/>
                        <td>g/L</td>
                     </tr>
                  </table>
               </div>
            </text>
            <status value="final"/>
            <category>
               <coding>
                  <system value="http://terminology.hl7.org/CodeSystem/observation-category"/>
                  <code value="laboratory"/>
               </coding>
            </category>
            <code>
               <coding>
                  <system value="http://loinc.org"/>
                  <code value="10834-0"/>
                  <display value="Globulin [Mass/volume] in Serum by calculation"/>
               </coding>
               <text value="Globulin [Mass/volume] in Serum by calculation"/>
            </code>
            <subject>
               <reference value="urn:uuid:c32f74ec-f559-4c50-be37-3c8de05bb2ce"/>
               <display value="Stephen Weinhage"/>
            </subject>
            <effectiveDateTime value="2025-06-04T06:55:50Z"/>
            <performer>
               <display value="The Central European Lab"/>
            </performer>
            <valueQuantity>
               <value value="3.4"/>
               <unit value="g/L"/>
               <system value="http://unitsofmeasure.org"/>
               <code value="g/L"/>
            </valueQuantity>
            <referenceRange>
               <low>
                  <value value="2"/>
                  <system value="http://unitsofmeasure.org"/>
                  <code value="g/L"/>
               </low>
            </referenceRange>
            <referenceRange>
               <high>
                  <value value="3.5"/>
                  <system value="http://unitsofmeasure.org"/>
                  <code value="g/L"/>
               </high>
            </referenceRange>
         </Observation>
      </resource>
   </entry>
   <entry>
      <fullUrl value="urn:uuid:ef4de292-a788-4282-b79d-a4decf0c724f"/>
      <resource>
         <Observation>
            <id value="ef4de292-a788-4282-b79d-a4decf0c724f"/>
            <meta>
               <profile value="http://hl7.eu/fhir/laboratory/StructureDefinition/Observation-resultslab-eu-lab"/>
            </meta>
            <text>
               <status value="generated"/>
               <div xmlns="http://www.w3.org/1999/xhtml">
                  <table class="hl7__eu__lab__report">
                     <tr>
                        <th>Test</th>
                        <th>04-Jun-2025</th>
                        <th>Reference Range</th>
                        <th>Unit</th>
                     </tr>
                     <tr>
                        <td>Bilirubin.total [Mass/volume] in Serum or Plasma</td>
                        <td>1.1</td>
                        <td>0.3 - 1.2</td>
                        <td/>
                        <td>mg/dL</td>
                     </tr>
                  </table>
               </div>
            </text>
            <status value="final"/>
            <category>
               <coding>
                  <system value="http://terminology.hl7.org/CodeSystem/observation-category"/>
                  <code value="laboratory"/>
               </coding>
            </category>
            <code>
               <coding>
                  <system value="http://loinc.org"/>
                  <code value="1975-2"/>
                  <display value="Bilirubin.total [Mass/volume] in Serum or Plasma"/>
               </coding>
               <text value="Bilirubin.total [Mass/volume] in Serum or Plasma"/>
            </code>
            <subject>
               <reference value="urn:uuid:c32f74ec-f559-4c50-be37-3c8de05bb2ce"/>
               <display value="Stephen Weinhage"/>
            </subject>
            <effectiveDateTime value="2025-06-04T06:55:50Z"/>
            <performer>
               <display value="The Central European Lab"/>
            </performer>
            <valueQuantity>
               <value value="1.1"/>
               <unit value="mg/dL"/>
               <system value="http://unitsofmeasure.org"/>
               <code value="mg/dL"/>
            </valueQuantity>
            <referenceRange>
               <low>
                  <value value="0.3"/>
                  <system value="http://unitsofmeasure.org"/>
                  <code value="mg/dL"/>
               </low>
            </referenceRange>
            <referenceRange>
               <high>
                  <value value="1.2"/>
                  <system value="http://unitsofmeasure.org"/>
                  <code value="mg/dL"/>
               </high>
            </referenceRange>
         </Observation>
      </resource>
   </entry>
   <entry>
      <fullUrl value="urn:uuid:9e1961e0-c7a4-47e4-a07e-36d9d4021cc1"/>
      <resource>
         <Observation>
            <id value="9e1961e0-c7a4-47e4-a07e-36d9d4021cc1"/>
            <meta>
               <profile value="http://hl7.eu/fhir/laboratory/StructureDefinition/Observation-resultslab-eu-lab"/>
            </meta>
            <text>
               <status value="generated"/>
               <div xmlns="http://www.w3.org/1999/xhtml">
                  <table class="hl7__eu__lab__report">
                     <tr>
                        <th>Test</th>
                        <th>04-Jun-2025</th>
                        <th>Reference Range</th>
                        <th>Unit</th>
                     </tr>
                     <tr>
                        <td>Alkaline phosphatase [Enzymatic activity/volume] in Serum or Plasma</td>
                        <td>92.4</td>
                        <td>53 - 130</td>
                        <td/>
                        <td>U/L</td>
                     </tr>
                  </table>
               </div>
            </text>
            <status value="final"/>
            <category>
               <coding>
                  <system value="http://terminology.hl7.org/CodeSystem/observation-category"/>
                  <code value="laboratory"/>
               </coding>
            </category>
            <code>
               <coding>
                  <system value="http://loinc.org"/>
                  <code value="6768-6"/>
                  <display value="Alkaline phosphatase [Enzymatic activity/volume] in Serum or Plasma"/>
               </coding>
               <text value="Alkaline phosphatase [Enzymatic activity/volume] in Serum or Plasma"/>
            </code>
            <subject>
               <reference value="urn:uuid:c32f74ec-f559-4c50-be37-3c8de05bb2ce"/>
               <display value="Stephen Weinhage"/>
            </subject>
            <effectiveDateTime value="2025-06-04T06:55:50Z"/>
            <performer>
               <display value="The Central European Lab"/>
            </performer>
            <valueQuantity>
               <value value="92.4"/>
               <unit value="U/L"/>
               <system value="http://unitsofmeasure.org"/>
               <code value="U/L"/>
            </valueQuantity>
            <referenceRange>
               <low>
                  <value value="53"/>
                  <system value="http://unitsofmeasure.org"/>
                  <code value="U/L"/>
               </low>
            </referenceRange>
            <referenceRange>
               <high>
                  <value value="130"/>
                  <system value="http://unitsofmeasure.org"/>
                  <code value="U/L"/>
               </high>
            </referenceRange>
         </Observation>
      </resource>
   </entry>
   <entry>
      <fullUrl value="urn:uuid:48210133-b7f3-4f2f-b176-d6c51a6e1018"/>
      <resource>
         <Observation>
            <id value="48210133-b7f3-4f2f-b176-d6c51a6e1018"/>
            <meta>
               <profile value="http://hl7.eu/fhir/laboratory/StructureDefinition/Observation-resultslab-eu-lab"/>
            </meta>
            <text>
               <status value="generated"/>
               <div xmlns="http://www.w3.org/1999/xhtml">
                  <table class="hl7__eu__lab__report">
                     <tr>
                        <th>Test</th>
                        <th>04-Jun-2025</th>
                        <th>Reference Range</th>
                        <th>Unit</th>
                     </tr>
                     <tr>
                        <td>Alanine aminotransferase [Enzymatic activity/volume] in Serum or Plasma</td>
                        <td>36.1</td>
                        <td>7 - 60</td>
                        <td/>
                        <td>U/L</td>
                     </tr>
                  </table>
               </div>
            </text>
            <status value="final"/>
            <category>
               <coding>
                  <system value="http://terminology.hl7.org/CodeSystem/observation-category"/>
                  <code value="laboratory"/>
               </coding>
            </category>
            <code>
               <coding>
                  <system value="http://loinc.org"/>
                  <code value="1742-6"/>
                  <display value="Alanine aminotransferase [Enzymatic activity/volume] in Serum or Plasma"/>
               </coding>
               <text value="Alanine aminotransferase [Enzymatic activity/volume] in Serum or Plasma"/>
            </code>
            <subject>
               <reference value="urn:uuid:c32f74ec-f559-4c50-be37-3c8de05bb2ce"/>
               <display value="Stephen Weinhage"/>
            </subject>
            <effectiveDateTime value="2025-06-04T06:55:50Z"/>
            <performer>
               <display value="The Central European Lab"/>
            </performer>
            <valueQuantity>
               <value value="36.1"/>
               <unit value="U/L"/>
               <system value="http://unitsofmeasure.org"/>
               <code value="U/L"/>
            </valueQuantity>
            <referenceRange>
               <low>
                  <value value="7"/>
                  <system value="http://unitsofmeasure.org"/>
                  <code value="U/L"/>
               </low>
            </referenceRange>
            <referenceRange>
               <high>
                  <value value="60"/>
                  <system value="http://unitsofmeasure.org"/>
                  <code value="U/L"/>
               </high>
            </referenceRange>
         </Observation>
      </resource>
   </entry>
   <entry>
      <fullUrl value="urn:uuid:90820b5e-6a98-4398-b95b-92704007f109"/>
      <resource>
         <Observation>
            <id value="90820b5e-6a98-4398-b95b-92704007f109"/>
            <meta>
               <profile value="http://hl7.eu/fhir/laboratory/StructureDefinition/Observation-resultslab-eu-lab"/>
            </meta>
            <text>
               <status value="generated"/>
               <div xmlns="http://www.w3.org/1999/xhtml">
                  <table class="hl7__eu__lab__report">
                     <tr>
                        <th>Test</th>
                        <th>04-Jun-2025</th>
                        <th>Reference Range</th>
                        <th>Unit</th>
                     </tr>
                     <tr>
                        <td>Aspartate aminotransferase [Enzymatic activity/volume] in Serum or Plasma</td>
                        <td>28.3</td>
                        <td>10 - 49</td>
                        <td/>
                        <td>U/L</td>
                     </tr>
                  </table>
               </div>
            </text>
            <status value="final"/>
            <category>
               <coding>
                  <system value="http://terminology.hl7.org/CodeSystem/observation-category"/>
                  <code value="laboratory"/>
               </coding>
            </category>
            <code>
               <coding>
                  <system value="http://loinc.org"/>
                  <code value="1920-8"/>
                  <display value="Aspartate aminotransferase [Enzymatic activity/volume] in Serum or Plasma"/>
               </coding>
               <text value="Aspartate aminotransferase [Enzymatic activity/volume] in Serum or Plasma"/>
            </code>
            <subject>
               <reference value="urn:uuid:c32f74ec-f559-4c50-be37-3c8de05bb2ce"/>
               <display value="Stephen Weinhage"/>
            </subject>
            <effectiveDateTime value="2025-06-04T06:55:50Z"/>
            <performer>
               <display value="The Central European Lab"/>
            </performer>
            <valueQuantity>
               <value value="28.3"/>
               <unit value="U/L"/>
               <system value="http://unitsofmeasure.org"/>
               <code value="U/L"/>
            </valueQuantity>
            <referenceRange>
               <low>
                  <value value="10"/>
                  <system value="http://unitsofmeasure.org"/>
                  <code value="U/L"/>
               </low>
            </referenceRange>
            <referenceRange>
               <high>
                  <value value="49"/>
                  <system value="http://unitsofmeasure.org"/>
                  <code value="U/L"/>
               </high>
            </referenceRange>
         </Observation>
      </resource>
   </entry>
   <entry>
      <fullUrl value="urn:uuid:0a0bf042-b1f8-47a1-bb16-e9a36f1f0035"/>
      <resource>
         <Observation>
            <id value="0a0bf042-b1f8-47a1-bb16-e9a36f1f0035"/>
            <meta>
               <profile value="http://hl7.eu/fhir/laboratory/StructureDefinition/Observation-resultslab-eu-lab"/>
            </meta>
            <text>
               <status value="generated"/>
               <div xmlns="http://www.w3.org/1999/xhtml">
                  <table class="hl7__eu__lab__report">
                     <tr>
                        <th>Test</th>
                        <th>04-Jun-2025</th>
                        <th>Reference Range</th>
                        <th>Unit</th>
                     </tr>
                     <tr>
                        <td>Cholesterol [Mass/volume] in Serum or Plasma</td>
                        <td>177.6</td>
                        <td>125 - 200</td>
                        <td/>
                        <td>mg/dL</td>
                     </tr>
                  </table>
               </div>
            </text>
            <status value="final"/>
            <category>
               <coding>
                  <system value="http://terminology.hl7.org/CodeSystem/observation-category"/>
                  <code value="laboratory"/>
               </coding>
            </category>
            <code>
               <coding>
                  <system value="http://loinc.org"/>
                  <code value="2093-3"/>
                  <display value="Cholesterol [Mass/volume] in Serum or Plasma"/>
               </coding>
               <text value="Cholesterol [Mass/volume] in Serum or Plasma"/>
            </code>
            <subject>
               <reference value="urn:uuid:c32f74ec-f559-4c50-be37-3c8de05bb2ce"/>
               <display value="Stephen Weinhage"/>
            </subject>
            <effectiveDateTime value="2025-06-04T06:55:50Z"/>
            <performer>
               <display value="The Central European Lab"/>
            </performer>
            <valueQuantity>
               <value value="177.6"/>
               <unit value="mg/dL"/>
               <system value="http://unitsofmeasure.org"/>
               <code value="mg/dL"/>
            </valueQuantity>
            <referenceRange>
               <low>
                  <value value="125"/>
                  <system value="http://unitsofmeasure.org"/>
                  <code value="mg/dL"/>
               </low>
            </referenceRange>
            <referenceRange>
               <high>
                  <value value="200"/>
                  <system value="http://unitsofmeasure.org"/>
                  <code value="mg/dL"/>
               </high>
            </referenceRange>
         </Observation>
      </resource>
   </entry>
   <entry>
      <fullUrl value="urn:uuid:07784e2d-f30e-4b00-9a29-4d2471ec9c9b"/>
      <resource>
         <Observation>
            <id value="07784e2d-f30e-4b00-9a29-4d2471ec9c9b"/>
            <meta>
               <profile value="http://hl7.eu/fhir/laboratory/StructureDefinition/Observation-resultslab-eu-lab"/>
            </meta>
            <text>
               <status value="generated"/>
               <div xmlns="http://www.w3.org/1999/xhtml">
                  <table class="hl7__eu__lab__report">
                     <tr>
                        <th>Test</th>
                        <th>04-Jun-2025</th>
                        <th>Reference Range</th>
                        <th>Unit</th>
                     </tr>
                     <tr>
                        <td>Triglyceride [Mass/volume] in Serum or Plasma</td>
                        <td>175.5</td>
                        <td>40 - 150</td>
                        <td>H</td>
                        <td>mg/dL</td>
                     </tr>
                  </table>
               </div>
            </text>
            <status value="final"/>
            <category>
               <coding>
                  <system value="http://terminology.hl7.org/CodeSystem/observation-category"/>
                  <code value="laboratory"/>
               </coding>
            </category>
            <code>
               <coding>
                  <system value="http://loinc.org"/>
                  <code value="2571-8"/>
                  <display value="Triglyceride [Mass/volume] in Serum or Plasma"/>
               </coding>
               <text value="Triglyceride [Mass/volume] in Serum or Plasma"/>
            </code>
            <subject>
               <reference value="urn:uuid:c32f74ec-f559-4c50-be37-3c8de05bb2ce"/>
               <display value="Stephen Weinhage"/>
            </subject>
            <effectiveDateTime value="2025-06-04T06:55:50Z"/>
            <performer>
               <display value="The Central European Lab"/>
            </performer>
            <valueQuantity>
               <value value="175.5"/>
               <unit value="mg/dL"/>
               <system value="http://unitsofmeasure.org"/>
               <code value="mg/dL"/>
            </valueQuantity>
            <interpretation>
               <coding>
                  <system value="http://terminology.hl7.org/CodeSystem/v3-ObservationInterpretation"/>
                  <code value="H"/>
                  <display value="High"/>
               </coding>
            </interpretation>
            <referenceRange>
               <low>
                  <value value="40"/>
                  <system value="http://unitsofmeasure.org"/>
                  <code value="mg/dL"/>
               </low>
            </referenceRange>
            <referenceRange>
               <high>
                  <value value="150"/>
                  <system value="http://unitsofmeasure.org"/>
                  <code value="mg/dL"/>
               </high>
            </referenceRange>
         </Observation>
      </resource>
   </entry>
   <entry>
      <fullUrl value="urn:uuid:9879d1cf-50ba-4540-b721-b856f718e0b7"/>
      <resource>
         <Observation>
            <id value="9879d1cf-50ba-4540-b721-b856f718e0b7"/>
            <meta>
               <profile value="http://hl7.eu/fhir/laboratory/StructureDefinition/Observation-resultslab-eu-lab"/>
            </meta>
            <text>
               <status value="generated"/>
               <div xmlns="http://www.w3.org/1999/xhtml">
                  <table class="hl7__eu__lab__report">
                     <tr>
                        <th>Test</th>
                        <th>04-Jun-2025</th>
                        <th>Reference Range</th>
                        <th>Unit</th>
                     </tr>
                     <tr>
                        <td>Cholesterol in LDL [Mass/volume] in Serum or Plasma by Direct assay</td>
                        <td>93.9</td>
                        <td>0 - 190</td>
                        <td/>
                        <td>mg/dL</td>
                     </tr>
                  </table>
               </div>
            </text>
            <status value="final"/>
            <category>
               <coding>
                  <system value="http://terminology.hl7.org/CodeSystem/observation-category"/>
                  <code value="laboratory"/>
               </coding>
            </category>
            <code>
               <coding>
                  <system value="http://loinc.org"/>
                  <code value="18262-6"/>
                  <display value="Cholesterol in LDL [Mass/volume] in Serum or Plasma by Direct assay"/>
               </coding>
               <text value="Cholesterol in LDL [Mass/volume] in Serum or Plasma by Direct assay"/>
            </code>
            <subject>
               <reference value="urn:uuid:c32f74ec-f559-4c50-be37-3c8de05bb2ce"/>
               <display value="Stephen Weinhage"/>
            </subject>
            <effectiveDateTime value="2025-06-04T06:55:50Z"/>
            <performer>
               <display value="The Central European Lab"/>
            </performer>
            <valueQuantity>
               <value value="93.9"/>
               <unit value="mg/dL"/>
               <system value="http://unitsofmeasure.org"/>
               <code value="mg/dL"/>
            </valueQuantity>
            <referenceRange>
               <low>
                  <value value="0"/>
                  <system value="http://unitsofmeasure.org"/>
                  <code value="mg/dL"/>
               </low>
            </referenceRange>
            <referenceRange>
               <high>
                  <value value="190"/>
                  <system value="http://unitsofmeasure.org"/>
                  <code value="mg/dL"/>
               </high>
            </referenceRange>
         </Observation>
      </resource>
   </entry>
   <entry>
      <fullUrl value="urn:uuid:01da51d4-4dbc-4b68-bfca-0178f3a1e6cb"/>
      <resource>
         <Observation>
            <id value="01da51d4-4dbc-4b68-bfca-0178f3a1e6cb"/>
            <meta>
               <profile value="http://hl7.eu/fhir/laboratory/StructureDefinition/Observation-resultslab-eu-lab"/>
            </meta>
            <text>
               <status value="generated"/>
               <div xmlns="http://www.w3.org/1999/xhtml">
                  <table class="hl7__eu__lab__report">
                     <tr>
                        <th>Test</th>
                        <th>04-Jun-2025</th>
                        <th>Reference Range</th>
                        <th>Unit</th>
                     </tr>
                     <tr>
                        <td>Cholesterol in HDL [Mass/volume] in Serum or Plasma</td>
                        <td>42.6</td>
                        <td>40 - 60</td>
                        <td/>
                        <td>mg/dL</td>
                     </tr>
                  </table>
               </div>
            </text>
            <status value="final"/>
            <category>
               <coding>
                  <system value="http://terminology.hl7.org/CodeSystem/observation-category"/>
                  <code value="laboratory"/>
               </coding>
            </category>
            <code>
               <coding>
                  <system value="http://loinc.org"/>
                  <code value="2085-9"/>
                  <display value="Cholesterol in HDL [Mass/volume] in Serum or Plasma"/>
               </coding>
               <text value="Cholesterol in HDL [Mass/volume] in Serum or Plasma"/>
            </code>
            <subject>
               <reference value="urn:uuid:c32f74ec-f559-4c50-be37-3c8de05bb2ce"/>
               <display value="Stephen Weinhage"/>
            </subject>
            <effectiveDateTime value="2025-06-04T06:55:50Z"/>
            <performer>
               <display value="The Central European Lab"/>
            </performer>
            <valueQuantity>
               <value value="42.6"/>
               <unit value="mg/dL"/>
               <system value="http://unitsofmeasure.org"/>
               <code value="mg/dL"/>
            </valueQuantity>
            <referenceRange>
               <low>
                  <value value="40"/>
                  <system value="http://unitsofmeasure.org"/>
                  <code value="mg/dL"/>
               </low>
            </referenceRange>
            <referenceRange>
               <high>
                  <value value="60"/>
                  <system value="http://unitsofmeasure.org"/>
                  <code value="mg/dL"/>
               </high>
            </referenceRange>
         </Observation>
      </resource>
   </entry>
   <entry>
      <fullUrl value="urn:uuid:26481638-a01d-4ab1-a4e2-c7cacfb3bab3"/>
      <resource>
         <DeviceUseStatement>
            <id value="26481638-a01d-4ab1-a4e2-c7cacfb3bab3"/>
            <meta>
               <profile value="http://hl7.eu/fhir/eps/StructureDefinition/deviceUseStatement-eu-eps"/>
            </meta>
            <text>
               <status value="generated"/>
               <div xmlns="http://www.w3.org/1999/xhtml">
                  <table class="hl7__ips">
                     <tr>
                        <td>Blood glucose meter (physical object)</td>
                        <td>
                           <span class="nb">07-Mar-1977</span>
                        </td>
                     </tr>
                  </table>
               </div>
            </text>
            <status value="active"/>
            <subject>
               <reference value="urn:uuid:c32f74ec-f559-4c50-be37-3c8de05bb2ce"/>
               <display value="Stephen Weinhage"/>
            </subject>
            <timingPeriod>
               <start value="1977-03-07"/>
            </timingPeriod>
            <device>
               <reference value="urn:uuid:85d08f7f-91f7-4846-97d3-12da521377c2"/>
               <display value="Blood glucose meter (physical object)"/>
            </device>
         </DeviceUseStatement>
      </resource>
   </entry>
   <entry>
      <fullUrl value="urn:uuid:85d08f7f-91f7-4846-97d3-12da521377c2"/>
      <resource>
         <Device>
            <id value="85d08f7f-91f7-4846-97d3-12da521377c2"/>
            <meta>
               <profile value="http://hl7.eu/fhir/eps/StructureDefinition/device-eu-eps"/>
            </meta>
            <udiCarrier id="(01)40498687027769(11)770214(17)020301(10)43371(21)7459196"/>
            <status value="active"/>
            <type>
               <coding>
                  <system value="http://snomed.info/sct"/>
                  <code value="337414009"/>
                  <display value="Blood glucose meter (physical object)"/>
               </coding>
            </type>
            <patient>
               <reference value="urn:uuid:c32f74ec-f559-4c50-be37-3c8de05bb2ce"/>
               <display value="Stephen Weinhage"/>
            </patient>
         </Device>
      </resource>
   </entry>
   <entry>
      <fullUrl value="urn:uuid:8284182f-0821-4e84-a6bf-ad11a2a84b54"/>
      <resource>
         <DeviceUseStatement>
            <id value="8284182f-0821-4e84-a6bf-ad11a2a84b54"/>
            <meta>
               <profile value="http://hl7.eu/fhir/eps/StructureDefinition/deviceUseStatement-eu-eps"/>
            </meta>
            <text>
               <status value="generated"/>
               <div xmlns="http://www.w3.org/1999/xhtml">
                  <table class="hl7__ips">
                     <tr>
                        <td>Home nebulizer (physical object)</td>
                        <td>
                           <span class="nb">28-Aug-1972</span>
                        </td>
                     </tr>
                  </table>
               </div>
            </text>
            <status value="active"/>
            <subject>
               <reference value="urn:uuid:c32f74ec-f559-4c50-be37-3c8de05bb2ce"/>
               <display value="Stephen Weinhage"/>
            </subject>
            <timingPeriod>
               <start value="1972-08-28"/>
            </timingPeriod>
            <device>
               <reference value="urn:uuid:ea06cb8e-8c1e-424e-83b3-687a9897f648"/>
               <display value="Home nebulizer (physical object)"/>
            </device>
         </DeviceUseStatement>
      </resource>
   </entry>
   <entry>
      <fullUrl value="urn:uuid:ea06cb8e-8c1e-424e-83b3-687a9897f648"/>
      <resource>
         <Device>
            <id value="ea06cb8e-8c1e-424e-83b3-687a9897f648"/>
            <meta>
               <profile value="http://hl7.eu/fhir/eps/StructureDefinition/device-eu-eps"/>
            </meta>
            <udiCarrier id="(01)15923306300454(11)720807(17)970822(10)331629086855066152(21)5621"/>
            <status value="active"/>
            <type>
               <coding>
                  <system value="http://snomed.info/sct"/>
                  <code value="170615005"/>
                  <display value="Home nebulizer (physical object)"/>
               </coding>
            </type>
            <patient>
               <reference value="urn:uuid:c32f74ec-f559-4c50-be37-3c8de05bb2ce"/>
               <display value="Stephen Weinhage"/>
            </patient>
         </Device>
      </resource>
   </entry>
   <entry>
      <fullUrl value="urn:uuid:52f78ffc-116b-4474-953f-3e85f0e96c8c"/>
      <resource>
         <Device>
            <id value="52f78ffc-116b-4474-953f-3e85f0e96c8c"/>
            <text>
               <status value="generated"/>
               <div xmlns="http://www.w3.org/1999/xhtml">SYNDERAI Synthetic Generator v5.0</div>
            </text>
            <status value="active&#34;"/>
            <distinctIdentifier value="synderai-generator-50"/>
            <manufacturer value="SYNDERAI Project"/>
            <deviceName>
               <name value="SYNDERAI Synthetic Generator"/>
               <type value="manufacturer-name"/>
            </deviceName>
            <version>
               <value value="5.0"/>
            </version>
         </Device>
      </resource>
   </entry>
   <entry>
      <fullUrl value="urn:uuid:b2d37d53-e92c-4a3d-b3ca-9e3f290d10b5"/>
      <resource>
         <Provenance>
            <id value="b2d37d53-e92c-4a3d-b3ca-9e3f290d10b5"/>
            <text>
               <status value="generated"/>
               <div xmlns="http://www.w3.org/1999/xhtml">Provenance for SYNDERAI Synthetic Example Data Resource</div>
            </text>
            <target>
               <reference value="Patient/c32f74ec-f559-4c50-be37-3c8de05bb2ce"/>
            </target>
            <target>
               <reference value="Bundle/abad48b1-2e29-4e19-8fb8-33d9862fe9f9"/>
            </target>
            <target>
               <reference value="Composition/923e9124-80f2-4ece-bf51-dea9d36b4d54"/>
            </target>
            <target>
               <reference value="PractitionerRole/097bfa50-f478-479d-817d-d0ed39591b15"/>
            </target>
            <target>
               <reference value="Organization/414443e5-df5a-4636-ba4f-d48f5132c439"/>
            </target>
            <target>
               <reference value="Practitioner/fe472899-b1fd-4c66-ba06-ad2971712b5a"/>
            </target>
            <recorded value="2025-06-04T06:55:50Z"/>
            <policy value="https://synderai.net/synderai-synthetic-data-policy"/>
            <reason>
               <text value="Interoperability Testing and Training (non-clinical use)"/>
            </reason>
            <activity>
               <text value="Synthetic Example Data Generation"/>
            </activity>
            <agent>
               <type>
                  <text value="author"/>
               </type>
               <who>
                  <reference value="Device/52f78ffc-116b-4474-953f-3e85f0e96c8c"/>
               </who>
            </agent>
         </Provenance>
      </resource>
   </entry>
</Bundle>