{
  "resourceType": "Bundle",
  "id": "84f9799d-20cc-440a-b4e2-93453dad330e",
  "meta": {
    "profile": [
      "http://hl7.eu/fhir/eps/StructureDefinition/bundle-eu-eps"
    ]
  },
  "identifier": {
    "assigner": {
      "display": "HL7 Europe"
    },
    "system": "urn:oid:2.16.840.1.113883.2.51.999",
    "value": "79d876e4-cce9-4de4-9d3c-fbaf05a7eb57"
  },
  "entry": [
    {
      "fullUrl": "urn:uuid:410d5e0a-91eb-47b6-a023-9845ba6f7e99",
      "resource": {
        "resourceType": "Composition",
        "id": "410d5e0a-91eb-47b6-a023-9845ba6f7e99",
        "meta": {
          "security": [
            {
              "system": "http://terminology.hl7.org/CodeSystem/v3-ActReason",
              "code": "HTEST"
            },
            {
              "system": "http://terminology.hl7.org/CodeSystem/v3-ActReason",
              "code": "TRAIN"
            }
          ],
          "tag": [
            {
              "system": "https://synderai.net/fhir/CodeSystem/tags",
              "code": "synthetic",
              "display": "SYNDERAI Synthetic data"
            }
          ],
          "profile": [
            "http://hl7.eu/fhir/eps/StructureDefinition/composition-eu-eps"
          ]
        },
        "identifier": {
          "assigner": {
            "display": "HL7 Europe"
          },
          "system": "urn:oid:2.16.840.1.113883.2.51.999",
          "value": "1952cff6-5b16-4304-a416-dcd5a0ea37b6"
        },
        "type": {
          "coding": [
            {
              "system": "http://loinc.org",
              "code": "60591-5",
              "display": "Patient summary Document"
            }
          ],
          "text": "Patient summary Document"
        },
        "author": [
          {
            "reference": "urn:uuid:f68be6d4-29ec-4d9c-b440-fdb9421797c4"
          }
        ],
        "section": [
          {
            "text": {
              "status": "generated",
              "div": "<div xmlns=\"http://www.w3.org/1999/xhtml\"><table class=\"hl7__ips\"><tr><th>Condition</th><th>Onset Date</th><th>Status</th></tr><tr><td>Hyperlipidemia</td><td><span class=\"nb\">12-Apr-2024</span></td><td>active</td></tr><tr><td>Prediabetes</td><td><span class=\"nb\">30-Mar-2007</span></td><td>active</td></tr><tr><td>Chronic sinusitis</td><td><span class=\"nb\">28-Oct-2005</span></td><td>active</td></tr></table></div>"
            },
            "entry": [
              {
                "reference": "urn:uuid:bbf35039-4363-478f-a035-8a678ac847aa"
              },
              {
                "reference": "urn:uuid:8622558d-c759-4427-a8f9-3a76ba1f6313"
              },
              {
                "reference": "urn:uuid:e77c6b01-7dc5-4e51-b3e1-1fe7bacba53d"
              }
            ],
            "code": {
              "coding": [
                {
                  "system": "http://loinc.org",
                  "code": "11450-4",
                  "display": "Problem list - Reported"
                }
              ]
            },
            "title": "Problem list"
          },
          {
            "text": {
              "status": "generated",
              "div": "<div xmlns=\"http://www.w3.org/1999/xhtml\"><table class=\"hl7__ips\"><tr><th>Medication</th><th>Since</th><th>Form</th><th>Dosage</th><th>Reason</th></tr><tr><td>Simvastatin 10 mg oral tablet</td><td><span class=\"nb\">2025-05-03</span></td><td>-</td><td>1 tablet (10 mg) by mouth once daily</td><td>Hyperlipidemia</td></tr><tr><td>72 HR Fentanyl 0.025 MG/HR Transdermal System</td><td><span class=\"nb\">2025-04-18</span></td><td>-</td><td>Apply 1 patch (0.025 mg/hr) every 72 hours</td><td>-</td></tr><tr><td>Acetaminophen 300 mg and codeine phosphate 15 mg oral tablet</td><td><span class=\"nb\">2025-04-18</span></td><td>-</td><td>1 tablet (300 mg/15 mg) every 4 to 6 hours as needed for pain</td><td>-</td></tr><tr><td>Abuse-Deterrent 12 HR Oxycodone Hydrochloride 10 MG Extended Release Oral Tablet [Oxycontin]</td><td><span class=\"nb\">2025-04-18</span></td><td>-</td><td>1 tablet (10 mg) every 12 hours</td><td>-</td></tr><tr><td>12 HR Hydrocodone Bitartrate 10 MG Extended Release Oral Capsule</td><td><span class=\"nb\">2025-04-18</span></td><td>-</td><td>1 capsule (10 mg) every 12 hours</td><td>-</td></tr></table></div>"
            },
            "entry": [
              {
                "reference": "urn:uuid:aefcb6aa-4d63-4d1b-80b5-1c0401d4e512"
              },
              {
                "reference": "urn:uuid:4b38325f-d42e-4f50-b9a9-fedf13de73e8"
              },
              {
                "reference": "urn:uuid:373e853d-38f6-4ef8-9e28-ca660953b7b4"
              },
              {
                "reference": "urn:uuid:b1c06094-17f6-4318-8179-e312af6c0cfe"
              },
              {
                "reference": "urn:uuid:38509e68-a33f-4cf6-b203-ac452df537d8"
              }
            ],
            "code": {
              "coding": [
                {
                  "system": "http://loinc.org",
                  "code": "10160-0",
                  "display": "History of Medication use Narrative"
                }
              ]
            },
            "title": "Medication list"
          },
          {
            "text": {
              "status": "generated",
              "div": "<div xmlns=\"http://www.w3.org/1999/xhtml\"><table class=\"hl7__ips\"><tr><th>Vaccine</th><th>Date</th></tr><tr><td>Influenza virus antigen only vaccine product</td><td><span class=\"nb\">18-Apr-2025</span></td></tr><tr><td>Clostridium tetani toxoid antigen adsorbed only vaccine product</td><td><span class=\"nb\">12-Apr-2024</span></td></tr><tr><td>Live attenuated Human alphaherpesvirus 3 only vaccine product</td><td><span class=\"nb\">12-Apr-2024</span></td></tr></table></div>"
            },
            "entry": [
              {
                "reference": "urn:uuid:71fe56eb-6048-4609-8f4a-764206fbbc0d"
              },
              {
                "reference": "urn:uuid:f7407648-58f2-4aca-82da-1d99da97301e"
              },
              {
                "reference": "urn:uuid:ced1ff7b-354e-49c0-9ad3-9ba2fe390c64"
              }
            ],
            "code": {
              "coding": [
                {
                  "system": "http://loinc.org",
                  "code": "11369-6",
                  "display": "History of Immunization note"
                }
              ]
            },
            "title": "Immunizations list"
          },
          {
            "text": {
              "status": "generated",
              "div": "<div xmlns=\"http://www.w3.org/1999/xhtml\"><table class=\"hl7__ips\"><tr><th>Allergy/Intolerance</th><th>Onset Date</th><th>Status</th><th>Type</th><th>Reaction</th></tr><tr><td>Live attenuated Varicella-zoster vaccine</td><td>?</td><td>active</td><td>?</td><td></td></tr></table></div>"
            },
            "entry": [
              {
                "reference": "urn:uuid:13b3bdbc-9443-4068-bb39-c62d6d3b5c2a"
              }
            ],
            "code": {
              "coding": [
                {
                  "system": "http://loinc.org",
                  "code": "48765-2",
                  "display": "Allergies and adverse reactions Document"
                }
              ]
            },
            "title": "Allergies and Intolerances"
          },
          {
            "text": {
              "status": "generated",
              "div": "<div xmlns=\"http://www.w3.org/1999/xhtml\"><table class=\"hl7__ips\"><tr><th>Active Planned Care / Goals</th><th>Start Date</th><th>Reason</th></tr><tr><td>Hyperlipidemia clinical management plan</td><td><span class=\"nb\">03-May-2024</span></td><td>Hyperlipidemia</td></tr><tr><td><ul><li>Achieve LDL cholesterol less than 100 mg/dL</li><li>Achieve total cholesterol less than 200 mg/dL</li><li>Achieve HDL cholesterol greater than 50 mg/dL</li><li>Achieve triglycerides less than 150 mg/dL</li></ul></td><td></td><td></td></tr><tr><td>Therapy</td><td><span class=\"nb\">18-Mar-2014</span></td><td>-</td></tr><tr><td>Diabetes self management plan</td><td><span class=\"nb\">30-Mar-2007</span></td><td>Prediabetes</td></tr><tr><td><ul><li>Patient will implement and maintain a diabetes self-management plan to reduce risk of progression to diabetes.</li></ul></td><td></td><td></td></tr></table></div>"
            },
            "entry": [
              {
                "reference": "urn:uuid:26e1a99a-8e70-4397-a160-d9ca62d39a37"
              },
              {
                "reference": "urn:uuid:ebae0ff9-77d9-400c-9513-9161a4c02ed7"
              },
              {
                "reference": "urn:uuid:e2f8de44-0595-4e50-8937-4a1ff124e4ba"
              }
            ],
            "code": {
              "coding": [
                {
                  "system": "http://loinc.org",
                  "code": "18776-5",
                  "display": "Plan of care note"
                }
              ]
            },
            "title": "Care Plan"
          },
          {
            "text": {
              "status": "generated",
              "div": "<div xmlns=\"http://www.w3.org/1999/xhtml\"><table class=\"hl7__ips\"><tr><th>Vital Signs</th><th>2025-04-18</th><th>2024-04-12</th></tr><tr><td>Body Height</td><td>151.1 cm</td><td>151.1 cm</td></tr><tr><td>Pain severity - 0-10 verbal numeric rating [Score] - Reported</td><td>1 {score}</td><td>1 {score}</td></tr><tr><td>Body Weight</td><td>63.6 kg</td><td>63.6 kg</td></tr><tr><td>Body mass index (BMI) [Ratio]</td><td>27.9 kg/m2</td><td>27.9 kg/m2</td></tr><tr><td>Diastolic Blood Pressure</td><td>83 mm[Hg]</td><td>82 mm[Hg]</td></tr><tr><td>Systolic Blood Pressure</td><td>111 mm[Hg]</td><td>106 mm[Hg]</td></tr><tr><td>Heart rate</td><td>100 /min</td><td>95 /min</td></tr><tr><td>Respiratory rate</td><td>16 /min</td><td>15 /min</td></tr></table></div>"
            },
            "entry": [
              {
                "reference": "urn:uuid:6040bde5-184b-49b3-b3a4-1fb89684d96b"
              },
              {
                "reference": "urn:uuid:a41f2d75-e5fa-40a5-b25d-089b6a4ec043"
              },
              {
                "reference": "urn:uuid:18b93043-0608-4b2b-91d4-b03db3cd7970"
              },
              {
                "reference": "urn:uuid:04e1c4b1-e604-46d0-84ca-46ef9a27c00c"
              },
              {
                "reference": "urn:uuid:4c949d8d-8acd-4515-9dbe-9c9851b2c7f7"
              },
              {
                "reference": "urn:uuid:7cd569d4-e3fa-4a24-9366-e1712eb34f37"
              },
              {
                "reference": "urn:uuid:b2015fa5-0363-4ad5-98d4-8701fcd0df37"
              },
              {
                "reference": "urn:uuid:1fbec35d-29cb-4d22-a2d7-3d726aa387f2"
              },
              {
                "reference": "urn:uuid:a749f1ff-00e8-43f3-9b37-95c729f0f473"
              },
              {
                "reference": "urn:uuid:2ced5692-28c0-4f37-927f-33684ee47558"
              },
              {
                "reference": "urn:uuid:de6ce78f-29b5-4fe5-9aca-e784ed9128ab"
              },
              {
                "reference": "urn:uuid:c270b345-67db-4b55-88bf-a4d65596ea33"
              },
              {
                "reference": "urn:uuid:3149a9a0-0c80-4d7d-ad03-f6aa81de1642"
              },
              {
                "reference": "urn:uuid:644662bf-b65b-4554-be9d-a7fe14a54023"
              },
              {
                "reference": "urn:uuid:b357a67c-496b-461e-baa2-abfb4e7bf9bc"
              },
              {
                "reference": "urn:uuid:f0ffcb3f-0d78-4c00-967d-eca3d02355cb"
              }
            ],
            "code": {
              "coding": [
                {
                  "system": "http://loinc.org",
                  "code": "8716-3",
                  "display": "Vital signs note"
                }
              ]
            },
            "title": "Vital Signs"
          },
          {
            "text": {
              "status": "generated",
              "div": "<div xmlns=\"http://www.w3.org/1999/xhtml\"><table class=\"hl7__ips\"><table class=\"hl7__ips\"><thead><tr><th>Recent Lab Observations</th><th>03-MAY-2025</th><th>Reference&#xA0;Range</th><th>Unit</th></tr></thead><tbody><tr><td>Glucose [Mass/volume] in Blood</td><td>73.9</td><td>70 - 140</td><td>mg/dL</td></tr><tr><td>Urea nitrogen [Mass/volume] in Blood</td><td>15.3</td><td>7 - 25</td><td>mg/dL</td></tr><tr><td>Creatinine [Mass/volume] in Blood</td><td><strong>3.4 H</strong></td><td>0.6 - 1.3</td><td>mg/dL</td></tr><tr><td>Calcium [Mass/volume] in Blood</td><td>9.7</td><td>8.5 - 10.5</td><td>mg/dL</td></tr><tr><td>Sodium [Moles/volume] in Blood</td><td>137.4</td><td>135 - 145</td><td>mmol/L</td></tr><tr><td>Potassium [Moles/volume] in Blood</td><td>4.3</td><td>3.5 - 5.1</td><td>mmol/L</td></tr><tr><td>Chloride [Moles/volume] in Blood</td><td>105.7</td><td>98 - 108</td><td>mmol/L</td></tr><tr><td>Carbon dioxide, total [Moles/volume] in Blood</td><td>24.3</td><td>22 - 29</td><td>mmol/L</td></tr><tr><td>Protein [Mass/volume] in Serum or Plasma</td><td>7.8</td><td>6.3 - 8.3</td><td>g/dL</td></tr><tr><td>Albumin [Mass/volume] in Serum or Plasma</td><td>4.8</td><td>3.5 - 5.5</td><td>g/dL</td></tr><tr><td>Globulin [Mass/volume] in Serum by calculation</td><td>3.2</td><td>2 - 3.9</td><td>g/L</td></tr><tr><td>Bilirubin.total [Mass/volume] in Serum or Plasma</td><td><strong>0.1 L</strong></td><td>0.3 - 1.2</td><td>mg/dL</td></tr><tr><td>Alkaline phosphatase [Enzymatic activity/volume] in Serum or Plasma</td><td><strong>23.2 L</strong></td><td>32 - 104</td><td>U/L</td></tr><tr><td>Alanine aminotransferase [Enzymatic activity/volume] in Serum or Plasma</td><td>45.4</td><td>7 - 55</td><td>U/L</td></tr><tr><td>Aspartate aminotransferase [Enzymatic activity/volume] in Serum or Plasma</td><td>33.6</td><td>10 - 40</td><td>U/L</td></tr><tr><td>Cholesterol [Mass/volume] in Serum or Plasma</td><td><strong>208.4 H</strong></td><td>125 - 200</td><td>mg/dL</td></tr><tr><td>Triglyceride [Mass/volume] in Serum or Plasma</td><td>121.5</td><td>35 - 150</td><td>mg/dL</td></tr><tr><td>Cholesterol in LDL [Mass/volume] in Serum or Plasma by Direct assay</td><td><strong>149.5 H</strong></td><td>0 - 130</td><td>mg/dL</td></tr><tr><td>Cholesterol in HDL [Mass/volume] in Serum or Plasma</td><td>50.0</td><td>40 - 60</td><td>mg/dL</td></tr></tbody></table></table></div>"
            },
            "entry": [
              {
                "reference": "urn:uuid:52d071f0-0b33-4ef2-8bab-28d8673b8d46"
              },
              {
                "reference": "urn:uuid:3ab60b58-916e-4aeb-9da8-354aa4ccaef7"
              },
              {
                "reference": "urn:uuid:1bfc1a41-ccb6-4395-90cd-8d106e816f53"
              },
              {
                "reference": "urn:uuid:e4123f08-8af4-49de-b1ea-b4cc4ee2891a"
              },
              {
                "reference": "urn:uuid:23ef9bec-f715-4049-a435-8d1cff0834f8"
              },
              {
                "reference": "urn:uuid:0beb0630-a8a4-4e6d-ba24-c3f59bd1634a"
              },
              {
                "reference": "urn:uuid:dc6b3397-fbea-4dbc-a8bf-c7fc4e8293a3"
              },
              {
                "reference": "urn:uuid:440b6e1d-e8d4-46cd-90b6-ec3e08bf5f0c"
              },
              {
                "reference": "urn:uuid:35354f88-9365-4cc3-b293-698f0ac5355c"
              },
              {
                "reference": "urn:uuid:574e5e3d-c070-40b3-b2f7-782723fdf192"
              },
              {
                "reference": "urn:uuid:d6609bcc-def6-45be-84ff-54096656e71a"
              },
              {
                "reference": "urn:uuid:0b63cdb0-b79b-4fc9-95a7-b5cfd68d1f57"
              },
              {
                "reference": "urn:uuid:13690a77-f146-4f67-95dd-70e204381383"
              },
              {
                "reference": "urn:uuid:be0f4eb3-62f3-4326-9fd6-86678e6dbf50"
              },
              {
                "reference": "urn:uuid:dd4c128e-f297-4b52-bd46-a33576ada40b"
              },
              {
                "reference": "urn:uuid:65cc0d88-9cc2-4ce1-bb61-91815588349e"
              },
              {
                "reference": "urn:uuid:8bb791c7-8c27-48fc-b499-bdf96eb41543"
              },
              {
                "reference": "urn:uuid:4ef6920a-bc97-4f7a-b269-21e8009c8bc4"
              },
              {
                "reference": "urn:uuid:18763b1e-7849-42bd-af54-da82796ed071"
              }
            ],
            "code": {
              "coding": [
                {
                  "system": "http://loinc.org",
                  "code": "30954-2",
                  "display": "Relevant diagnostic tests/laboratory data note"
                }
              ]
            },
            "title": "Relevant diagnostic tests/laboratory data"
          },
          {
            "text": {
              "status": "generated",
              "div": "<div xmlns=\"http://www.w3.org/1999/xhtml\"><table class=\"hl7__ips\"><tr><th>Device</th><th>Date (since)</th></tr><tr><td>Blood glucose meter (physical object)</td><td><span class=\"nb\">30-Mar-2007</span></td></tr><tr><td>Home nebulizer (physical object)</td><td><span class=\"nb\">28-Oct-2005</span></td></tr></table></div>"
            },
            "entry": [
              {
                "reference": "urn:uuid:071594de-642a-40b2-8751-8041f510eeff"
              },
              {
                "reference": "urn:uuid:f22a274e-ef81-4757-b3a3-f1d21b4e8948"
              }
            ],
            "code": {
              "coding": [
                {
                  "system": "http://loinc.org",
                  "code": "46264-8",
                  "display": "History of medical device use"
                }
              ]
            },
            "title": "Device Use"
          }
        ],
        "title": "European Patient Summary",
        "status": "final",
        "subject": {
          "reference": "urn:uuid:4b9df938-bbd8-48c1-a7cd-660c114349b9",
          "display": "Bethany Begum"
        },
        "custodian": {
          "reference": "urn:uuid:700cef5d-d08c-4f16-991f-1d916c903b28"
        },
        "date": "2025-05-03",
        "confidentiality": "N"
      }
    },
    {
      "fullUrl": "urn:uuid:4b9df938-bbd8-48c1-a7cd-660c114349b9",
      "resource": {
        "resourceType": "Patient",
        "id": "4b9df938-bbd8-48c1-a7cd-660c114349b9",
        "meta": {
          "security": [
            {
              "system": "http://terminology.hl7.org/CodeSystem/v3-ActReason",
              "code": "HTEST"
            },
            {
              "system": "http://terminology.hl7.org/CodeSystem/v3-ActReason",
              "code": "TRAIN"
            }
          ],
          "tag": [
            {
              "system": "https://synderai.net/fhir/CodeSystem/tags",
              "code": "synthetic",
              "display": "SYNDERAI Synthetic data"
            }
          ],
          "profile": [
            "http://hl7.eu/fhir/eps/StructureDefinition/patient-eu-eps"
          ]
        },
        "identifier": [
          {
            "type": {
              "coding": [
                {
                  "code": "PT",
                  "system": "http://terminology.hl7.org/CodeSystem/v2-0203"
                }
              ]
            },
            "system": "http://ec.europa.eu/identifier/eci",
            "value": "2365-936148-1"
          },
          {
            "type": {
              "coding": [
                {
                  "code": "MR",
                  "system": "http://terminology.hl7.org/CodeSystem/v2-0203"
                }
              ]
            },
            "system": "http://local.setting.eu/identifier",
            "value": "853b213b-8bf3-d90f-2018-79d547156fd7"
          }
        ],
        "name": [
          {
            "family": "Begum"
          },
          {
            "given": [
              "Bethany"
            ]
          },
          {
            "text": "Bethany Begum"
          }
        ],
        "address": [
          {
            "line": [
              "Studio 22e",
              "Joe unions"
            ],
            "use": "home",
            "type": "physical",
            "postalCode": "M1",
            "city": "Manchester",
            "country": "United Kingdom"
          }
        ],
        "telecom": [
          {
            "system": "phone",
            "value": "(029) 2018200"
          }
        ],
        "extension": [
          {
            "url": "http://hl7.org/fhir/StructureDefinition/patient-nationality",
            "valueCodeableConcept": {
              "coding": [
                {
                  "code": "GB",
                  "system": "http://hl7.org/fhir/ValueSet/country"
                }
              ]
            }
          }
        ],
        "text": {
          "status": "generated",
          "div": "<div xmlns=\"http://www.w3.org/1999/xhtml\"><table class=\"hl7__ips\"><tr><td>Bethany Begum</td><td>female</td><td>19-Jan-1976</td></tr></table></div>"
        },
        "gender": "female",
        "birthDate": "1976-01-19"
      }
    },
    {
      "fullUrl": "urn:uuid:f68be6d4-29ec-4d9c-b440-fdb9421797c4",
      "resource": {
        "resourceType": "PractitionerRole",
        "id": "f68be6d4-29ec-4d9c-b440-fdb9421797c4",
        "meta": {
          "profile": [
            "http://hl7.eu/fhir/base/StructureDefinition/practitionerRole-eu"
          ]
        },
        "text": {
          "status": "generated",
          "div": "<div xmlns=\"http://www.w3.org/1999/xhtml\"><table class=\"hl7__ips\">Provider Role Id f68be6d4-29ec-4d9c-b440-fdb9421797c4</table></div>"
        },
        "practitioner": {
          "reference": "urn:uuid:f312c615-e466-4e38-b045-ad36a86654d1"
        },
        "organization": {
          "reference": "urn:uuid:700cef5d-d08c-4f16-991f-1d916c903b28"
        }
      }
    },
    {
      "fullUrl": "urn:uuid:f312c615-e466-4e38-b045-ad36a86654d1",
      "resource": {
        "resourceType": "Practitioner",
        "id": "f312c615-e466-4e38-b045-ad36a86654d1",
        "meta": {
          "profile": [
            "http://hl7.eu/fhir/base/StructureDefinition/practitioner-eu"
          ]
        },
        "name": [
          {
            "prefix": [
              "Dr."
            ],
            "given": [
              "Hel"
            ],
            "family": "Ping"
          }
        ],
        "text": {
          "status": "generated",
          "div": "<div xmlns=\"http://www.w3.org/1999/xhtml\"><table class=\"hl7__ips\">Dr. Hel Ping</table></div>"
        }
      }
    },
    {
      "fullUrl": "urn:uuid:700cef5d-d08c-4f16-991f-1d916c903b28",
      "resource": {
        "resourceType": "Organization",
        "id": "700cef5d-d08c-4f16-991f-1d916c903b28",
        "meta": {
          "profile": [
            "http://hl7.eu/fhir/base/StructureDefinition/organization-eu"
          ]
        },
        "identifier": [
          {
            "assigner": {
              "display": "HL7 Europe"
            },
            "system": "urn:oid:2.16.840.1.113883.2.51.999",
            "value": "7dbb1956-97d7-4045-8068-8d2af9646e96"
          }
        ],
        "address": [
          {
            "line": [
              "City Road 204"
            ],
            "city": "Manchester",
            "postalCode": "M3 3",
            "country": "United Kingdom"
          }
        ],
        "text": {
          "status": "generated",
          "div": "<div xmlns=\"http://www.w3.org/1999/xhtml\"><table class=\"hl7__ips\">Cornbrook Medical Practice</table></div>"
        },
        "name": "Cornbrook Medical Practice"
      }
    },
    {
      "fullUrl": "urn:uuid:bbf35039-4363-478f-a035-8a678ac847aa",
      "resource": {
        "resourceType": "Condition",
        "id": "bbf35039-4363-478f-a035-8a678ac847aa",
        "meta": {
          "profile": [
            "http://hl7.org/fhir/uv/ips/StructureDefinition/Condition-uv-ips"
          ]
        },
        "category": [
          {
            "coding": [
              {
                "code": "problem-list-item",
                "system": "http://terminology.hl7.org/CodeSystem/condition-category",
                "display": "Problem List Item"
              }
            ]
          }
        ],
        "code": {
          "coding": [
            {
              "code": "55822004",
              "system": "http://snomed.info/sct",
              "display": "Hyperlipidemia (disorder)"
            }
          ],
          "text": "Hyperlipidemia"
        },
        "text": {
          "status": "generated",
          "div": "<div xmlns=\"http://www.w3.org/1999/xhtml\"><table class=\"hl7__ips\"><tr><td>Hyperlipidemia</td><td><span class=\"nb\">12-Apr-2024</span></td><td>active</td></tr></table></div>"
        },
        "onsetDateTime": "2024-04-12",
        "subject": {
          "reference": "urn:uuid:",
          "display": "Bethany Begum"
        },
        "asserter": {
          "reference": "urn:uuid:",
          "display": "Cornbrook Medical Practice"
        }
      }
    },
    {
      "fullUrl": "urn:uuid:8622558d-c759-4427-a8f9-3a76ba1f6313",
      "resource": {
        "resourceType": "Condition",
        "id": "8622558d-c759-4427-a8f9-3a76ba1f6313",
        "meta": {
          "profile": [
            "http://hl7.org/fhir/uv/ips/StructureDefinition/Condition-uv-ips"
          ]
        },
        "category": [
          {
            "coding": [
              {
                "code": "problem-list-item",
                "system": "http://terminology.hl7.org/CodeSystem/condition-category",
                "display": "Problem List Item"
              }
            ]
          }
        ],
        "code": {
          "coding": [
            {
              "code": "15777000",
              "system": "http://snomed.info/sct",
              "display": "Prediabetes (disorder)"
            }
          ],
          "text": "Prediabetes"
        },
        "text": {
          "status": "generated",
          "div": "<div xmlns=\"http://www.w3.org/1999/xhtml\"><table class=\"hl7__ips\"><tr><td>Prediabetes</td><td><span class=\"nb\">30-Mar-2007</span></td><td>active</td></tr></table></div>"
        },
        "onsetDateTime": "2007-03-30",
        "subject": {
          "reference": "urn:uuid:",
          "display": "Bethany Begum"
        },
        "asserter": {
          "reference": "urn:uuid:",
          "display": "Cornbrook Medical Practice"
        }
      }
    },
    {
      "fullUrl": "urn:uuid:e77c6b01-7dc5-4e51-b3e1-1fe7bacba53d",
      "resource": {
        "resourceType": "Condition",
        "id": "e77c6b01-7dc5-4e51-b3e1-1fe7bacba53d",
        "meta": {
          "profile": [
            "http://hl7.org/fhir/uv/ips/StructureDefinition/Condition-uv-ips"
          ]
        },
        "category": [
          {
            "coding": [
              {
                "code": "problem-list-item",
                "system": "http://terminology.hl7.org/CodeSystem/condition-category",
                "display": "Problem List Item"
              }
            ]
          }
        ],
        "code": {
          "coding": [
            {
              "code": "40055000",
              "system": "http://snomed.info/sct",
              "display": "Chronic sinusitis (disorder)"
            }
          ],
          "text": "Chronic sinusitis"
        },
        "text": {
          "status": "generated",
          "div": "<div xmlns=\"http://www.w3.org/1999/xhtml\"><table class=\"hl7__ips\"><tr><td>Chronic sinusitis</td><td><span class=\"nb\">28-Oct-2005</span></td><td>active</td></tr></table></div>"
        },
        "onsetDateTime": "2005-10-28",
        "subject": {
          "reference": "urn:uuid:",
          "display": "Bethany Begum"
        },
        "asserter": {
          "reference": "urn:uuid:",
          "display": "Cornbrook Medical Practice"
        }
      }
    },
    {
      "fullUrl": "urn:uuid:cd3b4a24-98a8-4c45-ad62-a3bba899104f",
      "resource": {
        "resourceType": "Condition",
        "id": "cd3b4a24-98a8-4c45-ad62-a3bba899104f",
        "meta": {
          "profile": [
            "http://hl7.org/fhir/uv/ips/StructureDefinition/Condition-uv-ips"
          ]
        },
        "category": [
          {
            "coding": [
              {
                "code": "problem-list-item",
                "system": "http://terminology.hl7.org/CodeSystem/condition-category",
                "display": "Problem List Item"
              }
            ]
          }
        ],
        "code": {
          "coding": [
            {
              "code": "10509002",
              "system": "http://snomed.info/sct",
              "display": "Acute bronchitis (disorder)"
            }
          ],
          "text": "Acute bronchitis"
        },
        "text": {
          "status": "generated",
          "div": "<div xmlns=\"http://www.w3.org/1999/xhtml\"><table class=\"hl7__ips\"><tr><td><span class=\"grayedout\">Acute bronchitis</span></td><td><span class=\"nb\">10-Mar-2023 - 18-Mar-2023</span></td><td><span class=\"grayedout\">inactive</span></td></tr></table></div>"
        },
        "onsetDateTime": "2023-03-10",
        "abatementDateTime": "2023-03-18",
        "subject": {
          "reference": "urn:uuid:",
          "display": "Bethany Begum"
        },
        "asserter": {
          "reference": "urn:uuid:",
          "display": "Cornbrook Medical Practice"
        }
      }
    },
    {
      "fullUrl": "urn:uuid:620aebd7-d152-4b50-a28c-0eca8dbb82e8",
      "resource": {
        "resourceType": "Condition",
        "id": "620aebd7-d152-4b50-a28c-0eca8dbb82e8",
        "meta": {
          "profile": [
            "http://hl7.org/fhir/uv/ips/StructureDefinition/Condition-uv-ips"
          ]
        },
        "category": [
          {
            "coding": [
              {
                "code": "problem-list-item",
                "system": "http://terminology.hl7.org/CodeSystem/condition-category",
                "display": "Problem List Item"
              }
            ]
          }
        ],
        "code": {
          "coding": [
            {
              "code": "68496003",
              "system": "http://snomed.info/sct",
              "display": "Polyp of colon (disorder)"
            }
          ],
          "text": "Polyp of colon"
        },
        "text": {
          "status": "generated",
          "div": "<div xmlns=\"http://www.w3.org/1999/xhtml\"><table class=\"hl7__ips\"><tr><td><span class=\"grayedout\">Polyp of colon</span></td><td><span class=\"nb\">13-Jan-2023 - 17-Apr-2024</span></td><td><span class=\"grayedout\">inactive</span></td></tr></table></div>"
        },
        "onsetDateTime": "2023-01-13",
        "abatementDateTime": "2024-04-17",
        "subject": {
          "reference": "urn:uuid:",
          "display": "Bethany Begum"
        },
        "asserter": {
          "reference": "urn:uuid:",
          "display": "Cornbrook Medical Practice"
        }
      }
    },
    {
      "fullUrl": "urn:uuid:e7d8a0c5-5b22-4cbd-83cd-dc424fa86123",
      "resource": {
        "resourceType": "Condition",
        "id": "e7d8a0c5-5b22-4cbd-83cd-dc424fa86123",
        "meta": {
          "profile": [
            "http://hl7.org/fhir/uv/ips/StructureDefinition/Condition-uv-ips"
          ]
        },
        "category": [
          {
            "coding": [
              {
                "code": "problem-list-item",
                "system": "http://terminology.hl7.org/CodeSystem/condition-category",
                "display": "Problem List Item"
              }
            ]
          }
        ],
        "code": {
          "coding": [
            {
              "code": "444814009",
              "system": "http://snomed.info/sct",
              "display": "Viral sinusitis (disorder)"
            }
          ],
          "text": "Viral sinusitis"
        },
        "text": {
          "status": "generated",
          "div": "<div xmlns=\"http://www.w3.org/1999/xhtml\"><table class=\"hl7__ips\"><tr><td><span class=\"grayedout\">Viral sinusitis</span></td><td><span class=\"nb\">25-Dec-2021 - 14-Jan-2022</span></td><td><span class=\"grayedout\">inactive</span></td></tr></table></div>"
        },
        "onsetDateTime": "2021-12-25",
        "abatementDateTime": "2022-01-14",
        "subject": {
          "reference": "urn:uuid:",
          "display": "Bethany Begum"
        },
        "asserter": {
          "reference": "urn:uuid:",
          "display": "Cornbrook Medical Practice"
        }
      }
    },
    {
      "fullUrl": "urn:uuid:cb1d5331-73d6-442e-9cb3-9de4af8f891a",
      "resource": {
        "resourceType": "Condition",
        "id": "cb1d5331-73d6-442e-9cb3-9de4af8f891a",
        "meta": {
          "profile": [
            "http://hl7.org/fhir/uv/ips/StructureDefinition/Condition-uv-ips"
          ]
        },
        "category": [
          {
            "coding": [
              {
                "code": "problem-list-item",
                "system": "http://terminology.hl7.org/CodeSystem/condition-category",
                "display": "Problem List Item"
              }
            ]
          }
        ],
        "code": {
          "coding": [
            {
              "code": "444814009",
              "system": "http://snomed.info/sct",
              "display": "Viral sinusitis (disorder)"
            }
          ],
          "text": "Viral sinusitis"
        },
        "text": {
          "status": "generated",
          "div": "<div xmlns=\"http://www.w3.org/1999/xhtml\"><table class=\"hl7__ips\"><tr><td><span class=\"grayedout\">Viral sinusitis</span></td><td><span class=\"nb\">24-Dec-2018 - 04-Jan-2019</span></td><td><span class=\"grayedout\">inactive</span></td></tr></table></div>"
        },
        "onsetDateTime": "2018-12-24",
        "abatementDateTime": "2019-01-04",
        "subject": {
          "reference": "urn:uuid:",
          "display": "Bethany Begum"
        },
        "asserter": {
          "reference": "urn:uuid:",
          "display": "Cornbrook Medical Practice"
        }
      }
    },
    {
      "fullUrl": "urn:uuid:58fb4ba8-c93d-474e-9d5b-27b3371ffe21",
      "resource": {
        "resourceType": "Medication",
        "id": "58fb4ba8-c93d-474e-9d5b-27b3371ffe21",
        "meta": {
          "profile": [
            "http://hl7.eu/fhir/eps/StructureDefinition/Medication-eu-eps"
          ]
        },
        "code": {
          "coding": [
            {
              "code": "319996000",
              "system": "http://snomed.info/sct",
              "display": "Simvastatin 10 mg oral tablet"
            }
          ],
          "text": "Simvastatin 10 mg oral tablet"
        },
        "text": {
          "status": "generated",
          "div": "<div xmlns=\"http://www.w3.org/1999/xhtml\">Simvastatin 10 mg oral tablet</div>"
        }
      }
    },
    {
      "fullUrl": "urn:uuid:aefcb6aa-4d63-4d1b-80b5-1c0401d4e512",
      "resource": {
        "resourceType": "MedicationStatement",
        "id": "aefcb6aa-4d63-4d1b-80b5-1c0401d4e512",
        "meta": {
          "profile": [
            "http://hl7.eu/fhir/eps/StructureDefinition/MedicationStatement-eu-eps"
          ]
        },
        "effectivePeriod": {
          "start": "2025-05-03"
        },
        "dosage": [
          {
            "doseAndRate": [
              {
                "doseQuantity": {
                  "value": 1,
                  "unit": "{tbl}",
                  "system": "$ucum",
                  "code": "{tbl}"
                }
              }
            ],
            "timing": {
              "repeat": {
                "frequency": 1,
                "period": 1,
                "periodUnit": "d"
              }
            },
            "text": "1 tablet (10 mg) by mouth once daily",
            "asNeededBoolean": false
          }
        ],
        "reasonCode": [
          {
            "coding": [
              {
                "code": "55822004",
                "system": "http://snomed.info/sct",
                "display": "Hyperlipidemia"
              }
            ]
          }
        ],
        "text": {
          "status": "generated",
          "div": "<div xmlns=\"http://www.w3.org/1999/xhtml\"><table class=\"hl7__ips first25\"><tr><th>Medication</th><th>Since</th><th>Form</th><th>Dosage</th><th>Reason</th></tr><tr><td>Simvastatin 10 mg oral tablet</td><td><span class=\"nb\">2025-05-03</span></td><td>-</td><td>1 tablet (10 mg) by mouth once daily</td><td>Hyperlipidemia</td></tr></table></div>"
        },
        "status": "active",
        "medicationReference": {
          "reference": "urn:uuid:58fb4ba8-c93d-474e-9d5b-27b3371ffe21",
          "display": "Simvastatin 10 mg oral tablet"
        },
        "subject": {
          "reference": "urn:uuid:4b9df938-bbd8-48c1-a7cd-660c114349b9",
          "display": "Bethany Begum"
        }
      }
    },
    {
      "fullUrl": "urn:uuid:290f3d1d-7c8a-4c0a-b8b2-3d4f9b06dd69",
      "resource": {
        "resourceType": "Medication",
        "id": "290f3d1d-7c8a-4c0a-b8b2-3d4f9b06dd69",
        "meta": {
          "profile": [
            "http://hl7.eu/fhir/eps/StructureDefinition/Medication-eu-eps"
          ]
        },
        "code": {
          "coding": [
            {
              "code": "245134",
              "system": "http://www.nlm.nih.gov/research/umls/rxnorm",
              "display": "72 HR Fentanyl 0.025 MG/HR Transdermal System"
            }
          ],
          "text": "72 HR Fentanyl 0.025 MG/HR Transdermal System"
        },
        "text": {
          "status": "generated",
          "div": "<div xmlns=\"http://www.w3.org/1999/xhtml\">72 HR Fentanyl 0.025 MG/HR Transdermal System</div>"
        }
      }
    },
    {
      "fullUrl": "urn:uuid:4b38325f-d42e-4f50-b9a9-fedf13de73e8",
      "resource": {
        "resourceType": "MedicationStatement",
        "id": "4b38325f-d42e-4f50-b9a9-fedf13de73e8",
        "meta": {
          "profile": [
            "http://hl7.eu/fhir/eps/StructureDefinition/MedicationStatement-eu-eps"
          ]
        },
        "effectivePeriod": {
          "start": "2025-04-18"
        },
        "dosage": [
          {
            "doseAndRate": [
              {
                "doseQuantity": {
                  "value": 1,
                  "unit": "patch",
                  "system": "$ucum",
                  "code": "{patch}"
                }
              }
            ],
            "timing": {
              "repeat": {
                "frequency": 1,
                "period": 72,
                "periodUnit": "h"
              }
            },
            "text": "Apply 1 patch (0.025 mg/hr) every 72 hours",
            "asNeededBoolean": false
          }
        ],
        "text": {
          "status": "generated",
          "div": "<div xmlns=\"http://www.w3.org/1999/xhtml\"><table class=\"hl7__ips first25\"><tr><th>Medication</th><th>Since</th><th>Form</th><th>Dosage</th><th>Reason</th></tr><tr><td>72 HR Fentanyl 0.025 MG/HR Transdermal System</td><td><span class=\"nb\">2025-04-18</span></td><td>-</td><td>Apply 1 patch (0.025 mg/hr) every 72 hours</td><td>-</td></tr></table></div>"
        },
        "status": "active",
        "medicationReference": {
          "reference": "urn:uuid:290f3d1d-7c8a-4c0a-b8b2-3d4f9b06dd69",
          "display": "72 HR Fentanyl 0.025 MG/HR Transdermal System"
        },
        "subject": {
          "reference": "urn:uuid:4b9df938-bbd8-48c1-a7cd-660c114349b9",
          "display": "Bethany Begum"
        }
      }
    },
    {
      "fullUrl": "urn:uuid:7a56b845-8b6d-4268-ae05-6b7cff367fa6",
      "resource": {
        "resourceType": "Medication",
        "id": "7a56b845-8b6d-4268-ae05-6b7cff367fa6",
        "meta": {
          "profile": [
            "http://hl7.eu/fhir/eps/StructureDefinition/Medication-eu-eps"
          ]
        },
        "code": {
          "coding": [
            {
              "code": "377261001",
              "system": "http://snomed.info/sct",
              "display": "Acetaminophen 300 mg and codeine phosphate 15 mg oral tablet"
            }
          ],
          "text": "Acetaminophen 300 mg and codeine phosphate 15 mg oral tablet"
        },
        "text": {
          "status": "generated",
          "div": "<div xmlns=\"http://www.w3.org/1999/xhtml\">Acetaminophen 300 mg and codeine phosphate 15 mg oral tablet</div>"
        }
      }
    },
    {
      "fullUrl": "urn:uuid:373e853d-38f6-4ef8-9e28-ca660953b7b4",
      "resource": {
        "resourceType": "MedicationStatement",
        "id": "373e853d-38f6-4ef8-9e28-ca660953b7b4",
        "meta": {
          "profile": [
            "http://hl7.eu/fhir/eps/StructureDefinition/MedicationStatement-eu-eps"
          ]
        },
        "effectivePeriod": {
          "start": "2025-04-18"
        },
        "dosage": [
          {
            "doseAndRate": [
              {
                "doseQuantity": {
                  "value": 1,
                  "unit": "{tbl}",
                  "system": "$ucum",
                  "code": "{tbl}"
                }
              }
            ],
            "timing": {
              "repeat": {
                "frequency": 6,
                "period": 1,
                "periodUnit": "d"
              }
            },
            "text": "1 tablet (300 mg/15 mg) every 4 to 6 hours as needed for pain",
            "asNeededBoolean": true
          }
        ],
        "text": {
          "status": "generated",
          "div": "<div xmlns=\"http://www.w3.org/1999/xhtml\"><table class=\"hl7__ips first25\"><tr><th>Medication</th><th>Since</th><th>Form</th><th>Dosage</th><th>Reason</th></tr><tr><td>Acetaminophen 300 mg and codeine phosphate 15 mg oral tablet</td><td><span class=\"nb\">2025-04-18</span></td><td>-</td><td>1 tablet (300 mg/15 mg) every 4 to 6 hours as needed for pain</td><td>-</td></tr></table></div>"
        },
        "status": "active",
        "medicationReference": {
          "reference": "urn:uuid:7a56b845-8b6d-4268-ae05-6b7cff367fa6",
          "display": "Acetaminophen 300 mg and codeine phosphate 15 mg oral tablet"
        },
        "subject": {
          "reference": "urn:uuid:4b9df938-bbd8-48c1-a7cd-660c114349b9",
          "display": "Bethany Begum"
        }
      }
    },
    {
      "fullUrl": "urn:uuid:ef940dc7-29b0-4fbc-b97a-5008e154f122",
      "resource": {
        "resourceType": "Medication",
        "id": "ef940dc7-29b0-4fbc-b97a-5008e154f122",
        "meta": {
          "profile": [
            "http://hl7.eu/fhir/eps/StructureDefinition/Medication-eu-eps"
          ]
        },
        "code": {
          "coding": [
            {
              "code": "1049504",
              "system": "http://www.nlm.nih.gov/research/umls/rxnorm",
              "display": "Abuse-Deterrent 12 HR Oxycodone Hydrochloride 10 MG Extended Release Oral Tablet [Oxycontin]"
            }
          ],
          "text": "Abuse-Deterrent 12 HR Oxycodone Hydrochloride 10 MG Extended Release Oral Tablet [Oxycontin]"
        },
        "text": {
          "status": "generated",
          "div": "<div xmlns=\"http://www.w3.org/1999/xhtml\">Abuse-Deterrent 12 HR Oxycodone Hydrochloride 10 MG Extended Release Oral Tablet [Oxycontin]</div>"
        }
      }
    },
    {
      "fullUrl": "urn:uuid:b1c06094-17f6-4318-8179-e312af6c0cfe",
      "resource": {
        "resourceType": "MedicationStatement",
        "id": "b1c06094-17f6-4318-8179-e312af6c0cfe",
        "meta": {
          "profile": [
            "http://hl7.eu/fhir/eps/StructureDefinition/MedicationStatement-eu-eps"
          ]
        },
        "effectivePeriod": {
          "start": "2025-04-18"
        },
        "dosage": [
          {
            "doseAndRate": [
              {
                "doseQuantity": {
                  "value": 1,
                  "unit": "{tbl}",
                  "system": "$ucum",
                  "code": "{tbl}"
                }
              }
            ],
            "timing": {
              "repeat": {
                "frequency": 2,
                "period": 1,
                "periodUnit": "d"
              }
            },
            "text": "1 tablet (10 mg) every 12 hours",
            "asNeededBoolean": false
          }
        ],
        "text": {
          "status": "generated",
          "div": "<div xmlns=\"http://www.w3.org/1999/xhtml\"><table class=\"hl7__ips first25\"><tr><th>Medication</th><th>Since</th><th>Form</th><th>Dosage</th><th>Reason</th></tr><tr><td>Abuse-Deterrent 12 HR Oxycodone Hydrochloride 10 MG Extended Release Oral Tablet [Oxycontin]</td><td><span class=\"nb\">2025-04-18</span></td><td>-</td><td>1 tablet (10 mg) every 12 hours</td><td>-</td></tr></table></div>"
        },
        "status": "active",
        "medicationReference": {
          "reference": "urn:uuid:ef940dc7-29b0-4fbc-b97a-5008e154f122",
          "display": "Abuse-Deterrent 12 HR Oxycodone Hydrochloride 10 MG Extended Release Oral Tablet [Oxycontin]"
        },
        "subject": {
          "reference": "urn:uuid:4b9df938-bbd8-48c1-a7cd-660c114349b9",
          "display": "Bethany Begum"
        }
      }
    },
    {
      "fullUrl": "urn:uuid:5df17237-7354-457c-8c37-13f077f1871c",
      "resource": {
        "resourceType": "Medication",
        "id": "5df17237-7354-457c-8c37-13f077f1871c",
        "meta": {
          "profile": [
            "http://hl7.eu/fhir/eps/StructureDefinition/Medication-eu-eps"
          ]
        },
        "code": {
          "coding": [
            {
              "code": "1860491",
              "system": "http://www.nlm.nih.gov/research/umls/rxnorm",
              "display": "12 HR Hydrocodone Bitartrate 10 MG Extended Release Oral Capsule"
            }
          ],
          "text": "12 HR Hydrocodone Bitartrate 10 MG Extended Release Oral Capsule"
        },
        "text": {
          "status": "generated",
          "div": "<div xmlns=\"http://www.w3.org/1999/xhtml\">12 HR Hydrocodone Bitartrate 10 MG Extended Release Oral Capsule</div>"
        }
      }
    },
    {
      "fullUrl": "urn:uuid:38509e68-a33f-4cf6-b203-ac452df537d8",
      "resource": {
        "resourceType": "MedicationStatement",
        "id": "38509e68-a33f-4cf6-b203-ac452df537d8",
        "meta": {
          "profile": [
            "http://hl7.eu/fhir/eps/StructureDefinition/MedicationStatement-eu-eps"
          ]
        },
        "effectivePeriod": {
          "start": "2025-04-18"
        },
        "dosage": [
          {
            "doseAndRate": [
              {
                "doseQuantity": {
                  "value": 1,
                  "unit": "{cap}",
                  "system": "$ucum",
                  "code": "{cap}"
                }
              }
            ],
            "timing": {
              "repeat": {
                "frequency": 2,
                "period": 1,
                "periodUnit": "d"
              }
            },
            "text": "1 capsule (10 mg) every 12 hours",
            "asNeededBoolean": false
          }
        ],
        "text": {
          "status": "generated",
          "div": "<div xmlns=\"http://www.w3.org/1999/xhtml\"><table class=\"hl7__ips first25\"><tr><th>Medication</th><th>Since</th><th>Form</th><th>Dosage</th><th>Reason</th></tr><tr><td>12 HR Hydrocodone Bitartrate 10 MG Extended Release Oral Capsule</td><td><span class=\"nb\">2025-04-18</span></td><td>-</td><td>1 capsule (10 mg) every 12 hours</td><td>-</td></tr></table></div>"
        },
        "status": "active",
        "medicationReference": {
          "reference": "urn:uuid:5df17237-7354-457c-8c37-13f077f1871c",
          "display": "12 HR Hydrocodone Bitartrate 10 MG Extended Release Oral Capsule"
        },
        "subject": {
          "reference": "urn:uuid:4b9df938-bbd8-48c1-a7cd-660c114349b9",
          "display": "Bethany Begum"
        }
      }
    },
    {
      "fullUrl": "urn:uuid:71fe56eb-6048-4609-8f4a-764206fbbc0d",
      "resource": {
        "resourceType": "Immunization",
        "id": "71fe56eb-6048-4609-8f4a-764206fbbc0d",
        "meta": {
          "profile": [
            "http://hl7.org/fhir/uv/ips/StructureDefinition/Immunization-uv-ips"
          ]
        },
        "vaccineCode": {
          "coding": [
            {
              "code": "1181000221105",
              "system": "http://snomed.info/sct",
              "display": "Vaccine product containing Influenza virus antigen"
            },
            {
              "code": "J07BB02",
              "system": "http://www.whocc.no/atc",
              "display": "Influenza, inactivated, split virus"
            }
          ],
          "text": "Influenza virus antigen only vaccine product"
        },
        "site": {
          "coding": [
            {
              "code": "244979005",
              "system": "http://snomed.info/sct",
              "display": "Entire muscle of upper arm"
            }
          ],
          "text": "Entire muscle of upper arm"
        },
        "route": {
          "coding": [
            {
              "code": "78421000",
              "system": "http://snomed.info/sct",
              "display": "Intramuscular route"
            }
          ],
          "text": "Intramuscular route"
        },
        "text": {
          "status": "generated",
          "div": "<div xmlns=\"http://www.w3.org/1999/xhtml\"><table class=\"hl7__ips\"><tr><td>Influenza virus antigen only vaccine product</td><td><span class=\"nb\">18-Apr-2025</span></td></tr></table></div>"
        },
        "status": "completed",
        "patient": {
          "reference": "urn:uuid:4b9df938-bbd8-48c1-a7cd-660c114349b9",
          "display": "Bethany Begum"
        },
        "occurrenceDateTime": "2025-04-18",
        "lotNumber": "RM-O4PcDBU",
        "expirationDate": "2026-01-04"
      }
    },
    {
      "fullUrl": "urn:uuid:f7407648-58f2-4aca-82da-1d99da97301e",
      "resource": {
        "resourceType": "Immunization",
        "id": "f7407648-58f2-4aca-82da-1d99da97301e",
        "meta": {
          "profile": [
            "http://hl7.org/fhir/uv/ips/StructureDefinition/Immunization-uv-ips"
          ]
        },
        "vaccineCode": {
          "coding": [
            {
              "code": "777725002",
              "system": "http://snomed.info/sct",
              "display": "Vaccine product containing only Clostridium tetani toxoid antigen adsorbed"
            },
            {
              "code": "J07AM51",
              "system": "http://www.whocc.no/atc",
              "display": "Diphtheria-tetanus vaccines, adult type"
            }
          ],
          "text": "Clostridium tetani toxoid antigen adsorbed only vaccine product"
        },
        "site": {
          "coding": [
            {
              "code": "244979005",
              "system": "http://snomed.info/sct",
              "display": "Entire muscle of upper arm"
            }
          ],
          "text": "Entire muscle of upper arm"
        },
        "route": {
          "coding": [
            {
              "code": "78421000",
              "system": "http://snomed.info/sct",
              "display": "Intramuscular route"
            }
          ],
          "text": "Intramuscular route"
        },
        "text": {
          "status": "generated",
          "div": "<div xmlns=\"http://www.w3.org/1999/xhtml\"><table class=\"hl7__ips\"><tr><td>Clostridium tetani toxoid antigen adsorbed only vaccine product</td><td><span class=\"nb\">12-Apr-2024</span></td></tr></table></div>"
        },
        "status": "completed",
        "patient": {
          "reference": "urn:uuid:4b9df938-bbd8-48c1-a7cd-660c114349b9",
          "display": "Bethany Begum"
        },
        "occurrenceDateTime": "2024-04-12",
        "lotNumber": "ZB-q2t3dwPnX",
        "expirationDate": "2024-07-22"
      }
    },
    {
      "fullUrl": "urn:uuid:ced1ff7b-354e-49c0-9ad3-9ba2fe390c64",
      "resource": {
        "resourceType": "Immunization",
        "id": "ced1ff7b-354e-49c0-9ad3-9ba2fe390c64",
        "meta": {
          "profile": [
            "http://hl7.org/fhir/uv/ips/StructureDefinition/Immunization-uv-ips"
          ]
        },
        "vaccineCode": {
          "coding": [
            {
              "code": "2221000221107",
              "system": "http://snomed.info/sct",
              "display": "Live attenuated Varicella-zoster vaccine"
            },
            {
              "code": "J07BK02",
              "system": "http://www.whocc.no/atc",
              "display": "Varicella-zoster vaccines"
            }
          ],
          "text": "Live attenuated Human alphaherpesvirus 3 only vaccine product"
        },
        "site": {
          "coding": [
            {
              "code": "368208006",
              "system": "http://snomed.info/sct",
              "display": "Left upper arm structure"
            }
          ],
          "text": "Left upper arm structure"
        },
        "route": {
          "coding": [
            {
              "code": "34206005",
              "system": "http://snomed.info/sct",
              "display": "Subcutaneous route"
            }
          ],
          "text": "Subcutaneous route"
        },
        "text": {
          "status": "generated",
          "div": "<div xmlns=\"http://www.w3.org/1999/xhtml\"><table class=\"hl7__ips\"><tr><td>Live attenuated Human alphaherpesvirus 3 only vaccine product</td><td><span class=\"nb\">12-Apr-2024</span></td></tr></table></div>"
        },
        "status": "completed",
        "patient": {
          "reference": "urn:uuid:4b9df938-bbd8-48c1-a7cd-660c114349b9",
          "display": "Bethany Begum"
        },
        "occurrenceDateTime": "2024-04-12",
        "lotNumber": "IO-WwsYW",
        "expirationDate": "2025-03-31"
      }
    },
    {
      "fullUrl": "urn:uuid:13b3bdbc-9443-4068-bb39-c62d6d3b5c2a",
      "resource": {
        "resourceType": "AllergyIntolerance",
        "id": "13b3bdbc-9443-4068-bb39-c62d6d3b5c2a",
        "meta": {
          "profile": [
            "http://hl7.eu/fhir/eps/StructureDefinition/allergyIntolerance-eu-eps"
          ]
        },
        "code": {
          "coding": [
            {
              "code": "2221000221107",
              "system": "http://snomed.info/sct",
              "display": "Live attenuated Varicella-zoster vaccine"
            }
          ],
          "text": "Live attenuated Varicella-zoster vaccine"
        },
        "clinicalStatus": {
          "coding": [
            {
              "code": "active",
              "system": "http://terminology.hl7.org/CodeSystem/allergyintolerance-clinical"
            }
          ]
        },
        "text": {
          "status": "generated",
          "div": "<div xmlns=\"http://www.w3.org/1999/xhtml\"><table class=\"hl7__ips\"><tr><th>Allergy/Intolerance</th><th>Onset Date</th><th>Status</th><th>Type</th><th>Reaction</th></tr><tr><td>Live attenuated Varicella-zoster vaccine</td><td>?</td><td>active</td><td>?</td><td></td></tr></table></div>"
        },
        "verificationStatus": {
          "coding": [
            {
              "code": "confirmed",
              "system": "http://terminology.hl7.org/CodeSystem/allergyintolerance-verification"
            }
          ]
        },
        "patient": {
          "reference": "urn:uuid:4b9df938-bbd8-48c1-a7cd-660c114349b9",
          "display": "Bethany Begum"
        },
        "_onsetDateTime": {
          "extension": [
            {
              "url": "http://hl7.org/fhir/StructureDefinition/data-absent-reason",
              "valueCode": "unknown"
            }
          ]
        }
      }
    },
    {
      "fullUrl": "urn:uuid:26e1a99a-8e70-4397-a160-d9ca62d39a37",
      "resource": {
        "resourceType": "CarePlan",
        "id": "26e1a99a-8e70-4397-a160-d9ca62d39a37",
        "category": [
          {
            "coding": [
              {
                "code": "assess-plan",
                "system": "http://terminology.hl7.org/CodeSystem/care-plan-category",
                "display": "Assessment and Plan"
              }
            ]
          }
        ],
        "activity": [
          {
            "detail": {
              "code": {
                "coding": [
                  {
                    "code": "736285004",
                    "system": "http://snomed.info/sct",
                    "display": "Hyperlipidemia clinical management plan (record artifact)"
                  }
                ]
              },
              "reasonCode": [
                {
                  "coding": [
                    {
                      "code": "55822004",
                      "system": "http://snomed.info/sct",
                      "display": "Hyperlipidemia"
                    }
                  ]
                }
              ],
              "status": "unknown",
              "description": "Hyperlipidemia clinical management plan",
              "kind": "Appointment"
            }
          }
        ],
        "period": {
          "start": "2024-05-03"
        },
        "goal": [
          {
            "reference": "urn:uuid:5f49f840-1e9f-4d94-87ff-78823c475d87"
          },
          {
            "reference": "urn:uuid:840c7688-0fd0-419b-b58b-30d7f6f0fe8d"
          },
          {
            "reference": "urn:uuid:9dbb2192-001c-4bf8-a754-36891bdc6ce3"
          },
          {
            "reference": "urn:uuid:3cf89cb0-c5ac-450f-81ea-7ceec58506ce"
          }
        ],
        "text": {
          "status": "generated",
          "div": "<div xmlns=\"http://www.w3.org/1999/xhtml\"><table class=\"hl7__ips first25\"><tr><th>Active Planned Care / Goals</th><th>Start Date</th><th>Reason</th></tr><tr><td>Hyperlipidemia clinical management plan</td><td><span class=\"nb\">03-May-2024</span></td><td>Hyperlipidemia</td></tr><tr><td><ul><li>Achieve LDL cholesterol less than 100 mg/dL</li><li>Achieve total cholesterol less than 200 mg/dL</li><li>Achieve HDL cholesterol greater than 50 mg/dL</li><li>Achieve triglycerides less than 150 mg/dL</li></ul></td><td></td><td></td></tr></table></div>"
        },
        "status": "active",
        "intent": "plan",
        "subject": {
          "reference": "urn:uuid:4b9df938-bbd8-48c1-a7cd-660c114349b9",
          "display": "Bethany Begum"
        }
      }
    },
    {
      "fullUrl": "urn:uuid:ebae0ff9-77d9-400c-9513-9161a4c02ed7",
      "resource": {
        "resourceType": "CarePlan",
        "id": "ebae0ff9-77d9-400c-9513-9161a4c02ed7",
        "category": [
          {
            "coding": [
              {
                "code": "assess-plan",
                "system": "http://terminology.hl7.org/CodeSystem/care-plan-category",
                "display": "Assessment and Plan"
              }
            ]
          }
        ],
        "activity": [
          {
            "detail": {
              "code": {
                "coding": [
                  {
                    "code": "276239002",
                    "system": "http://snomed.info/sct",
                    "display": "Therapy (regime/therapy)"
                  }
                ]
              },
              "status": "unknown",
              "description": "Therapy",
              "kind": "Appointment"
            }
          }
        ],
        "period": {
          "start": "2014-03-18"
        },
        "text": {
          "status": "generated",
          "div": "<div xmlns=\"http://www.w3.org/1999/xhtml\"><table class=\"hl7__ips first25\"><tr><th>Active Planned Care / Goals</th><th>Start Date</th><th>Reason</th></tr><tr><td>Therapy</td><td><span class=\"nb\">18-Mar-2014</span></td><td>-</td></tr></table></div>"
        },
        "status": "active",
        "intent": "plan",
        "subject": {
          "reference": "urn:uuid:4b9df938-bbd8-48c1-a7cd-660c114349b9",
          "display": "Bethany Begum"
        }
      }
    },
    {
      "fullUrl": "urn:uuid:e2f8de44-0595-4e50-8937-4a1ff124e4ba",
      "resource": {
        "resourceType": "CarePlan",
        "id": "e2f8de44-0595-4e50-8937-4a1ff124e4ba",
        "category": [
          {
            "coding": [
              {
                "code": "assess-plan",
                "system": "http://terminology.hl7.org/CodeSystem/care-plan-category",
                "display": "Assessment and Plan"
              }
            ]
          }
        ],
        "activity": [
          {
            "detail": {
              "code": {
                "coding": [
                  {
                    "code": "698360004",
                    "system": "http://snomed.info/sct",
                    "display": "Diabetes self management plan (qualifier value)"
                  }
                ]
              },
              "reasonCode": [
                {
                  "coding": [
                    {
                      "code": "15777000",
                      "system": "http://snomed.info/sct",
                      "display": "Prediabetes"
                    }
                  ]
                }
              ],
              "status": "unknown",
              "description": "Diabetes self management plan",
              "kind": "Appointment"
            }
          }
        ],
        "period": {
          "start": "2007-03-30"
        },
        "goal": [
          {
            "reference": "urn:uuid:50bef353-f8cc-41e4-8a02-b0e16d171b42"
          }
        ],
        "text": {
          "status": "generated",
          "div": "<div xmlns=\"http://www.w3.org/1999/xhtml\"><table class=\"hl7__ips first25\"><tr><th>Active Planned Care / Goals</th><th>Start Date</th><th>Reason</th></tr><tr><td>Diabetes self management plan</td><td><span class=\"nb\">30-Mar-2007</span></td><td>Prediabetes</td></tr><tr><td><ul><li>Patient will implement and maintain a diabetes self-management plan to reduce risk of progression to diabetes.</li></ul></td><td></td><td></td></tr></table></div>"
        },
        "status": "active",
        "intent": "plan",
        "subject": {
          "reference": "urn:uuid:4b9df938-bbd8-48c1-a7cd-660c114349b9",
          "display": "Bethany Begum"
        }
      }
    },
    {
      "fullUrl": "urn:uuid:6040bde5-184b-49b3-b3a4-1fb89684d96b",
      "resource": {
        "resourceType": "Observation",
        "id": "6040bde5-184b-49b3-b3a4-1fb89684d96b",
        "meta": {
          "profile": [
            "http://hl7.org/fhir/StructureDefinition/vitalsigns"
          ]
        },
        "category": [
          {
            "coding": [
              {
                "system": "http://terminology.hl7.org/CodeSystem/observation-category",
                "code": "vital-signs",
                "display": "Vital Signs"
              }
            ]
          }
        ],
        "valueQuantity": {
          "value": 151.1,
          "code": "cm",
          "unit": "cm"
        },
        "text": {
          "status": "generated",
          "div": "<div xmlns=\"http://www.w3.org/1999/xhtml\"><table class=\"hl7__ips\"><tr><th>Vital Sign</th><th>Date</th><th>Measurement</th></tr><tr><td>Body Height</td><td>18-Apr-2025</td><td>151.1 cm</td></tr></table></div>"
        },
        "status": "final",
        "code": {
          "coding": [
            {
              "code": "$8302-2",
              "system": "http://loinc.org",
              "display": "Body Height"
            }
          ]
        },
        "subject": {
          "reference": "urn:uuid:4b9df938-bbd8-48c1-a7cd-660c114349b9",
          "display": "Bethany Begum"
        },
        "effectiveDateTime": "2025-04-18"
      }
    },
    {
      "fullUrl": "urn:uuid:a41f2d75-e5fa-40a5-b25d-089b6a4ec043",
      "resource": {
        "resourceType": "Observation",
        "id": "a41f2d75-e5fa-40a5-b25d-089b6a4ec043",
        "meta": {
          "profile": [
            "http://hl7.org/fhir/StructureDefinition/vitalsigns"
          ]
        },
        "category": [
          {
            "coding": [
              {
                "system": "http://terminology.hl7.org/CodeSystem/observation-category",
                "code": "vital-signs",
                "display": "Vital Signs"
              }
            ]
          }
        ],
        "valueQuantity": {
          "value": 1,
          "code": "{score}",
          "unit": "{score}"
        },
        "text": {
          "status": "generated",
          "div": "<div xmlns=\"http://www.w3.org/1999/xhtml\"><table class=\"hl7__ips\"><tr><th>Vital Sign</th><th>Date</th><th>Measurement</th></tr><tr><td>Pain severity - 0-10 verbal numeric rating [Score] - Reported</td><td>18-Apr-2025</td><td>1 {score}</td></tr></table></div>"
        },
        "status": "final",
        "code": {
          "coding": [
            {
              "code": "$72514-3",
              "system": "http://loinc.org",
              "display": "Pain severity - 0-10 verbal numeric rating [Score] - Reported"
            }
          ]
        },
        "subject": {
          "reference": "urn:uuid:4b9df938-bbd8-48c1-a7cd-660c114349b9",
          "display": "Bethany Begum"
        },
        "effectiveDateTime": "2025-04-18"
      }
    },
    {
      "fullUrl": "urn:uuid:18b93043-0608-4b2b-91d4-b03db3cd7970",
      "resource": {
        "resourceType": "Observation",
        "id": "18b93043-0608-4b2b-91d4-b03db3cd7970",
        "meta": {
          "profile": [
            "http://hl7.org/fhir/StructureDefinition/vitalsigns"
          ]
        },
        "category": [
          {
            "coding": [
              {
                "system": "http://terminology.hl7.org/CodeSystem/observation-category",
                "code": "vital-signs",
                "display": "Vital Signs"
              }
            ]
          }
        ],
        "valueQuantity": {
          "value": 63.6,
          "code": "kg",
          "unit": "kg"
        },
        "text": {
          "status": "generated",
          "div": "<div xmlns=\"http://www.w3.org/1999/xhtml\"><table class=\"hl7__ips\"><tr><th>Vital Sign</th><th>Date</th><th>Measurement</th></tr><tr><td>Body Weight</td><td>18-Apr-2025</td><td>63.6 kg</td></tr></table></div>"
        },
        "status": "final",
        "code": {
          "coding": [
            {
              "code": "$29463-7",
              "system": "http://loinc.org",
              "display": "Body Weight"
            }
          ]
        },
        "subject": {
          "reference": "urn:uuid:4b9df938-bbd8-48c1-a7cd-660c114349b9",
          "display": "Bethany Begum"
        },
        "effectiveDateTime": "2025-04-18"
      }
    },
    {
      "fullUrl": "urn:uuid:04e1c4b1-e604-46d0-84ca-46ef9a27c00c",
      "resource": {
        "resourceType": "Observation",
        "id": "04e1c4b1-e604-46d0-84ca-46ef9a27c00c",
        "meta": {
          "profile": [
            "http://hl7.org/fhir/StructureDefinition/vitalsigns"
          ]
        },
        "category": [
          {
            "coding": [
              {
                "system": "http://terminology.hl7.org/CodeSystem/observation-category",
                "code": "vital-signs",
                "display": "Vital Signs"
              }
            ]
          }
        ],
        "valueQuantity": {
          "value": 27.9,
          "code": "kg/m2",
          "unit": "kg/m2"
        },
        "text": {
          "status": "generated",
          "div": "<div xmlns=\"http://www.w3.org/1999/xhtml\"><table class=\"hl7__ips\"><tr><th>Vital Sign</th><th>Date</th><th>Measurement</th></tr><tr><td>Body mass index (BMI) [Ratio]</td><td>18-Apr-2025</td><td>27.9 kg/m2</td></tr></table></div>"
        },
        "status": "final",
        "code": {
          "coding": [
            {
              "code": "$39156-5",
              "system": "http://loinc.org",
              "display": "Body mass index (BMI) [Ratio]"
            }
          ]
        },
        "subject": {
          "reference": "urn:uuid:4b9df938-bbd8-48c1-a7cd-660c114349b9",
          "display": "Bethany Begum"
        },
        "effectiveDateTime": "2025-04-18"
      }
    },
    {
      "fullUrl": "urn:uuid:4c949d8d-8acd-4515-9dbe-9c9851b2c7f7",
      "resource": {
        "resourceType": "Observation",
        "id": "4c949d8d-8acd-4515-9dbe-9c9851b2c7f7",
        "meta": {
          "profile": [
            "http://hl7.org/fhir/StructureDefinition/vitalsigns"
          ]
        },
        "category": [
          {
            "coding": [
              {
                "system": "http://terminology.hl7.org/CodeSystem/observation-category",
                "code": "vital-signs",
                "display": "Vital Signs"
              }
            ]
          }
        ],
        "valueQuantity": {
          "value": 83,
          "code": "mm[Hg]",
          "unit": "mm[Hg]"
        },
        "text": {
          "status": "generated",
          "div": "<div xmlns=\"http://www.w3.org/1999/xhtml\"><table class=\"hl7__ips\"><tr><th>Vital Sign</th><th>Date</th><th>Measurement</th></tr><tr><td>Diastolic Blood Pressure</td><td>18-Apr-2025</td><td>83 mm[Hg]</td></tr></table></div>"
        },
        "status": "final",
        "code": {
          "coding": [
            {
              "code": "$8462-4",
              "system": "http://loinc.org",
              "display": "Diastolic Blood Pressure"
            }
          ]
        },
        "subject": {
          "reference": "urn:uuid:4b9df938-bbd8-48c1-a7cd-660c114349b9",
          "display": "Bethany Begum"
        },
        "effectiveDateTime": "2025-04-18"
      }
    },
    {
      "fullUrl": "urn:uuid:7cd569d4-e3fa-4a24-9366-e1712eb34f37",
      "resource": {
        "resourceType": "Observation",
        "id": "7cd569d4-e3fa-4a24-9366-e1712eb34f37",
        "meta": {
          "profile": [
            "http://hl7.org/fhir/StructureDefinition/vitalsigns"
          ]
        },
        "category": [
          {
            "coding": [
              {
                "system": "http://terminology.hl7.org/CodeSystem/observation-category",
                "code": "vital-signs",
                "display": "Vital Signs"
              }
            ]
          }
        ],
        "valueQuantity": {
          "value": 111,
          "code": "mm[Hg]",
          "unit": "mm[Hg]"
        },
        "text": {
          "status": "generated",
          "div": "<div xmlns=\"http://www.w3.org/1999/xhtml\"><table class=\"hl7__ips\"><tr><th>Vital Sign</th><th>Date</th><th>Measurement</th></tr><tr><td>Systolic Blood Pressure</td><td>18-Apr-2025</td><td>111 mm[Hg]</td></tr></table></div>"
        },
        "status": "final",
        "code": {
          "coding": [
            {
              "code": "$8480-6",
              "system": "http://loinc.org",
              "display": "Systolic Blood Pressure"
            }
          ]
        },
        "subject": {
          "reference": "urn:uuid:4b9df938-bbd8-48c1-a7cd-660c114349b9",
          "display": "Bethany Begum"
        },
        "effectiveDateTime": "2025-04-18"
      }
    },
    {
      "fullUrl": "urn:uuid:b2015fa5-0363-4ad5-98d4-8701fcd0df37",
      "resource": {
        "resourceType": "Observation",
        "id": "b2015fa5-0363-4ad5-98d4-8701fcd0df37",
        "meta": {
          "profile": [
            "http://hl7.org/fhir/StructureDefinition/vitalsigns"
          ]
        },
        "category": [
          {
            "coding": [
              {
                "system": "http://terminology.hl7.org/CodeSystem/observation-category",
                "code": "vital-signs",
                "display": "Vital Signs"
              }
            ]
          }
        ],
        "valueQuantity": {
          "value": 100,
          "code": "/min",
          "unit": "/min"
        },
        "text": {
          "status": "generated",
          "div": "<div xmlns=\"http://www.w3.org/1999/xhtml\"><table class=\"hl7__ips\"><tr><th>Vital Sign</th><th>Date</th><th>Measurement</th></tr><tr><td>Heart rate</td><td>18-Apr-2025</td><td>100 /min</td></tr></table></div>"
        },
        "status": "final",
        "code": {
          "coding": [
            {
              "code": "$8867-4",
              "system": "http://loinc.org",
              "display": "Heart rate"
            }
          ]
        },
        "subject": {
          "reference": "urn:uuid:4b9df938-bbd8-48c1-a7cd-660c114349b9",
          "display": "Bethany Begum"
        },
        "effectiveDateTime": "2025-04-18"
      }
    },
    {
      "fullUrl": "urn:uuid:1fbec35d-29cb-4d22-a2d7-3d726aa387f2",
      "resource": {
        "resourceType": "Observation",
        "id": "1fbec35d-29cb-4d22-a2d7-3d726aa387f2",
        "meta": {
          "profile": [
            "http://hl7.org/fhir/StructureDefinition/vitalsigns"
          ]
        },
        "category": [
          {
            "coding": [
              {
                "system": "http://terminology.hl7.org/CodeSystem/observation-category",
                "code": "vital-signs",
                "display": "Vital Signs"
              }
            ]
          }
        ],
        "valueQuantity": {
          "value": 16,
          "code": "/min",
          "unit": "/min"
        },
        "text": {
          "status": "generated",
          "div": "<div xmlns=\"http://www.w3.org/1999/xhtml\"><table class=\"hl7__ips\"><tr><th>Vital Sign</th><th>Date</th><th>Measurement</th></tr><tr><td>Respiratory rate</td><td>18-Apr-2025</td><td>16 /min</td></tr></table></div>"
        },
        "status": "final",
        "code": {
          "coding": [
            {
              "code": "$9279-1",
              "system": "http://loinc.org",
              "display": "Respiratory rate"
            }
          ]
        },
        "subject": {
          "reference": "urn:uuid:4b9df938-bbd8-48c1-a7cd-660c114349b9",
          "display": "Bethany Begum"
        },
        "effectiveDateTime": "2025-04-18"
      }
    },
    {
      "fullUrl": "urn:uuid:a749f1ff-00e8-43f3-9b37-95c729f0f473",
      "resource": {
        "resourceType": "Observation",
        "id": "a749f1ff-00e8-43f3-9b37-95c729f0f473",
        "meta": {
          "profile": [
            "http://hl7.org/fhir/StructureDefinition/vitalsigns"
          ]
        },
        "category": [
          {
            "coding": [
              {
                "system": "http://terminology.hl7.org/CodeSystem/observation-category",
                "code": "vital-signs",
                "display": "Vital Signs"
              }
            ]
          }
        ],
        "valueQuantity": {
          "value": 151.1,
          "code": "cm",
          "unit": "cm"
        },
        "text": {
          "status": "generated",
          "div": "<div xmlns=\"http://www.w3.org/1999/xhtml\"><table class=\"hl7__ips\"><tr><th>Vital Sign</th><th>Date</th><th>Measurement</th></tr><tr><td>Body Height</td><td>12-Apr-2024</td><td>151.1 cm</td></tr></table></div>"
        },
        "status": "final",
        "code": {
          "coding": [
            {
              "code": "$8302-2",
              "system": "http://loinc.org",
              "display": "Body Height"
            }
          ]
        },
        "subject": {
          "reference": "urn:uuid:4b9df938-bbd8-48c1-a7cd-660c114349b9",
          "display": "Bethany Begum"
        },
        "effectiveDateTime": "2024-04-12"
      }
    },
    {
      "fullUrl": "urn:uuid:2ced5692-28c0-4f37-927f-33684ee47558",
      "resource": {
        "resourceType": "Observation",
        "id": "2ced5692-28c0-4f37-927f-33684ee47558",
        "meta": {
          "profile": [
            "http://hl7.org/fhir/StructureDefinition/vitalsigns"
          ]
        },
        "category": [
          {
            "coding": [
              {
                "system": "http://terminology.hl7.org/CodeSystem/observation-category",
                "code": "vital-signs",
                "display": "Vital Signs"
              }
            ]
          }
        ],
        "valueQuantity": {
          "value": 1,
          "code": "{score}",
          "unit": "{score}"
        },
        "text": {
          "status": "generated",
          "div": "<div xmlns=\"http://www.w3.org/1999/xhtml\"><table class=\"hl7__ips\"><tr><th>Vital Sign</th><th>Date</th><th>Measurement</th></tr><tr><td>Pain severity - 0-10 verbal numeric rating [Score] - Reported</td><td>12-Apr-2024</td><td>1 {score}</td></tr></table></div>"
        },
        "status": "final",
        "code": {
          "coding": [
            {
              "code": "$72514-3",
              "system": "http://loinc.org",
              "display": "Pain severity - 0-10 verbal numeric rating [Score] - Reported"
            }
          ]
        },
        "subject": {
          "reference": "urn:uuid:4b9df938-bbd8-48c1-a7cd-660c114349b9",
          "display": "Bethany Begum"
        },
        "effectiveDateTime": "2024-04-12"
      }
    },
    {
      "fullUrl": "urn:uuid:de6ce78f-29b5-4fe5-9aca-e784ed9128ab",
      "resource": {
        "resourceType": "Observation",
        "id": "de6ce78f-29b5-4fe5-9aca-e784ed9128ab",
        "meta": {
          "profile": [
            "http://hl7.org/fhir/StructureDefinition/vitalsigns"
          ]
        },
        "category": [
          {
            "coding": [
              {
                "system": "http://terminology.hl7.org/CodeSystem/observation-category",
                "code": "vital-signs",
                "display": "Vital Signs"
              }
            ]
          }
        ],
        "valueQuantity": {
          "value": 63.6,
          "code": "kg",
          "unit": "kg"
        },
        "text": {
          "status": "generated",
          "div": "<div xmlns=\"http://www.w3.org/1999/xhtml\"><table class=\"hl7__ips\"><tr><th>Vital Sign</th><th>Date</th><th>Measurement</th></tr><tr><td>Body Weight</td><td>12-Apr-2024</td><td>63.6 kg</td></tr></table></div>"
        },
        "status": "final",
        "code": {
          "coding": [
            {
              "code": "$29463-7",
              "system": "http://loinc.org",
              "display": "Body Weight"
            }
          ]
        },
        "subject": {
          "reference": "urn:uuid:4b9df938-bbd8-48c1-a7cd-660c114349b9",
          "display": "Bethany Begum"
        },
        "effectiveDateTime": "2024-04-12"
      }
    },
    {
      "fullUrl": "urn:uuid:c270b345-67db-4b55-88bf-a4d65596ea33",
      "resource": {
        "resourceType": "Observation",
        "id": "c270b345-67db-4b55-88bf-a4d65596ea33",
        "meta": {
          "profile": [
            "http://hl7.org/fhir/StructureDefinition/vitalsigns"
          ]
        },
        "category": [
          {
            "coding": [
              {
                "system": "http://terminology.hl7.org/CodeSystem/observation-category",
                "code": "vital-signs",
                "display": "Vital Signs"
              }
            ]
          }
        ],
        "valueQuantity": {
          "value": 27.9,
          "code": "kg/m2",
          "unit": "kg/m2"
        },
        "text": {
          "status": "generated",
          "div": "<div xmlns=\"http://www.w3.org/1999/xhtml\"><table class=\"hl7__ips\"><tr><th>Vital Sign</th><th>Date</th><th>Measurement</th></tr><tr><td>Body mass index (BMI) [Ratio]</td><td>12-Apr-2024</td><td>27.9 kg/m2</td></tr></table></div>"
        },
        "status": "final",
        "code": {
          "coding": [
            {
              "code": "$39156-5",
              "system": "http://loinc.org",
              "display": "Body mass index (BMI) [Ratio]"
            }
          ]
        },
        "subject": {
          "reference": "urn:uuid:4b9df938-bbd8-48c1-a7cd-660c114349b9",
          "display": "Bethany Begum"
        },
        "effectiveDateTime": "2024-04-12"
      }
    },
    {
      "fullUrl": "urn:uuid:3149a9a0-0c80-4d7d-ad03-f6aa81de1642",
      "resource": {
        "resourceType": "Observation",
        "id": "3149a9a0-0c80-4d7d-ad03-f6aa81de1642",
        "meta": {
          "profile": [
            "http://hl7.org/fhir/StructureDefinition/vitalsigns"
          ]
        },
        "category": [
          {
            "coding": [
              {
                "system": "http://terminology.hl7.org/CodeSystem/observation-category",
                "code": "vital-signs",
                "display": "Vital Signs"
              }
            ]
          }
        ],
        "valueQuantity": {
          "value": 82,
          "code": "mm[Hg]",
          "unit": "mm[Hg]"
        },
        "text": {
          "status": "generated",
          "div": "<div xmlns=\"http://www.w3.org/1999/xhtml\"><table class=\"hl7__ips\"><tr><th>Vital Sign</th><th>Date</th><th>Measurement</th></tr><tr><td>Diastolic Blood Pressure</td><td>12-Apr-2024</td><td>82 mm[Hg]</td></tr></table></div>"
        },
        "status": "final",
        "code": {
          "coding": [
            {
              "code": "$8462-4",
              "system": "http://loinc.org",
              "display": "Diastolic Blood Pressure"
            }
          ]
        },
        "subject": {
          "reference": "urn:uuid:4b9df938-bbd8-48c1-a7cd-660c114349b9",
          "display": "Bethany Begum"
        },
        "effectiveDateTime": "2024-04-12"
      }
    },
    {
      "fullUrl": "urn:uuid:644662bf-b65b-4554-be9d-a7fe14a54023",
      "resource": {
        "resourceType": "Observation",
        "id": "644662bf-b65b-4554-be9d-a7fe14a54023",
        "meta": {
          "profile": [
            "http://hl7.org/fhir/StructureDefinition/vitalsigns"
          ]
        },
        "category": [
          {
            "coding": [
              {
                "system": "http://terminology.hl7.org/CodeSystem/observation-category",
                "code": "vital-signs",
                "display": "Vital Signs"
              }
            ]
          }
        ],
        "valueQuantity": {
          "value": 106,
          "code": "mm[Hg]",
          "unit": "mm[Hg]"
        },
        "text": {
          "status": "generated",
          "div": "<div xmlns=\"http://www.w3.org/1999/xhtml\"><table class=\"hl7__ips\"><tr><th>Vital Sign</th><th>Date</th><th>Measurement</th></tr><tr><td>Systolic Blood Pressure</td><td>12-Apr-2024</td><td>106 mm[Hg]</td></tr></table></div>"
        },
        "status": "final",
        "code": {
          "coding": [
            {
              "code": "$8480-6",
              "system": "http://loinc.org",
              "display": "Systolic Blood Pressure"
            }
          ]
        },
        "subject": {
          "reference": "urn:uuid:4b9df938-bbd8-48c1-a7cd-660c114349b9",
          "display": "Bethany Begum"
        },
        "effectiveDateTime": "2024-04-12"
      }
    },
    {
      "fullUrl": "urn:uuid:b357a67c-496b-461e-baa2-abfb4e7bf9bc",
      "resource": {
        "resourceType": "Observation",
        "id": "b357a67c-496b-461e-baa2-abfb4e7bf9bc",
        "meta": {
          "profile": [
            "http://hl7.org/fhir/StructureDefinition/vitalsigns"
          ]
        },
        "category": [
          {
            "coding": [
              {
                "system": "http://terminology.hl7.org/CodeSystem/observation-category",
                "code": "vital-signs",
                "display": "Vital Signs"
              }
            ]
          }
        ],
        "valueQuantity": {
          "value": 95,
          "code": "/min",
          "unit": "/min"
        },
        "text": {
          "status": "generated",
          "div": "<div xmlns=\"http://www.w3.org/1999/xhtml\"><table class=\"hl7__ips\"><tr><th>Vital Sign</th><th>Date</th><th>Measurement</th></tr><tr><td>Heart rate</td><td>12-Apr-2024</td><td>95 /min</td></tr></table></div>"
        },
        "status": "final",
        "code": {
          "coding": [
            {
              "code": "$8867-4",
              "system": "http://loinc.org",
              "display": "Heart rate"
            }
          ]
        },
        "subject": {
          "reference": "urn:uuid:4b9df938-bbd8-48c1-a7cd-660c114349b9",
          "display": "Bethany Begum"
        },
        "effectiveDateTime": "2024-04-12"
      }
    },
    {
      "fullUrl": "urn:uuid:f0ffcb3f-0d78-4c00-967d-eca3d02355cb",
      "resource": {
        "resourceType": "Observation",
        "id": "f0ffcb3f-0d78-4c00-967d-eca3d02355cb",
        "meta": {
          "profile": [
            "http://hl7.org/fhir/StructureDefinition/vitalsigns"
          ]
        },
        "category": [
          {
            "coding": [
              {
                "system": "http://terminology.hl7.org/CodeSystem/observation-category",
                "code": "vital-signs",
                "display": "Vital Signs"
              }
            ]
          }
        ],
        "valueQuantity": {
          "value": 15,
          "code": "/min",
          "unit": "/min"
        },
        "text": {
          "status": "generated",
          "div": "<div xmlns=\"http://www.w3.org/1999/xhtml\"><table class=\"hl7__ips\"><tr><th>Vital Sign</th><th>Date</th><th>Measurement</th></tr><tr><td>Respiratory rate</td><td>12-Apr-2024</td><td>15 /min</td></tr></table></div>"
        },
        "status": "final",
        "code": {
          "coding": [
            {
              "code": "$9279-1",
              "system": "http://loinc.org",
              "display": "Respiratory rate"
            }
          ]
        },
        "subject": {
          "reference": "urn:uuid:4b9df938-bbd8-48c1-a7cd-660c114349b9",
          "display": "Bethany Begum"
        },
        "effectiveDateTime": "2024-04-12"
      }
    },
    {
      "fullUrl": "urn:uuid:52d071f0-0b33-4ef2-8bab-28d8673b8d46",
      "resource": {
        "resourceType": "Observation",
        "id": "52d071f0-0b33-4ef2-8bab-28d8673b8d46",
        "meta": {
          "profile": [
            "http://hl7.eu/fhir/laboratory/StructureDefinition/Observation-resultslab-eu-lab"
          ]
        },
        "performer": [
          {
            "display": "The Central European Lab"
          }
        ],
        "category": [
          {
            "coding": [
              {
                "system": "http://terminology.hl7.org/CodeSystem/observation-category",
                "code": "laboratory"
              }
            ]
          }
        ],
        "code": {
          "coding": [
            {
              "code": "2339-0",
              "system": "http://loinc.org",
              "display": "Glucose [Mass/volume] in Blood"
            }
          ],
          "text": "Glucose [Mass/volume] in Blood"
        },
        "valueQuantity": {
          "system": "http://unitsofmeasure.org",
          "value": 73.9,
          "unit": "mg/dL",
          "code": "mg/dL"
        },
        "referenceRange": [
          {
            "low": {
              "value": 70,
              "code": "mg/dL",
              "system": "http://unitsofmeasure.org"
            }
          },
          {
            "high": {
              "value": 140,
              "code": "mg/dL",
              "system": "http://unitsofmeasure.org"
            }
          }
        ],
        "text": {
          "status": "generated",
          "div": "<div xmlns=\"http://www.w3.org/1999/xhtml\"><table class=\"hl7__eu__lab__report\"><tr><th>Test</th><th>03-May-2025</th><th>Reference&#xA0;Range</th><th>Unit</th></tr><tr><td>Glucose [Mass/volume] in Blood</td><td>73.9</td><td>70 - 140</td><td></td><td>mg/dL</td></tr></table></div>"
        },
        "status": "final",
        "subject": {
          "reference": "urn:uuid:4b9df938-bbd8-48c1-a7cd-660c114349b9",
          "display": "Bethany Begum"
        },
        "effectiveDateTime": "2025-05-03T11:40:40Z"
      }
    },
    {
      "fullUrl": "urn:uuid:3ab60b58-916e-4aeb-9da8-354aa4ccaef7",
      "resource": {
        "resourceType": "Observation",
        "id": "3ab60b58-916e-4aeb-9da8-354aa4ccaef7",
        "meta": {
          "profile": [
            "http://hl7.eu/fhir/laboratory/StructureDefinition/Observation-resultslab-eu-lab"
          ]
        },
        "performer": [
          {
            "display": "The Central European Lab"
          }
        ],
        "category": [
          {
            "coding": [
              {
                "system": "http://terminology.hl7.org/CodeSystem/observation-category",
                "code": "laboratory"
              }
            ]
          }
        ],
        "code": {
          "coding": [
            {
              "code": "6299-2",
              "system": "http://loinc.org",
              "display": "Urea nitrogen [Mass/volume] in Blood"
            }
          ],
          "text": "Urea nitrogen [Mass/volume] in Blood"
        },
        "valueQuantity": {
          "system": "http://unitsofmeasure.org",
          "value": 15.3,
          "unit": "mg/dL",
          "code": "mg/dL"
        },
        "referenceRange": [
          {
            "low": {
              "value": 7,
              "code": "mg/dL",
              "system": "http://unitsofmeasure.org"
            }
          },
          {
            "high": {
              "value": 25,
              "code": "mg/dL",
              "system": "http://unitsofmeasure.org"
            }
          }
        ],
        "text": {
          "status": "generated",
          "div": "<div xmlns=\"http://www.w3.org/1999/xhtml\"><table class=\"hl7__eu__lab__report\"><tr><th>Test</th><th>03-May-2025</th><th>Reference&#xA0;Range</th><th>Unit</th></tr><tr><td>Urea nitrogen [Mass/volume] in Blood</td><td>15.3</td><td>7 - 25</td><td></td><td>mg/dL</td></tr></table></div>"
        },
        "status": "final",
        "subject": {
          "reference": "urn:uuid:4b9df938-bbd8-48c1-a7cd-660c114349b9",
          "display": "Bethany Begum"
        },
        "effectiveDateTime": "2025-05-03T11:40:40Z"
      }
    },
    {
      "fullUrl": "urn:uuid:1bfc1a41-ccb6-4395-90cd-8d106e816f53",
      "resource": {
        "resourceType": "Observation",
        "id": "1bfc1a41-ccb6-4395-90cd-8d106e816f53",
        "meta": {
          "profile": [
            "http://hl7.eu/fhir/laboratory/StructureDefinition/Observation-resultslab-eu-lab"
          ]
        },
        "performer": [
          {
            "display": "The Central European Lab"
          }
        ],
        "category": [
          {
            "coding": [
              {
                "system": "http://terminology.hl7.org/CodeSystem/observation-category",
                "code": "laboratory"
              }
            ]
          }
        ],
        "code": {
          "coding": [
            {
              "code": "38483-4",
              "system": "http://loinc.org",
              "display": "Creatinine [Mass/volume] in Blood"
            }
          ],
          "text": "Creatinine [Mass/volume] in Blood"
        },
        "valueQuantity": {
          "system": "http://unitsofmeasure.org",
          "value": 3.4,
          "unit": "mg/dL",
          "code": "mg/dL"
        },
        "referenceRange": [
          {
            "low": {
              "value": 0.6,
              "code": "mg/dL",
              "system": "http://unitsofmeasure.org"
            }
          },
          {
            "high": {
              "value": 1.3,
              "code": "mg/dL",
              "system": "http://unitsofmeasure.org"
            }
          }
        ],
        "interpretation": [
          {
            "coding": [
              {
                "code": "H",
                "system": "http://terminology.hl7.org/CodeSystem/v3-ObservationInterpretation",
                "display": "High"
              }
            ]
          }
        ],
        "text": {
          "status": "generated",
          "div": "<div xmlns=\"http://www.w3.org/1999/xhtml\"><table class=\"hl7__eu__lab__report\"><tr><th>Test</th><th>03-May-2025</th><th>Reference&#xA0;Range</th><th>Unit</th></tr><tr><td>Creatinine [Mass/volume] in Blood</td><td>3.4</td><td>0.6 - 1.3</td><td>H</td><td>mg/dL</td></tr></table></div>"
        },
        "status": "final",
        "subject": {
          "reference": "urn:uuid:4b9df938-bbd8-48c1-a7cd-660c114349b9",
          "display": "Bethany Begum"
        },
        "effectiveDateTime": "2025-05-03T11:40:40Z"
      }
    },
    {
      "fullUrl": "urn:uuid:e4123f08-8af4-49de-b1ea-b4cc4ee2891a",
      "resource": {
        "resourceType": "Observation",
        "id": "e4123f08-8af4-49de-b1ea-b4cc4ee2891a",
        "meta": {
          "profile": [
            "http://hl7.eu/fhir/laboratory/StructureDefinition/Observation-resultslab-eu-lab"
          ]
        },
        "performer": [
          {
            "display": "The Central European Lab"
          }
        ],
        "category": [
          {
            "coding": [
              {
                "system": "http://terminology.hl7.org/CodeSystem/observation-category",
                "code": "laboratory"
              }
            ]
          }
        ],
        "code": {
          "coding": [
            {
              "code": "49765-1",
              "system": "http://loinc.org",
              "display": "Calcium [Mass/volume] in Blood"
            }
          ],
          "text": "Calcium [Mass/volume] in Blood"
        },
        "valueQuantity": {
          "system": "http://unitsofmeasure.org",
          "value": 9.7,
          "unit": "mg/dL",
          "code": "mg/dL"
        },
        "referenceRange": [
          {
            "low": {
              "value": 8.5,
              "code": "mg/dL",
              "system": "http://unitsofmeasure.org"
            }
          },
          {
            "high": {
              "value": 10.5,
              "code": "mg/dL",
              "system": "http://unitsofmeasure.org"
            }
          }
        ],
        "text": {
          "status": "generated",
          "div": "<div xmlns=\"http://www.w3.org/1999/xhtml\"><table class=\"hl7__eu__lab__report\"><tr><th>Test</th><th>03-May-2025</th><th>Reference&#xA0;Range</th><th>Unit</th></tr><tr><td>Calcium [Mass/volume] in Blood</td><td>9.7</td><td>8.5 - 10.5</td><td></td><td>mg/dL</td></tr></table></div>"
        },
        "status": "final",
        "subject": {
          "reference": "urn:uuid:4b9df938-bbd8-48c1-a7cd-660c114349b9",
          "display": "Bethany Begum"
        },
        "effectiveDateTime": "2025-05-03T11:40:40Z"
      }
    },
    {
      "fullUrl": "urn:uuid:23ef9bec-f715-4049-a435-8d1cff0834f8",
      "resource": {
        "resourceType": "Observation",
        "id": "23ef9bec-f715-4049-a435-8d1cff0834f8",
        "meta": {
          "profile": [
            "http://hl7.eu/fhir/laboratory/StructureDefinition/Observation-resultslab-eu-lab"
          ]
        },
        "performer": [
          {
            "display": "The Central European Lab"
          }
        ],
        "category": [
          {
            "coding": [
              {
                "system": "http://terminology.hl7.org/CodeSystem/observation-category",
                "code": "laboratory"
              }
            ]
          }
        ],
        "code": {
          "coding": [
            {
              "code": "2947-0",
              "system": "http://loinc.org",
              "display": "Sodium [Moles/volume] in Blood"
            }
          ],
          "text": "Sodium [Moles/volume] in Blood"
        },
        "valueQuantity": {
          "system": "http://unitsofmeasure.org",
          "value": 137.4,
          "unit": "mmol/L",
          "code": "mmol/L"
        },
        "referenceRange": [
          {
            "low": {
              "value": 135,
              "code": "mmol/L",
              "system": "http://unitsofmeasure.org"
            }
          },
          {
            "high": {
              "value": 145,
              "code": "mmol/L",
              "system": "http://unitsofmeasure.org"
            }
          }
        ],
        "text": {
          "status": "generated",
          "div": "<div xmlns=\"http://www.w3.org/1999/xhtml\"><table class=\"hl7__eu__lab__report\"><tr><th>Test</th><th>03-May-2025</th><th>Reference&#xA0;Range</th><th>Unit</th></tr><tr><td>Sodium [Moles/volume] in Blood</td><td>137.4</td><td>135 - 145</td><td></td><td>mmol/L</td></tr></table></div>"
        },
        "status": "final",
        "subject": {
          "reference": "urn:uuid:4b9df938-bbd8-48c1-a7cd-660c114349b9",
          "display": "Bethany Begum"
        },
        "effectiveDateTime": "2025-05-03T11:40:40Z"
      }
    },
    {
      "fullUrl": "urn:uuid:0beb0630-a8a4-4e6d-ba24-c3f59bd1634a",
      "resource": {
        "resourceType": "Observation",
        "id": "0beb0630-a8a4-4e6d-ba24-c3f59bd1634a",
        "meta": {
          "profile": [
            "http://hl7.eu/fhir/laboratory/StructureDefinition/Observation-resultslab-eu-lab"
          ]
        },
        "performer": [
          {
            "display": "The Central European Lab"
          }
        ],
        "category": [
          {
            "coding": [
              {
                "system": "http://terminology.hl7.org/CodeSystem/observation-category",
                "code": "laboratory"
              }
            ]
          }
        ],
        "code": {
          "coding": [
            {
              "code": "6298-4",
              "system": "http://loinc.org",
              "display": "Potassium [Moles/volume] in Blood"
            }
          ],
          "text": "Potassium [Moles/volume] in Blood"
        },
        "valueQuantity": {
          "system": "http://unitsofmeasure.org",
          "value": 4.3,
          "unit": "mmol/L",
          "code": "mmol/L"
        },
        "referenceRange": [
          {
            "low": {
              "value": 3.5,
              "code": "mmol/L",
              "system": "http://unitsofmeasure.org"
            }
          },
          {
            "high": {
              "value": 5.1,
              "code": "mmol/L",
              "system": "http://unitsofmeasure.org"
            }
          }
        ],
        "text": {
          "status": "generated",
          "div": "<div xmlns=\"http://www.w3.org/1999/xhtml\"><table class=\"hl7__eu__lab__report\"><tr><th>Test</th><th>03-May-2025</th><th>Reference&#xA0;Range</th><th>Unit</th></tr><tr><td>Potassium [Moles/volume] in Blood</td><td>4.3</td><td>3.5 - 5.1</td><td></td><td>mmol/L</td></tr></table></div>"
        },
        "status": "final",
        "subject": {
          "reference": "urn:uuid:4b9df938-bbd8-48c1-a7cd-660c114349b9",
          "display": "Bethany Begum"
        },
        "effectiveDateTime": "2025-05-03T11:40:40Z"
      }
    },
    {
      "fullUrl": "urn:uuid:dc6b3397-fbea-4dbc-a8bf-c7fc4e8293a3",
      "resource": {
        "resourceType": "Observation",
        "id": "dc6b3397-fbea-4dbc-a8bf-c7fc4e8293a3",
        "meta": {
          "profile": [
            "http://hl7.eu/fhir/laboratory/StructureDefinition/Observation-resultslab-eu-lab"
          ]
        },
        "performer": [
          {
            "display": "The Central European Lab"
          }
        ],
        "category": [
          {
            "coding": [
              {
                "system": "http://terminology.hl7.org/CodeSystem/observation-category",
                "code": "laboratory"
              }
            ]
          }
        ],
        "code": {
          "coding": [
            {
              "code": "2069-3",
              "system": "http://loinc.org",
              "display": "Chloride [Moles/volume] in Blood"
            }
          ],
          "text": "Chloride [Moles/volume] in Blood"
        },
        "valueQuantity": {
          "system": "http://unitsofmeasure.org",
          "value": 105.7,
          "unit": "mmol/L",
          "code": "mmol/L"
        },
        "referenceRange": [
          {
            "low": {
              "value": 98,
              "code": "mmol/L",
              "system": "http://unitsofmeasure.org"
            }
          },
          {
            "high": {
              "value": 108,
              "code": "mmol/L",
              "system": "http://unitsofmeasure.org"
            }
          }
        ],
        "text": {
          "status": "generated",
          "div": "<div xmlns=\"http://www.w3.org/1999/xhtml\"><table class=\"hl7__eu__lab__report\"><tr><th>Test</th><th>03-May-2025</th><th>Reference&#xA0;Range</th><th>Unit</th></tr><tr><td>Chloride [Moles/volume] in Blood</td><td>105.7</td><td>98 - 108</td><td></td><td>mmol/L</td></tr></table></div>"
        },
        "status": "final",
        "subject": {
          "reference": "urn:uuid:4b9df938-bbd8-48c1-a7cd-660c114349b9",
          "display": "Bethany Begum"
        },
        "effectiveDateTime": "2025-05-03T11:40:40Z"
      }
    },
    {
      "fullUrl": "urn:uuid:440b6e1d-e8d4-46cd-90b6-ec3e08bf5f0c",
      "resource": {
        "resourceType": "Observation",
        "id": "440b6e1d-e8d4-46cd-90b6-ec3e08bf5f0c",
        "meta": {
          "profile": [
            "http://hl7.eu/fhir/laboratory/StructureDefinition/Observation-resultslab-eu-lab"
          ]
        },
        "performer": [
          {
            "display": "The Central European Lab"
          }
        ],
        "category": [
          {
            "coding": [
              {
                "system": "http://terminology.hl7.org/CodeSystem/observation-category",
                "code": "laboratory"
              }
            ]
          }
        ],
        "code": {
          "coding": [
            {
              "code": "20565-8",
              "system": "http://loinc.org",
              "display": "Carbon dioxide, total [Moles/volume] in Blood"
            }
          ],
          "text": "Carbon dioxide, total [Moles/volume] in Blood"
        },
        "valueQuantity": {
          "system": "http://unitsofmeasure.org",
          "value": 24.3,
          "unit": "mmol/L",
          "code": "mmol/L"
        },
        "referenceRange": [
          {
            "low": {
              "value": 22,
              "code": "mmol/L",
              "system": "http://unitsofmeasure.org"
            }
          },
          {
            "high": {
              "value": 29,
              "code": "mmol/L",
              "system": "http://unitsofmeasure.org"
            }
          }
        ],
        "text": {
          "status": "generated",
          "div": "<div xmlns=\"http://www.w3.org/1999/xhtml\"><table class=\"hl7__eu__lab__report\"><tr><th>Test</th><th>03-May-2025</th><th>Reference&#xA0;Range</th><th>Unit</th></tr><tr><td>Carbon dioxide, total [Moles/volume] in Blood</td><td>24.3</td><td>22 - 29</td><td></td><td>mmol/L</td></tr></table></div>"
        },
        "status": "final",
        "subject": {
          "reference": "urn:uuid:4b9df938-bbd8-48c1-a7cd-660c114349b9",
          "display": "Bethany Begum"
        },
        "effectiveDateTime": "2025-05-03T11:40:40Z"
      }
    },
    {
      "fullUrl": "urn:uuid:35354f88-9365-4cc3-b293-698f0ac5355c",
      "resource": {
        "resourceType": "Observation",
        "id": "35354f88-9365-4cc3-b293-698f0ac5355c",
        "meta": {
          "profile": [
            "http://hl7.eu/fhir/laboratory/StructureDefinition/Observation-resultslab-eu-lab"
          ]
        },
        "performer": [
          {
            "display": "The Central European Lab"
          }
        ],
        "category": [
          {
            "coding": [
              {
                "system": "http://terminology.hl7.org/CodeSystem/observation-category",
                "code": "laboratory"
              }
            ]
          }
        ],
        "code": {
          "coding": [
            {
              "code": "2885-2",
              "system": "http://loinc.org",
              "display": "Protein [Mass/volume] in Serum or Plasma"
            }
          ],
          "text": "Protein [Mass/volume] in Serum or Plasma"
        },
        "valueQuantity": {
          "system": "http://unitsofmeasure.org",
          "value": 7.8,
          "unit": "g/dL",
          "code": "g/dL"
        },
        "referenceRange": [
          {
            "low": {
              "value": 6.3,
              "code": "g/dL",
              "system": "http://unitsofmeasure.org"
            }
          },
          {
            "high": {
              "value": 8.3,
              "code": "g/dL",
              "system": "http://unitsofmeasure.org"
            }
          }
        ],
        "text": {
          "status": "generated",
          "div": "<div xmlns=\"http://www.w3.org/1999/xhtml\"><table class=\"hl7__eu__lab__report\"><tr><th>Test</th><th>03-May-2025</th><th>Reference&#xA0;Range</th><th>Unit</th></tr><tr><td>Protein [Mass/volume] in Serum or Plasma</td><td>7.8</td><td>6.3 - 8.3</td><td></td><td>g/dL</td></tr></table></div>"
        },
        "status": "final",
        "subject": {
          "reference": "urn:uuid:4b9df938-bbd8-48c1-a7cd-660c114349b9",
          "display": "Bethany Begum"
        },
        "effectiveDateTime": "2025-05-03T11:40:40Z"
      }
    },
    {
      "fullUrl": "urn:uuid:574e5e3d-c070-40b3-b2f7-782723fdf192",
      "resource": {
        "resourceType": "Observation",
        "id": "574e5e3d-c070-40b3-b2f7-782723fdf192",
        "meta": {
          "profile": [
            "http://hl7.eu/fhir/laboratory/StructureDefinition/Observation-resultslab-eu-lab"
          ]
        },
        "performer": [
          {
            "display": "The Central European Lab"
          }
        ],
        "category": [
          {
            "coding": [
              {
                "system": "http://terminology.hl7.org/CodeSystem/observation-category",
                "code": "laboratory"
              }
            ]
          }
        ],
        "code": {
          "coding": [
            {
              "code": "1751-7",
              "system": "http://loinc.org",
              "display": "Albumin [Mass/volume] in Serum or Plasma"
            }
          ],
          "text": "Albumin [Mass/volume] in Serum or Plasma"
        },
        "valueQuantity": {
          "system": "http://unitsofmeasure.org",
          "value": 4.8,
          "unit": "g/dL",
          "code": "g/dL"
        },
        "referenceRange": [
          {
            "low": {
              "value": 3.5,
              "code": "g/dL",
              "system": "http://unitsofmeasure.org"
            }
          },
          {
            "high": {
              "value": 5.5,
              "code": "g/dL",
              "system": "http://unitsofmeasure.org"
            }
          }
        ],
        "text": {
          "status": "generated",
          "div": "<div xmlns=\"http://www.w3.org/1999/xhtml\"><table class=\"hl7__eu__lab__report\"><tr><th>Test</th><th>03-May-2025</th><th>Reference&#xA0;Range</th><th>Unit</th></tr><tr><td>Albumin [Mass/volume] in Serum or Plasma</td><td>4.8</td><td>3.5 - 5.5</td><td></td><td>g/dL</td></tr></table></div>"
        },
        "status": "final",
        "subject": {
          "reference": "urn:uuid:4b9df938-bbd8-48c1-a7cd-660c114349b9",
          "display": "Bethany Begum"
        },
        "effectiveDateTime": "2025-05-03T11:40:40Z"
      }
    },
    {
      "fullUrl": "urn:uuid:d6609bcc-def6-45be-84ff-54096656e71a",
      "resource": {
        "resourceType": "Observation",
        "id": "d6609bcc-def6-45be-84ff-54096656e71a",
        "meta": {
          "profile": [
            "http://hl7.eu/fhir/laboratory/StructureDefinition/Observation-resultslab-eu-lab"
          ]
        },
        "performer": [
          {
            "display": "The Central European Lab"
          }
        ],
        "category": [
          {
            "coding": [
              {
                "system": "http://terminology.hl7.org/CodeSystem/observation-category",
                "code": "laboratory"
              }
            ]
          }
        ],
        "code": {
          "coding": [
            {
              "code": "10834-0",
              "system": "http://loinc.org",
              "display": "Globulin [Mass/volume] in Serum by calculation"
            }
          ],
          "text": "Globulin [Mass/volume] in Serum by calculation"
        },
        "valueQuantity": {
          "system": "http://unitsofmeasure.org",
          "value": 3.2,
          "unit": "g/L",
          "code": "g/L"
        },
        "referenceRange": [
          {
            "low": {
              "value": 2,
              "code": "g/L",
              "system": "http://unitsofmeasure.org"
            }
          },
          {
            "high": {
              "value": 3.9,
              "code": "g/L",
              "system": "http://unitsofmeasure.org"
            }
          }
        ],
        "text": {
          "status": "generated",
          "div": "<div xmlns=\"http://www.w3.org/1999/xhtml\"><table class=\"hl7__eu__lab__report\"><tr><th>Test</th><th>03-May-2025</th><th>Reference&#xA0;Range</th><th>Unit</th></tr><tr><td>Globulin [Mass/volume] in Serum by calculation</td><td>3.2</td><td>2 - 3.9</td><td></td><td>g/L</td></tr></table></div>"
        },
        "status": "final",
        "subject": {
          "reference": "urn:uuid:4b9df938-bbd8-48c1-a7cd-660c114349b9",
          "display": "Bethany Begum"
        },
        "effectiveDateTime": "2025-05-03T11:40:40Z"
      }
    },
    {
      "fullUrl": "urn:uuid:0b63cdb0-b79b-4fc9-95a7-b5cfd68d1f57",
      "resource": {
        "resourceType": "Observation",
        "id": "0b63cdb0-b79b-4fc9-95a7-b5cfd68d1f57",
        "meta": {
          "profile": [
            "http://hl7.eu/fhir/laboratory/StructureDefinition/Observation-resultslab-eu-lab"
          ]
        },
        "performer": [
          {
            "display": "The Central European Lab"
          }
        ],
        "category": [
          {
            "coding": [
              {
                "system": "http://terminology.hl7.org/CodeSystem/observation-category",
                "code": "laboratory"
              }
            ]
          }
        ],
        "code": {
          "coding": [
            {
              "code": "1975-2",
              "system": "http://loinc.org",
              "display": "Bilirubin.total [Mass/volume] in Serum or Plasma"
            }
          ],
          "text": "Bilirubin.total [Mass/volume] in Serum or Plasma"
        },
        "valueQuantity": {
          "system": "http://unitsofmeasure.org",
          "value": 0.1,
          "unit": "mg/dL",
          "code": "mg/dL"
        },
        "referenceRange": [
          {
            "low": {
              "value": 0.3,
              "code": "mg/dL",
              "system": "http://unitsofmeasure.org"
            }
          },
          {
            "high": {
              "value": 1.2,
              "code": "mg/dL",
              "system": "http://unitsofmeasure.org"
            }
          }
        ],
        "interpretation": [
          {
            "coding": [
              {
                "code": "L",
                "system": "http://terminology.hl7.org/CodeSystem/v3-ObservationInterpretation",
                "display": "Low"
              }
            ]
          }
        ],
        "text": {
          "status": "generated",
          "div": "<div xmlns=\"http://www.w3.org/1999/xhtml\"><table class=\"hl7__eu__lab__report\"><tr><th>Test</th><th>03-May-2025</th><th>Reference&#xA0;Range</th><th>Unit</th></tr><tr><td>Bilirubin.total [Mass/volume] in Serum or Plasma</td><td>0.1</td><td>0.3 - 1.2</td><td>L</td><td>mg/dL</td></tr></table></div>"
        },
        "status": "final",
        "subject": {
          "reference": "urn:uuid:4b9df938-bbd8-48c1-a7cd-660c114349b9",
          "display": "Bethany Begum"
        },
        "effectiveDateTime": "2025-05-03T11:40:40Z"
      }
    },
    {
      "fullUrl": "urn:uuid:13690a77-f146-4f67-95dd-70e204381383",
      "resource": {
        "resourceType": "Observation",
        "id": "13690a77-f146-4f67-95dd-70e204381383",
        "meta": {
          "profile": [
            "http://hl7.eu/fhir/laboratory/StructureDefinition/Observation-resultslab-eu-lab"
          ]
        },
        "performer": [
          {
            "display": "The Central European Lab"
          }
        ],
        "category": [
          {
            "coding": [
              {
                "system": "http://terminology.hl7.org/CodeSystem/observation-category",
                "code": "laboratory"
              }
            ]
          }
        ],
        "code": {
          "coding": [
            {
              "code": "6768-6",
              "system": "http://loinc.org",
              "display": "Alkaline phosphatase [Enzymatic activity/volume] in Serum or Plasma"
            }
          ],
          "text": "Alkaline phosphatase [Enzymatic activity/volume] in Serum or Plasma"
        },
        "valueQuantity": {
          "system": "http://unitsofmeasure.org",
          "value": 23.2,
          "unit": "U/L",
          "code": "U/L"
        },
        "referenceRange": [
          {
            "low": {
              "value": 32,
              "code": "U/L",
              "system": "http://unitsofmeasure.org"
            }
          },
          {
            "high": {
              "value": 104,
              "code": "U/L",
              "system": "http://unitsofmeasure.org"
            }
          }
        ],
        "interpretation": [
          {
            "coding": [
              {
                "code": "L",
                "system": "http://terminology.hl7.org/CodeSystem/v3-ObservationInterpretation",
                "display": "Low"
              }
            ]
          }
        ],
        "text": {
          "status": "generated",
          "div": "<div xmlns=\"http://www.w3.org/1999/xhtml\"><table class=\"hl7__eu__lab__report\"><tr><th>Test</th><th>03-May-2025</th><th>Reference&#xA0;Range</th><th>Unit</th></tr><tr><td>Alkaline phosphatase [Enzymatic activity/volume] in Serum or Plasma</td><td>23.2</td><td>32 - 104</td><td>L</td><td>U/L</td></tr></table></div>"
        },
        "status": "final",
        "subject": {
          "reference": "urn:uuid:4b9df938-bbd8-48c1-a7cd-660c114349b9",
          "display": "Bethany Begum"
        },
        "effectiveDateTime": "2025-05-03T11:40:40Z"
      }
    },
    {
      "fullUrl": "urn:uuid:be0f4eb3-62f3-4326-9fd6-86678e6dbf50",
      "resource": {
        "resourceType": "Observation",
        "id": "be0f4eb3-62f3-4326-9fd6-86678e6dbf50",
        "meta": {
          "profile": [
            "http://hl7.eu/fhir/laboratory/StructureDefinition/Observation-resultslab-eu-lab"
          ]
        },
        "performer": [
          {
            "display": "The Central European Lab"
          }
        ],
        "category": [
          {
            "coding": [
              {
                "system": "http://terminology.hl7.org/CodeSystem/observation-category",
                "code": "laboratory"
              }
            ]
          }
        ],
        "code": {
          "coding": [
            {
              "code": "1742-6",
              "system": "http://loinc.org",
              "display": "Alanine aminotransferase [Enzymatic activity/volume] in Serum or Plasma"
            }
          ],
          "text": "Alanine aminotransferase [Enzymatic activity/volume] in Serum or Plasma"
        },
        "valueQuantity": {
          "system": "http://unitsofmeasure.org",
          "value": 45.4,
          "unit": "U/L",
          "code": "U/L"
        },
        "referenceRange": [
          {
            "low": {
              "value": 7,
              "code": "U/L",
              "system": "http://unitsofmeasure.org"
            }
          },
          {
            "high": {
              "value": 55,
              "code": "U/L",
              "system": "http://unitsofmeasure.org"
            }
          }
        ],
        "text": {
          "status": "generated",
          "div": "<div xmlns=\"http://www.w3.org/1999/xhtml\"><table class=\"hl7__eu__lab__report\"><tr><th>Test</th><th>03-May-2025</th><th>Reference&#xA0;Range</th><th>Unit</th></tr><tr><td>Alanine aminotransferase [Enzymatic activity/volume] in Serum or Plasma</td><td>45.4</td><td>7 - 55</td><td></td><td>U/L</td></tr></table></div>"
        },
        "status": "final",
        "subject": {
          "reference": "urn:uuid:4b9df938-bbd8-48c1-a7cd-660c114349b9",
          "display": "Bethany Begum"
        },
        "effectiveDateTime": "2025-05-03T11:40:40Z"
      }
    },
    {
      "fullUrl": "urn:uuid:dd4c128e-f297-4b52-bd46-a33576ada40b",
      "resource": {
        "resourceType": "Observation",
        "id": "dd4c128e-f297-4b52-bd46-a33576ada40b",
        "meta": {
          "profile": [
            "http://hl7.eu/fhir/laboratory/StructureDefinition/Observation-resultslab-eu-lab"
          ]
        },
        "performer": [
          {
            "display": "The Central European Lab"
          }
        ],
        "category": [
          {
            "coding": [
              {
                "system": "http://terminology.hl7.org/CodeSystem/observation-category",
                "code": "laboratory"
              }
            ]
          }
        ],
        "code": {
          "coding": [
            {
              "code": "1920-8",
              "system": "http://loinc.org",
              "display": "Aspartate aminotransferase [Enzymatic activity/volume] in Serum or Plasma"
            }
          ],
          "text": "Aspartate aminotransferase [Enzymatic activity/volume] in Serum or Plasma"
        },
        "valueQuantity": {
          "system": "http://unitsofmeasure.org",
          "value": 33.6,
          "unit": "U/L",
          "code": "U/L"
        },
        "referenceRange": [
          {
            "low": {
              "value": 10,
              "code": "U/L",
              "system": "http://unitsofmeasure.org"
            }
          },
          {
            "high": {
              "value": 40,
              "code": "U/L",
              "system": "http://unitsofmeasure.org"
            }
          }
        ],
        "text": {
          "status": "generated",
          "div": "<div xmlns=\"http://www.w3.org/1999/xhtml\"><table class=\"hl7__eu__lab__report\"><tr><th>Test</th><th>03-May-2025</th><th>Reference&#xA0;Range</th><th>Unit</th></tr><tr><td>Aspartate aminotransferase [Enzymatic activity/volume] in Serum or Plasma</td><td>33.6</td><td>10 - 40</td><td></td><td>U/L</td></tr></table></div>"
        },
        "status": "final",
        "subject": {
          "reference": "urn:uuid:4b9df938-bbd8-48c1-a7cd-660c114349b9",
          "display": "Bethany Begum"
        },
        "effectiveDateTime": "2025-05-03T11:40:40Z"
      }
    },
    {
      "fullUrl": "urn:uuid:65cc0d88-9cc2-4ce1-bb61-91815588349e",
      "resource": {
        "resourceType": "Observation",
        "id": "65cc0d88-9cc2-4ce1-bb61-91815588349e",
        "meta": {
          "profile": [
            "http://hl7.eu/fhir/laboratory/StructureDefinition/Observation-resultslab-eu-lab"
          ]
        },
        "performer": [
          {
            "display": "The Central European Lab"
          }
        ],
        "category": [
          {
            "coding": [
              {
                "system": "http://terminology.hl7.org/CodeSystem/observation-category",
                "code": "laboratory"
              }
            ]
          }
        ],
        "code": {
          "coding": [
            {
              "code": "2093-3",
              "system": "http://loinc.org",
              "display": "Cholesterol [Mass/volume] in Serum or Plasma"
            }
          ],
          "text": "Cholesterol [Mass/volume] in Serum or Plasma"
        },
        "valueQuantity": {
          "system": "http://unitsofmeasure.org",
          "value": 208.4,
          "unit": "mg/dL",
          "code": "mg/dL"
        },
        "referenceRange": [
          {
            "low": {
              "value": 125,
              "code": "mg/dL",
              "system": "http://unitsofmeasure.org"
            }
          },
          {
            "high": {
              "value": 200,
              "code": "mg/dL",
              "system": "http://unitsofmeasure.org"
            }
          }
        ],
        "interpretation": [
          {
            "coding": [
              {
                "code": "H",
                "system": "http://terminology.hl7.org/CodeSystem/v3-ObservationInterpretation",
                "display": "High"
              }
            ]
          }
        ],
        "text": {
          "status": "generated",
          "div": "<div xmlns=\"http://www.w3.org/1999/xhtml\"><table class=\"hl7__eu__lab__report\"><tr><th>Test</th><th>03-May-2025</th><th>Reference&#xA0;Range</th><th>Unit</th></tr><tr><td>Cholesterol [Mass/volume] in Serum or Plasma</td><td>208.4</td><td>125 - 200</td><td>H</td><td>mg/dL</td></tr></table></div>"
        },
        "status": "final",
        "subject": {
          "reference": "urn:uuid:4b9df938-bbd8-48c1-a7cd-660c114349b9",
          "display": "Bethany Begum"
        },
        "effectiveDateTime": "2025-05-03T11:40:40Z"
      }
    },
    {
      "fullUrl": "urn:uuid:8bb791c7-8c27-48fc-b499-bdf96eb41543",
      "resource": {
        "resourceType": "Observation",
        "id": "8bb791c7-8c27-48fc-b499-bdf96eb41543",
        "meta": {
          "profile": [
            "http://hl7.eu/fhir/laboratory/StructureDefinition/Observation-resultslab-eu-lab"
          ]
        },
        "performer": [
          {
            "display": "The Central European Lab"
          }
        ],
        "category": [
          {
            "coding": [
              {
                "system": "http://terminology.hl7.org/CodeSystem/observation-category",
                "code": "laboratory"
              }
            ]
          }
        ],
        "code": {
          "coding": [
            {
              "code": "2571-8",
              "system": "http://loinc.org",
              "display": "Triglyceride [Mass/volume] in Serum or Plasma"
            }
          ],
          "text": "Triglyceride [Mass/volume] in Serum or Plasma"
        },
        "valueQuantity": {
          "system": "http://unitsofmeasure.org",
          "value": 121.5,
          "unit": "mg/dL",
          "code": "mg/dL"
        },
        "referenceRange": [
          {
            "low": {
              "value": 35,
              "code": "mg/dL",
              "system": "http://unitsofmeasure.org"
            }
          },
          {
            "high": {
              "value": 150,
              "code": "mg/dL",
              "system": "http://unitsofmeasure.org"
            }
          }
        ],
        "text": {
          "status": "generated",
          "div": "<div xmlns=\"http://www.w3.org/1999/xhtml\"><table class=\"hl7__eu__lab__report\"><tr><th>Test</th><th>03-May-2025</th><th>Reference&#xA0;Range</th><th>Unit</th></tr><tr><td>Triglyceride [Mass/volume] in Serum or Plasma</td><td>121.5</td><td>35 - 150</td><td></td><td>mg/dL</td></tr></table></div>"
        },
        "status": "final",
        "subject": {
          "reference": "urn:uuid:4b9df938-bbd8-48c1-a7cd-660c114349b9",
          "display": "Bethany Begum"
        },
        "effectiveDateTime": "2025-05-03T11:40:40Z"
      }
    },
    {
      "fullUrl": "urn:uuid:4ef6920a-bc97-4f7a-b269-21e8009c8bc4",
      "resource": {
        "resourceType": "Observation",
        "id": "4ef6920a-bc97-4f7a-b269-21e8009c8bc4",
        "meta": {
          "profile": [
            "http://hl7.eu/fhir/laboratory/StructureDefinition/Observation-resultslab-eu-lab"
          ]
        },
        "performer": [
          {
            "display": "The Central European Lab"
          }
        ],
        "category": [
          {
            "coding": [
              {
                "system": "http://terminology.hl7.org/CodeSystem/observation-category",
                "code": "laboratory"
              }
            ]
          }
        ],
        "code": {
          "coding": [
            {
              "code": "18262-6",
              "system": "http://loinc.org",
              "display": "Cholesterol in LDL [Mass/volume] in Serum or Plasma by Direct assay"
            }
          ],
          "text": "Cholesterol in LDL [Mass/volume] in Serum or Plasma by Direct assay"
        },
        "valueQuantity": {
          "system": "http://unitsofmeasure.org",
          "value": 149.5,
          "unit": "mg/dL",
          "code": "mg/dL"
        },
        "referenceRange": [
          {
            "low": {
              "value": 0,
              "code": "mg/dL",
              "system": "http://unitsofmeasure.org"
            }
          },
          {
            "high": {
              "value": 130,
              "code": "mg/dL",
              "system": "http://unitsofmeasure.org"
            }
          }
        ],
        "interpretation": [
          {
            "coding": [
              {
                "code": "H",
                "system": "http://terminology.hl7.org/CodeSystem/v3-ObservationInterpretation",
                "display": "High"
              }
            ]
          }
        ],
        "text": {
          "status": "generated",
          "div": "<div xmlns=\"http://www.w3.org/1999/xhtml\"><table class=\"hl7__eu__lab__report\"><tr><th>Test</th><th>03-May-2025</th><th>Reference&#xA0;Range</th><th>Unit</th></tr><tr><td>Cholesterol in LDL [Mass/volume] in Serum or Plasma by Direct assay</td><td>149.5</td><td>0 - 130</td><td>H</td><td>mg/dL</td></tr></table></div>"
        },
        "status": "final",
        "subject": {
          "reference": "urn:uuid:4b9df938-bbd8-48c1-a7cd-660c114349b9",
          "display": "Bethany Begum"
        },
        "effectiveDateTime": "2025-05-03T11:40:40Z"
      }
    },
    {
      "fullUrl": "urn:uuid:18763b1e-7849-42bd-af54-da82796ed071",
      "resource": {
        "resourceType": "Observation",
        "id": "18763b1e-7849-42bd-af54-da82796ed071",
        "meta": {
          "profile": [
            "http://hl7.eu/fhir/laboratory/StructureDefinition/Observation-resultslab-eu-lab"
          ]
        },
        "performer": [
          {
            "display": "The Central European Lab"
          }
        ],
        "category": [
          {
            "coding": [
              {
                "system": "http://terminology.hl7.org/CodeSystem/observation-category",
                "code": "laboratory"
              }
            ]
          }
        ],
        "code": {
          "coding": [
            {
              "code": "2085-9",
              "system": "http://loinc.org",
              "display": "Cholesterol in HDL [Mass/volume] in Serum or Plasma"
            }
          ],
          "text": "Cholesterol in HDL [Mass/volume] in Serum or Plasma"
        },
        "valueQuantity": {
          "system": "http://unitsofmeasure.org",
          "value": 50,
          "unit": "mg/dL",
          "code": "mg/dL"
        },
        "referenceRange": [
          {
            "low": {
              "value": 40,
              "code": "mg/dL",
              "system": "http://unitsofmeasure.org"
            }
          },
          {
            "high": {
              "value": 60,
              "code": "mg/dL",
              "system": "http://unitsofmeasure.org"
            }
          }
        ],
        "text": {
          "status": "generated",
          "div": "<div xmlns=\"http://www.w3.org/1999/xhtml\"><table class=\"hl7__eu__lab__report\"><tr><th>Test</th><th>03-May-2025</th><th>Reference&#xA0;Range</th><th>Unit</th></tr><tr><td>Cholesterol in HDL [Mass/volume] in Serum or Plasma</td><td>50.0</td><td>40 - 60</td><td></td><td>mg/dL</td></tr></table></div>"
        },
        "status": "final",
        "subject": {
          "reference": "urn:uuid:4b9df938-bbd8-48c1-a7cd-660c114349b9",
          "display": "Bethany Begum"
        },
        "effectiveDateTime": "2025-05-03T11:40:40Z"
      }
    },
    {
      "fullUrl": "urn:uuid:071594de-642a-40b2-8751-8041f510eeff",
      "resource": {
        "resourceType": "DeviceUseStatement",
        "id": "071594de-642a-40b2-8751-8041f510eeff",
        "meta": {
          "profile": [
            "http://hl7.eu/fhir/eps/StructureDefinition/deviceUseStatement-eu-eps"
          ]
        },
        "timingPeriod": {
          "start": "2007-03-30"
        },
        "text": {
          "status": "generated",
          "div": "<div xmlns=\"http://www.w3.org/1999/xhtml\"><table class=\"hl7__ips\"><tr><td>Blood glucose meter (physical object)</td><td><span class=\"nb\">30-Mar-2007</span></td></tr></table></div>"
        },
        "status": "active",
        "device": {
          "reference": "urn:uuid:8cc805b2-d6ae-4c63-bcdd-f62dd8eb0cec",
          "display": "Blood glucose meter (physical object)"
        },
        "subject": {
          "reference": "urn:uuid:4b9df938-bbd8-48c1-a7cd-660c114349b9",
          "display": "Bethany Begum"
        }
      }
    },
    {
      "fullUrl": "urn:uuid:8cc805b2-d6ae-4c63-bcdd-f62dd8eb0cec",
      "resource": {
        "resourceType": "Device",
        "id": "8cc805b2-d6ae-4c63-bcdd-f62dd8eb0cec",
        "meta": {
          "profile": [
            "http://hl7.eu/fhir/eps/StructureDefinition/device-eu-eps"
          ]
        },
        "udiCarrier": [
          {
            "id": "(01)63676454030662(11)070309(17)320323(10)7773593394862267924(21)6261023395175009088"
          }
        ],
        "status": "active",
        "patient": {
          "reference": "urn:uuid:4b9df938-bbd8-48c1-a7cd-660c114349b9",
          "display": "Bethany Begum"
        },
        "type": {
          "coding": [
            {
              "code": "337414009",
              "system": "http://snomed.info/sct",
              "display": "Blood glucose meter (physical object)"
            }
          ]
        }
      }
    },
    {
      "fullUrl": "urn:uuid:f22a274e-ef81-4757-b3a3-f1d21b4e8948",
      "resource": {
        "resourceType": "DeviceUseStatement",
        "id": "f22a274e-ef81-4757-b3a3-f1d21b4e8948",
        "meta": {
          "profile": [
            "http://hl7.eu/fhir/eps/StructureDefinition/deviceUseStatement-eu-eps"
          ]
        },
        "timingPeriod": {
          "start": "2005-10-28"
        },
        "text": {
          "status": "generated",
          "div": "<div xmlns=\"http://www.w3.org/1999/xhtml\"><table class=\"hl7__ips\"><tr><td>Home nebulizer (physical object)</td><td><span class=\"nb\">28-Oct-2005</span></td></tr></table></div>"
        },
        "status": "active",
        "device": {
          "reference": "urn:uuid:1cb34096-c5da-4d79-92d8-92fbd3f29b4c",
          "display": "Home nebulizer (physical object)"
        },
        "subject": {
          "reference": "urn:uuid:4b9df938-bbd8-48c1-a7cd-660c114349b9",
          "display": "Bethany Begum"
        }
      }
    },
    {
      "fullUrl": "urn:uuid:1cb34096-c5da-4d79-92d8-92fbd3f29b4c",
      "resource": {
        "resourceType": "Device",
        "id": "1cb34096-c5da-4d79-92d8-92fbd3f29b4c",
        "meta": {
          "profile": [
            "http://hl7.eu/fhir/eps/StructureDefinition/device-eu-eps"
          ]
        },
        "udiCarrier": [
          {
            "id": "(01)71790449987190(11)051007(17)301022(10)882407446423451(21)9098"
          }
        ],
        "status": "active",
        "patient": {
          "reference": "urn:uuid:4b9df938-bbd8-48c1-a7cd-660c114349b9",
          "display": "Bethany Begum"
        },
        "type": {
          "coding": [
            {
              "code": "170615005",
              "system": "http://snomed.info/sct",
              "display": "Home nebulizer (physical object)"
            }
          ]
        }
      }
    },
    {
      "fullUrl": "urn:uuid:80b5429e-f37d-4474-9bdd-8f486fd80a39",
      "resource": {
        "resourceType": "Device",
        "id": "80b5429e-f37d-4474-9bdd-8f486fd80a39",
        "deviceName": [
          {
            "name": "SYNDERAI Synthetic Generator",
            "type": "manufacturer-name"
          }
        ],
        "version": [
          {
            "value": "5.0"
          }
        ],
        "text": {
          "status": "generated",
          "div": "<div xmlns=\"http://www.w3.org/1999/xhtml\">SYNDERAI Synthetic Generator v5.0</div>"
        },
        "status": "active\"",
        "distinctIdentifier": "synderai-generator-50",
        "manufacturer": "SYNDERAI Project"
      }
    },
    {
      "fullUrl": "urn:uuid:639af36d-bbfb-46ef-9edf-82bbe4e2ed9b",
      "resource": {
        "resourceType": "Provenance",
        "id": "639af36d-bbfb-46ef-9edf-82bbe4e2ed9b",
        "target": [
          {
            "reference": "Patient/4b9df938-bbd8-48c1-a7cd-660c114349b9"
          },
          {
            "reference": "Bundle/84f9799d-20cc-440a-b4e2-93453dad330e"
          },
          {
            "reference": "Composition/410d5e0a-91eb-47b6-a023-9845ba6f7e99"
          },
          {
            "reference": "PractitionerRole/f68be6d4-29ec-4d9c-b440-fdb9421797c4"
          },
          {
            "reference": "Organization/700cef5d-d08c-4f16-991f-1d916c903b28"
          },
          {
            "reference": "Practitioner/f312c615-e466-4e38-b045-ad36a86654d1"
          }
        ],
        "activity": {
          "text": "Synthetic Example Data Generation"
        },
        "policy": [
          "https://synderai.net/synderai-synthetic-data-policy"
        ],
        "agent": [
          {
            "type": {
              "text": "author"
            },
            "who": {
              "reference": "Device/80b5429e-f37d-4474-9bdd-8f486fd80a39"
            }
          }
        ],
        "reason": [
          {
            "text": "Interoperability Testing and Training (non-clinical use)"
          }
        ],
        "text": {
          "status": "generated",
          "div": "<div xmlns=\"http://www.w3.org/1999/xhtml\">Provenance for SYNDERAI Synthetic Example Data Resource</div>"
        },
        "recorded": "2025-05-03T11:40:40Z"
      }
    }
  ],
  "type": "document",
  "timestamp": "2025-05-03T11:40:40Z"
}
