{
  "resourceType": "Bundle",
  "id": "b6309857-9df6-4408-b8e0-8f237a410f3b",
  "meta": {
    "profile": [
      "http://hl7.eu/fhir/eps/StructureDefinition/bundle-eu-eps"
    ]
  },
  "identifier": {
    "assigner": {
      "display": "HL7 Europe"
    },
    "system": "urn:oid:2.16.840.1.113883.2.51.999",
    "value": "b95bcef2-b1ff-4365-bb0b-5894b79653eb"
  },
  "entry": [
    {
      "fullUrl": "urn:uuid:279b6d45-d66c-461f-96f9-142a6b864d43",
      "resource": {
        "resourceType": "Composition",
        "id": "279b6d45-d66c-461f-96f9-142a6b864d43",
        "meta": {
          "security": [
            {
              "system": "http://terminology.hl7.org/CodeSystem/v3-ActReason",
              "code": "HTEST"
            },
            {
              "system": "http://terminology.hl7.org/CodeSystem/v3-ActReason",
              "code": "TRAIN"
            }
          ],
          "tag": [
            {
              "system": "https://synderai.net/fhir/CodeSystem/tags",
              "code": "synthetic",
              "display": "SYNDERAI Synthetic data"
            }
          ],
          "profile": [
            "http://hl7.eu/fhir/eps/StructureDefinition/composition-eu-eps"
          ]
        },
        "identifier": {
          "assigner": {
            "display": "HL7 Europe"
          },
          "system": "urn:oid:2.16.840.1.113883.2.51.999",
          "value": "608bbc79-060c-42b1-8511-9ceac3c13a42"
        },
        "type": {
          "coding": [
            {
              "system": "http://loinc.org",
              "code": "60591-5",
              "display": "Patient summary Document"
            }
          ],
          "text": "Patient summary Document"
        },
        "author": [
          {
            "reference": "urn:uuid:c7ccb4e2-155f-439c-bed6-424c224a7558"
          }
        ],
        "section": [
          {
            "text": {
              "status": "generated",
              "div": "<div xmlns=\"http://www.w3.org/1999/xhtml\"><table class=\"hl7__ips\"><tr><th>Condition</th><th>Onset Date</th><th>Status</th></tr><tr><td>Laceration of hand</td><td><span class=\"nb\">02-Jul-2025</span></td><td>active</td></tr><tr><td>Laceration - injury</td><td><span class=\"nb\">02-Jul-2025</span></td><td>active</td></tr><tr><td>Prediabetes</td><td><span class=\"nb\">17-Mar-2019</span></td><td>active</td></tr><tr><td>Anemia</td><td><span class=\"nb\">17-Mar-2019</span></td><td>active</td></tr><tr><td>Fibromyalgia</td><td><span class=\"nb\">04-Feb-2014</span></td><td>active</td></tr><tr><td>Dependent drug abuse</td><td><span class=\"nb\">07-Aug-2005</span></td><td>active</td></tr><tr><td>Chronic intractable migraine without aura</td><td><span class=\"nb\">27-Sep-2001</span></td><td>active</td></tr><tr><td>Impacted molars</td><td><span class=\"nb\">21-Jun-2001</span></td><td>active</td></tr></table></div>"
            },
            "entry": [
              {
                "reference": "urn:uuid:2288df18-d2ea-456a-ad17-358b1449fe75"
              },
              {
                "reference": "urn:uuid:67de4214-9132-4ff7-93e2-f11f8b02aeb6"
              },
              {
                "reference": "urn:uuid:ba41c0b4-8c1b-41c3-a66b-ab3a8134a3c0"
              },
              {
                "reference": "urn:uuid:1e7559a1-35be-4bcd-bf2f-61e79783eead"
              },
              {
                "reference": "urn:uuid:8cc0153d-b12d-4763-b185-a66e70ff6838"
              },
              {
                "reference": "urn:uuid:e5dc97f1-c7eb-4bdc-874d-b7e7e3f10b39"
              },
              {
                "reference": "urn:uuid:cf20c34e-297c-4e70-9995-e14246bd850c"
              },
              {
                "reference": "urn:uuid:34c3d07f-113d-4484-ad98-1612d0bf4e72"
              }
            ],
            "code": {
              "coding": [
                {
                  "system": "http://loinc.org",
                  "code": "11450-4",
                  "display": "Problem list - Reported"
                }
              ]
            },
            "title": "Problem list"
          },
          {
            "text": {
              "status": "generated",
              "div": "<div xmlns=\"http://www.w3.org/1999/xhtml\"><table class=\"hl7__ips\"><tr><th>Medication</th><th>Since</th><th>Form</th><th>Dosage</th><th>Reason</th></tr><tr><td>Acetaminophen 325 mg oral tablet</td><td><span class=\"nb\">2025-07-02</span></td><td>-</td><td>1 tablet (325 mg) by mouth every 4 to 6 hours as needed for pain. Do not exceed 12 tablets (3900 mg) in 24 hours.</td><td>-</td></tr><tr><td>Acetaminophen 300 mg and hydrocodone bitartrate 5 mg oral tablet</td><td><span class=\"nb\">2025-04-20</span></td><td>-</td><td>1 tablet (300 mg/5 mg) every 4 to 6 hours as needed for pain</td><td>-</td></tr><tr><td>Diphenhydramine hydrochloride 25 mg oral tablet</td><td><span class=\"nb\">1988-04-02</span></td><td>-</td><td>1 tablet (25 mg) every 6 hours as needed</td><td>-</td></tr><tr><td>Epinephrine 1 mg/mL solution for injection</td><td><span class=\"nb\">1988-04-02</span></td><td>-</td><td>0.3 mg (1 mg/mL) injected intramuscularly as needed for anaphylaxis</td><td>-</td></tr></table></div>"
            },
            "entry": [
              {
                "reference": "urn:uuid:193b9b2a-e17f-41c7-a7eb-d7b8e9d94778"
              },
              {
                "reference": "urn:uuid:53982195-57c6-424a-9700-ac5c35f500c8"
              },
              {
                "reference": "urn:uuid:688cf620-fb13-42fb-8b9c-2bb3a17da7de"
              },
              {
                "reference": "urn:uuid:44582c4a-ef3c-4cc1-91ba-d64748ca42d4"
              }
            ],
            "code": {
              "coding": [
                {
                  "system": "http://loinc.org",
                  "code": "10160-0",
                  "display": "History of Medication use Narrative"
                }
              ]
            },
            "title": "Medication list"
          },
          {
            "text": {
              "status": "generated",
              "div": "<div xmlns=\"http://www.w3.org/1999/xhtml\"><table class=\"hl7__ips\"><tr><th>Vaccine</th><th>Date</th></tr><tr><td>Influenza virus antigen only vaccine product</td><td><span class=\"nb\">20-Apr-2025</span></td></tr><tr><td>SARS-CoV-2 mRNA vaccine</td><td><span class=\"nb\">20-Jun-2021</span></td></tr><tr><td>Clostridium tetani toxoid antigen adsorbed only vaccine product</td><td><span class=\"nb\">17-Mar-2019</span></td></tr></table></div>"
            },
            "entry": [
              {
                "reference": "urn:uuid:742bb9c4-fd0e-455d-904c-2da9b256138c"
              },
              {
                "reference": "urn:uuid:03a52a5c-909e-4ace-b0e8-00d89979d36e"
              },
              {
                "reference": "urn:uuid:b5433caa-47ed-4b7c-9a1a-5dcc6d61b96f"
              }
            ],
            "code": {
              "coding": [
                {
                  "system": "http://loinc.org",
                  "code": "11369-6",
                  "display": "History of Immunization note"
                }
              ]
            },
            "title": "Immunizations list"
          },
          {
            "text": {
              "status": "generated",
              "div": "<div xmlns=\"http://www.w3.org/1999/xhtml\"><table class=\"hl7__ips\"><tr><th>Procedure</th><th>Date</th><th>Reason</th></tr><tr><td>Suture open wound</td><td><span class=\"nb\">02-Jul-2025</span></td><td>Laceration of hand</td></tr></table></div>"
            },
            "entry": [
              {
                "reference": "urn:uuid:6cec2ab2-8ed1-4cb8-96ff-32881377dcb8"
              }
            ],
            "code": {
              "coding": [
                {
                  "system": "http://loinc.org",
                  "code": "47519-4",
                  "display": "History of Procedures Document"
                }
              ]
            },
            "title": "Procedure History list"
          },
          {
            "text": {
              "status": "generated",
              "div": "<div xmlns=\"http://www.w3.org/1999/xhtml\"><table class=\"hl7__ips\"><tr><th>Allergy/Intolerance</th><th>Onset Date</th><th>Status</th><th>Type</th><th>Reaction</th></tr><tr><td>Mold</td><td><span class=\"nb\">1988-04-02</span></td><td>active</td><td>environment</td><td></td></tr><tr><td>Eggs (edible)</td><td><span class=\"nb\">1988-04-02</span></td><td>active</td><td>food</td><td>Wheal (finding)</td></tr><tr><td>Allergy to substance</td><td><span class=\"nb\">1988-04-02</span></td><td>active</td><td>environment</td><td></td></tr></table></div>"
            },
            "entry": [
              {
                "reference": "urn:uuid:9a6a81c3-65ba-4631-aab9-4fc84daf960c"
              },
              {
                "reference": "urn:uuid:2276fd6d-aec8-4e78-8f6c-896aee53021e"
              },
              {
                "reference": "urn:uuid:95480281-82b6-4550-99ac-aa2ecdb549bf"
              }
            ],
            "code": {
              "coding": [
                {
                  "system": "http://loinc.org",
                  "code": "48765-2",
                  "display": "Allergies and adverse reactions Document"
                }
              ]
            },
            "title": "Allergies and Intolerances"
          },
          {
            "text": {
              "status": "generated",
              "div": "<div xmlns=\"http://www.w3.org/1999/xhtml\"><table class=\"hl7__ips\"><tr><th>Active Planned Care / Goals</th><th>Start Date</th><th>Reason</th></tr><tr><td>Wound care</td><td><span class=\"nb\">02-Jul-2025</span></td><td>Laceration of hand</td></tr><tr><td><ul><li>Achieve full epithelialization of the hand laceration without signs of infection.</li><li>Reduce wound size to 0 cm by end of treatment.</li><li>Maintain absence of clinical signs of infection throughout wound healing.</li></ul></td><td></td><td></td></tr><tr><td>Diabetes self management plan</td><td><span class=\"nb\">17-Mar-2019</span></td><td>Prediabetes</td></tr><tr><td><ul><li>Patient will implement and adhere to a diabetes self-management plan to reduce risk of progression to type 2 diabetes.</li></ul></td><td></td><td></td></tr><tr><td>Care plan</td><td><span class=\"nb\">19-Jun-2013</span></td><td>-</td></tr><tr><td>Self-care interventions</td><td><span class=\"nb\">15-Mar-1988</span></td><td>-</td></tr></table></div>"
            },
            "entry": [
              {
                "reference": "urn:uuid:934a9a91-b66a-4902-9d0e-8e9ef761d6f9"
              },
              {
                "reference": "urn:uuid:c56382cf-40d2-418a-b212-3f40762bda88"
              },
              {
                "reference": "urn:uuid:dcff0826-6b8e-40de-8f2d-10e4b388edce"
              },
              {
                "reference": "urn:uuid:377b167c-e4b0-4470-a311-2c43dcd0fd6a"
              }
            ],
            "code": {
              "coding": [
                {
                  "system": "http://loinc.org",
                  "code": "18776-5",
                  "display": "Plan of care note"
                }
              ]
            },
            "title": "Care Plan"
          },
          {
            "text": {
              "status": "generated",
              "div": "<div xmlns=\"http://www.w3.org/1999/xhtml\"><table class=\"hl7__ips\"><tr><th>Vital Signs</th><th>2025-04-20</th><th>2025-03-13</th></tr><tr><td>Body Height</td><td>156 cm</td><td>-</td></tr><tr><td>Pain severity - 0-10 verbal numeric rating [Score] - Reported</td><td>3 {score}</td><td>6 {score}</td></tr><tr><td>Body Weight</td><td>75.1 kg</td><td>-</td></tr><tr><td>Body mass index (BMI) [Ratio]</td><td>30.9 kg/m2</td><td>-</td></tr><tr><td>Diastolic Blood Pressure</td><td>72 mm[Hg]</td><td>-</td></tr><tr><td>Systolic Blood Pressure</td><td>129 mm[Hg]</td><td>-</td></tr><tr><td>Heart rate</td><td>88 /min</td><td>-</td></tr><tr><td>Respiratory rate</td><td>16 /min</td><td>-</td></tr></table></div>"
            },
            "entry": [
              {
                "reference": "urn:uuid:b52214b3-9d53-4e6e-a1cc-4f815ce84cca"
              },
              {
                "reference": "urn:uuid:cb68cc73-a0e1-4961-9128-a72c4ddaea42"
              },
              {
                "reference": "urn:uuid:e972ed30-0b22-496c-9596-308aa17cec60"
              },
              {
                "reference": "urn:uuid:973a98c3-b61d-4c04-a87f-d18480658734"
              },
              {
                "reference": "urn:uuid:9415b5a5-3689-40c6-ba3a-a42d5209e2b4"
              },
              {
                "reference": "urn:uuid:b2d8c8f8-d45b-4116-bed7-f2efbb500125"
              },
              {
                "reference": "urn:uuid:6af71ff5-652b-414d-ad05-4303e0a09fdb"
              },
              {
                "reference": "urn:uuid:63d123a7-bb72-45de-ad10-1ebca27e15d7"
              },
              {
                "reference": "urn:uuid:32d3ee42-a864-4d48-8ae7-b64dc41946ab"
              }
            ],
            "code": {
              "coding": [
                {
                  "system": "http://loinc.org",
                  "code": "8716-3",
                  "display": "Vital signs note"
                }
              ]
            },
            "title": "Vital Signs"
          },
          {
            "text": {
              "status": "generated",
              "div": "<div xmlns=\"http://www.w3.org/1999/xhtml\"><table class=\"hl7__ips\"><table class=\"hl7__ips\"><thead><tr><th>Recent Lab Observations</th><th>20-APR-2025</th><th>Reference&#xA0;Range</th><th>Unit</th></tr></thead><tbody><tr><td>Hemoglobin A1c/Hemoglobin.total in Blood</td><td><strong>6.0 H</strong></td><td>4.8 - 5.7</td><td>%</td></tr><tr><td>Glucose [Mass/volume] in Blood</td><td>74.1</td><td>70 - 140</td><td>mg/dL</td></tr><tr><td>Urea nitrogen [Mass/volume] in Blood</td><td>10.1</td><td>7 - 20</td><td>mg/dL</td></tr><tr><td>Creatinine [Mass/volume] in Blood</td><td>0.9</td><td>0.6 - 1.2</td><td>mg/dL</td></tr><tr><td>Calcium [Mass/volume] in Blood</td><td>9.0</td><td>8.5 - 10.4</td><td>mg/dL</td></tr><tr><td>Sodium [Moles/volume] in Blood</td><td>138.6</td><td>135 - 145</td><td>mmol/L</td></tr><tr><td>Potassium [Moles/volume] in Blood</td><td>4.9</td><td>3.5 - 5.1</td><td>mmol/L</td></tr><tr><td>Chloride [Moles/volume] in Blood</td><td>106.5</td><td>98 - 107</td><td>mmol/L</td></tr><tr><td>Carbon dioxide, total [Moles/volume] in Blood</td><td>22.1</td><td>22 - 29</td><td>mmol/L</td></tr><tr><td>Leukocytes [#/volume] in Blood by Automated count</td><td>4.3</td><td>3.4 - 10</td><td>10*3/uL</td></tr><tr><td>Erythrocytes [#/volume] in Blood by Automated count</td><td>5.0</td><td>4.5 - 5.2</td><td>10*6/uL</td></tr><tr><td>Hemoglobin [Mass/volume] in Blood</td><td><strong>17.3 H</strong></td><td>12 - 16</td><td>g/dL</td></tr><tr><td>Hematocrit [Volume Fraction] of Blood by Automated count</td><td><strong>47.3 H</strong></td><td>37 - 47</td><td>%</td></tr><tr><td>MCV [Entitic volume] by Automated count</td><td>90.3</td><td>82 - 98</td><td>fL</td></tr><tr><td>MCH [Entitic mass] by Automated count</td><td>29.9</td><td>27 - 33</td><td>pg</td></tr><tr><td>MCHC [Mass/volume] by Automated count</td><td>34.5</td><td>32 - 37</td><td>g/dL</td></tr><tr><td>Erythrocyte distribution width [Entitic volume] by Automated count</td><td>39.4</td><td>36 - 56</td><td>fL</td></tr><tr><td>Platelets [#/volume] in Blood by Automated count</td><td>380.4</td><td>150 - 450</td><td>10*3/uL</td></tr><tr><td>Platelet distribution width [Entitic volume] in Blood by Automated count</td><td><strong>199.4 H</strong></td><td>11.6 - 17.4</td><td>fL</td></tr><tr><td>Platelet mean volume [Entitic volume] in Blood by Automated count</td><td>9.5</td><td>9.4 - 14</td><td>fL</td></tr></tbody></table></table></div>"
            },
            "entry": [
              {
                "reference": "urn:uuid:dfbf8ac5-ac9a-48b4-9b6d-2dca27af319c"
              },
              {
                "reference": "urn:uuid:330a7112-570f-4467-baa2-2f61c3fc5495"
              },
              {
                "reference": "urn:uuid:fd6305f5-519e-46fe-a112-8ccf1f6a6bee"
              },
              {
                "reference": "urn:uuid:b1653089-71e6-43fe-987e-93559a78786c"
              },
              {
                "reference": "urn:uuid:ab446dd0-dc41-4d0e-8b63-e326ac888ee4"
              },
              {
                "reference": "urn:uuid:a7fff1ea-ab8c-4524-a5de-91db54f6d55b"
              },
              {
                "reference": "urn:uuid:86b5a4f1-96fb-4e35-8fa4-e9786bfa7823"
              },
              {
                "reference": "urn:uuid:92f7cfc8-388f-44c0-ae8c-fa4af6ad0a39"
              },
              {
                "reference": "urn:uuid:bcbe7374-d2b5-476d-ba31-068a471675bc"
              },
              {
                "reference": "urn:uuid:3531f361-a201-4514-8335-f33787807c60"
              },
              {
                "reference": "urn:uuid:13b6df27-51ac-4b3c-bd63-182b1d7a1957"
              },
              {
                "reference": "urn:uuid:e0439ce8-3513-488c-9fae-4695fd1ea87b"
              },
              {
                "reference": "urn:uuid:1959ecfe-d8bc-4431-9b84-3a055a1338eb"
              },
              {
                "reference": "urn:uuid:196a1e9f-7b95-4677-b606-ff38b88246c8"
              },
              {
                "reference": "urn:uuid:00dc701d-01f3-4232-ae8d-bffb21ba61e1"
              },
              {
                "reference": "urn:uuid:b3a2f799-0637-4975-864d-6fb838b546bb"
              },
              {
                "reference": "urn:uuid:974bc04d-e85a-4611-aeb3-3f22e5f54839"
              },
              {
                "reference": "urn:uuid:7f0c1435-a318-499b-9c82-737faf78b1d2"
              },
              {
                "reference": "urn:uuid:ce3ea2d7-5ad7-49ce-a337-b60ad9137cd5"
              },
              {
                "reference": "urn:uuid:5d31df16-0157-4887-b2d3-830e60f67d2a"
              }
            ],
            "code": {
              "coding": [
                {
                  "system": "http://loinc.org",
                  "code": "30954-2",
                  "display": "Relevant diagnostic tests/laboratory data note"
                }
              ]
            },
            "title": "Relevant diagnostic tests/laboratory data"
          },
          {
            "text": {
              "status": "generated",
              "div": "<div xmlns=\"http://www.w3.org/1999/xhtml\"><table class=\"hl7__ips\"><tr><th>Device</th><th>Date (since)</th></tr><tr><td>Blood glucose meter (physical object)</td><td><span class=\"nb\">17-Mar-2019</span></td></tr></table></div>"
            },
            "entry": [
              {
                "reference": "urn:uuid:46bc0702-574e-469f-8495-9f4168fafed6"
              }
            ],
            "code": {
              "coding": [
                {
                  "system": "http://loinc.org",
                  "code": "46264-8",
                  "display": "History of medical device use"
                }
              ]
            },
            "title": "Device Use"
          }
        ],
        "title": "European Patient Summary",
        "status": "final",
        "subject": {
          "reference": "urn:uuid:c5de0a53-e757-4182-9880-a8f6c0107ec4",
          "display": "Katy Johnston"
        },
        "custodian": {
          "reference": "urn:uuid:3731d42f-3517-4d6a-8321-242174b28653"
        },
        "date": "2025-04-20",
        "confidentiality": "N"
      }
    },
    {
      "fullUrl": "urn:uuid:c5de0a53-e757-4182-9880-a8f6c0107ec4",
      "resource": {
        "resourceType": "Patient",
        "id": "c5de0a53-e757-4182-9880-a8f6c0107ec4",
        "meta": {
          "security": [
            {
              "system": "http://terminology.hl7.org/CodeSystem/v3-ActReason",
              "code": "HTEST"
            },
            {
              "system": "http://terminology.hl7.org/CodeSystem/v3-ActReason",
              "code": "TRAIN"
            }
          ],
          "tag": [
            {
              "system": "https://synderai.net/fhir/CodeSystem/tags",
              "code": "synthetic",
              "display": "SYNDERAI Synthetic data"
            }
          ],
          "profile": [
            "http://hl7.eu/fhir/eps/StructureDefinition/patient-eu-eps"
          ]
        },
        "identifier": [
          {
            "type": {
              "coding": [
                {
                  "code": "PT",
                  "system": "http://terminology.hl7.org/CodeSystem/v2-0203"
                }
              ]
            },
            "system": "http://ec.europa.eu/identifier/eci",
            "value": "1854-452946-6"
          },
          {
            "type": {
              "coding": [
                {
                  "code": "MR",
                  "system": "http://terminology.hl7.org/CodeSystem/v2-0203"
                }
              ]
            },
            "system": "http://local.setting.eu/identifier",
            "value": "f94741cf-8405-9657-1aec-b3bd1788b46e"
          }
        ],
        "name": [
          {
            "family": "Johnston"
          },
          {
            "given": [
              "Katy"
            ]
          },
          {
            "text": "Katy Johnston"
          }
        ],
        "address": [
          {
            "line": [
              "Flat 16f",
              "Stokes roads"
            ],
            "use": "home",
            "type": "physical",
            "postalCode": "E1",
            "city": "London",
            "country": "United Kingdom"
          }
        ],
        "telecom": [
          {
            "system": "phone",
            "value": "+44808 1570256"
          }
        ],
        "extension": [
          {
            "url": "http://hl7.org/fhir/StructureDefinition/patient-nationality",
            "valueCodeableConcept": {
              "coding": [
                {
                  "code": "GB",
                  "system": "http://hl7.org/fhir/ValueSet/country"
                }
              ]
            }
          }
        ],
        "text": {
          "status": "generated",
          "div": "<div xmlns=\"http://www.w3.org/1999/xhtml\"><table class=\"hl7__ips\"><tr><td>Katy Johnston</td><td>female</td><td>19-Sep-1988</td></tr></table></div>"
        },
        "gender": "female",
        "birthDate": "1988-09-19"
      }
    },
    {
      "fullUrl": "urn:uuid:c7ccb4e2-155f-439c-bed6-424c224a7558",
      "resource": {
        "resourceType": "PractitionerRole",
        "id": "c7ccb4e2-155f-439c-bed6-424c224a7558",
        "meta": {
          "profile": [
            "http://hl7.eu/fhir/base/StructureDefinition/practitionerRole-eu"
          ]
        },
        "text": {
          "status": "generated",
          "div": "<div xmlns=\"http://www.w3.org/1999/xhtml\"><table class=\"hl7__ips\">Provider Role Id c7ccb4e2-155f-439c-bed6-424c224a7558</table></div>"
        },
        "practitioner": {
          "reference": "urn:uuid:90ba03e9-9322-48a2-a10b-fb41bc953d60"
        },
        "organization": {
          "reference": "urn:uuid:3731d42f-3517-4d6a-8321-242174b28653"
        }
      }
    },
    {
      "fullUrl": "urn:uuid:90ba03e9-9322-48a2-a10b-fb41bc953d60",
      "resource": {
        "resourceType": "Practitioner",
        "id": "90ba03e9-9322-48a2-a10b-fb41bc953d60",
        "meta": {
          "profile": [
            "http://hl7.eu/fhir/base/StructureDefinition/practitioner-eu"
          ]
        },
        "name": [
          {
            "prefix": [
              "Dr."
            ],
            "given": [
              "Hel"
            ],
            "family": "Ping"
          }
        ],
        "text": {
          "status": "generated",
          "div": "<div xmlns=\"http://www.w3.org/1999/xhtml\"><table class=\"hl7__ips\">Dr. Hel Ping</table></div>"
        }
      }
    },
    {
      "fullUrl": "urn:uuid:3731d42f-3517-4d6a-8321-242174b28653",
      "resource": {
        "resourceType": "Organization",
        "id": "3731d42f-3517-4d6a-8321-242174b28653",
        "meta": {
          "profile": [
            "http://hl7.eu/fhir/base/StructureDefinition/organization-eu"
          ]
        },
        "identifier": [
          {
            "assigner": {
              "display": "HL7 Europe"
            },
            "system": "urn:oid:2.16.840.1.113883.2.51.999",
            "value": "dde55131-19d9-45fe-ad10-246523c8df06"
          }
        ],
        "address": [
          {
            "city": "London",
            "postalCode": "SE1 7",
            "country": "United Kingdom"
          }
        ],
        "text": {
          "status": "generated",
          "div": "<div xmlns=\"http://www.w3.org/1999/xhtml\"><table class=\"hl7__ips\">Evelina Children&#039;s Hospital</table></div>"
        },
        "name": "Evelina Children&#039;s Hospital"
      }
    },
    {
      "fullUrl": "urn:uuid:2288df18-d2ea-456a-ad17-358b1449fe75",
      "resource": {
        "resourceType": "Condition",
        "id": "2288df18-d2ea-456a-ad17-358b1449fe75",
        "meta": {
          "profile": [
            "http://hl7.org/fhir/uv/ips/StructureDefinition/Condition-uv-ips"
          ]
        },
        "category": [
          {
            "coding": [
              {
                "code": "problem-list-item",
                "system": "http://terminology.hl7.org/CodeSystem/condition-category",
                "display": "Problem List Item"
              }
            ]
          }
        ],
        "code": {
          "coding": [
            {
              "code": "284549007",
              "system": "http://snomed.info/sct",
              "display": "Laceration of hand (disorder)"
            }
          ],
          "text": "Laceration of hand"
        },
        "text": {
          "status": "generated",
          "div": "<div xmlns=\"http://www.w3.org/1999/xhtml\"><table class=\"hl7__ips\"><tr><td>Laceration of hand</td><td><span class=\"nb\">02-Jul-2025</span></td><td>active</td></tr></table></div>"
        },
        "onsetDateTime": "2025-07-02",
        "subject": {
          "reference": "urn:uuid:",
          "display": "Katy Johnston"
        },
        "asserter": {
          "reference": "urn:uuid:",
          "display": "Evelina Children&#039;s Hospital"
        }
      }
    },
    {
      "fullUrl": "urn:uuid:67de4214-9132-4ff7-93e2-f11f8b02aeb6",
      "resource": {
        "resourceType": "Condition",
        "id": "67de4214-9132-4ff7-93e2-f11f8b02aeb6",
        "meta": {
          "profile": [
            "http://hl7.org/fhir/uv/ips/StructureDefinition/Condition-uv-ips"
          ]
        },
        "category": [
          {
            "coding": [
              {
                "code": "problem-list-item",
                "system": "http://terminology.hl7.org/CodeSystem/condition-category",
                "display": "Problem List Item"
              }
            ]
          }
        ],
        "code": {
          "coding": [
            {
              "code": "312608009",
              "system": "http://snomed.info/sct",
              "display": "Laceration - injury (disorder)"
            }
          ],
          "text": "Laceration - injury"
        },
        "text": {
          "status": "generated",
          "div": "<div xmlns=\"http://www.w3.org/1999/xhtml\"><table class=\"hl7__ips\"><tr><td>Laceration - injury</td><td><span class=\"nb\">02-Jul-2025</span></td><td>active</td></tr></table></div>"
        },
        "onsetDateTime": "2025-07-02",
        "subject": {
          "reference": "urn:uuid:",
          "display": "Katy Johnston"
        },
        "asserter": {
          "reference": "urn:uuid:",
          "display": "Evelina Children&#039;s Hospital"
        }
      }
    },
    {
      "fullUrl": "urn:uuid:ba41c0b4-8c1b-41c3-a66b-ab3a8134a3c0",
      "resource": {
        "resourceType": "Condition",
        "id": "ba41c0b4-8c1b-41c3-a66b-ab3a8134a3c0",
        "meta": {
          "profile": [
            "http://hl7.org/fhir/uv/ips/StructureDefinition/Condition-uv-ips"
          ]
        },
        "category": [
          {
            "coding": [
              {
                "code": "problem-list-item",
                "system": "http://terminology.hl7.org/CodeSystem/condition-category",
                "display": "Problem List Item"
              }
            ]
          }
        ],
        "code": {
          "coding": [
            {
              "code": "15777000",
              "system": "http://snomed.info/sct",
              "display": "Prediabetes (disorder)"
            }
          ],
          "text": "Prediabetes"
        },
        "text": {
          "status": "generated",
          "div": "<div xmlns=\"http://www.w3.org/1999/xhtml\"><table class=\"hl7__ips\"><tr><td>Prediabetes</td><td><span class=\"nb\">17-Mar-2019</span></td><td>active</td></tr></table></div>"
        },
        "onsetDateTime": "2019-03-17",
        "subject": {
          "reference": "urn:uuid:",
          "display": "Katy Johnston"
        },
        "asserter": {
          "reference": "urn:uuid:",
          "display": "Evelina Children&#039;s Hospital"
        }
      }
    },
    {
      "fullUrl": "urn:uuid:1e7559a1-35be-4bcd-bf2f-61e79783eead",
      "resource": {
        "resourceType": "Condition",
        "id": "1e7559a1-35be-4bcd-bf2f-61e79783eead",
        "meta": {
          "profile": [
            "http://hl7.org/fhir/uv/ips/StructureDefinition/Condition-uv-ips"
          ]
        },
        "category": [
          {
            "coding": [
              {
                "code": "problem-list-item",
                "system": "http://terminology.hl7.org/CodeSystem/condition-category",
                "display": "Problem List Item"
              }
            ]
          }
        ],
        "code": {
          "coding": [
            {
              "code": "271737000",
              "system": "http://snomed.info/sct",
              "display": "Anemia (disorder)"
            }
          ],
          "text": "Anemia"
        },
        "text": {
          "status": "generated",
          "div": "<div xmlns=\"http://www.w3.org/1999/xhtml\"><table class=\"hl7__ips\"><tr><td>Anemia</td><td><span class=\"nb\">17-Mar-2019</span></td><td>active</td></tr></table></div>"
        },
        "onsetDateTime": "2019-03-17",
        "subject": {
          "reference": "urn:uuid:",
          "display": "Katy Johnston"
        },
        "asserter": {
          "reference": "urn:uuid:",
          "display": "Evelina Children&#039;s Hospital"
        }
      }
    },
    {
      "fullUrl": "urn:uuid:8cc0153d-b12d-4763-b185-a66e70ff6838",
      "resource": {
        "resourceType": "Condition",
        "id": "8cc0153d-b12d-4763-b185-a66e70ff6838",
        "meta": {
          "profile": [
            "http://hl7.org/fhir/uv/ips/StructureDefinition/Condition-uv-ips"
          ]
        },
        "category": [
          {
            "coding": [
              {
                "code": "problem-list-item",
                "system": "http://terminology.hl7.org/CodeSystem/condition-category",
                "display": "Problem List Item"
              }
            ]
          }
        ],
        "code": {
          "coding": [
            {
              "code": "203082005",
              "system": "http://snomed.info/sct",
              "display": "Fibromyalgia (disorder)"
            }
          ],
          "text": "Fibromyalgia"
        },
        "text": {
          "status": "generated",
          "div": "<div xmlns=\"http://www.w3.org/1999/xhtml\"><table class=\"hl7__ips\"><tr><td>Fibromyalgia</td><td><span class=\"nb\">04-Feb-2014</span></td><td>active</td></tr></table></div>"
        },
        "onsetDateTime": "2014-02-04",
        "subject": {
          "reference": "urn:uuid:",
          "display": "Katy Johnston"
        },
        "asserter": {
          "reference": "urn:uuid:",
          "display": "Evelina Children&#039;s Hospital"
        }
      }
    },
    {
      "fullUrl": "urn:uuid:e5dc97f1-c7eb-4bdc-874d-b7e7e3f10b39",
      "resource": {
        "resourceType": "Condition",
        "id": "e5dc97f1-c7eb-4bdc-874d-b7e7e3f10b39",
        "meta": {
          "profile": [
            "http://hl7.org/fhir/uv/ips/StructureDefinition/Condition-uv-ips"
          ]
        },
        "category": [
          {
            "coding": [
              {
                "code": "problem-list-item",
                "system": "http://terminology.hl7.org/CodeSystem/condition-category",
                "display": "Problem List Item"
              }
            ]
          }
        ],
        "code": {
          "coding": [
            {
              "code": "6525002",
              "system": "http://snomed.info/sct",
              "display": "Dependent drug abuse (disorder)"
            }
          ],
          "text": "Dependent drug abuse"
        },
        "text": {
          "status": "generated",
          "div": "<div xmlns=\"http://www.w3.org/1999/xhtml\"><table class=\"hl7__ips\"><tr><td>Dependent drug abuse</td><td><span class=\"nb\">07-Aug-2005</span></td><td>active</td></tr></table></div>"
        },
        "onsetDateTime": "2005-08-07",
        "subject": {
          "reference": "urn:uuid:",
          "display": "Katy Johnston"
        },
        "asserter": {
          "reference": "urn:uuid:",
          "display": "Evelina Children&#039;s Hospital"
        }
      }
    },
    {
      "fullUrl": "urn:uuid:cf20c34e-297c-4e70-9995-e14246bd850c",
      "resource": {
        "resourceType": "Condition",
        "id": "cf20c34e-297c-4e70-9995-e14246bd850c",
        "meta": {
          "profile": [
            "http://hl7.org/fhir/uv/ips/StructureDefinition/Condition-uv-ips"
          ]
        },
        "category": [
          {
            "coding": [
              {
                "code": "problem-list-item",
                "system": "http://terminology.hl7.org/CodeSystem/condition-category",
                "display": "Problem List Item"
              }
            ]
          }
        ],
        "code": {
          "coding": [
            {
              "code": "124171000119105",
              "system": "http://snomed.info/sct",
              "display": "Chronic intractable migraine without aura (disorder)"
            }
          ],
          "text": "Chronic intractable migraine without aura"
        },
        "text": {
          "status": "generated",
          "div": "<div xmlns=\"http://www.w3.org/1999/xhtml\"><table class=\"hl7__ips\"><tr><td>Chronic intractable migraine without aura</td><td><span class=\"nb\">27-Sep-2001</span></td><td>active</td></tr></table></div>"
        },
        "onsetDateTime": "2001-09-27",
        "subject": {
          "reference": "urn:uuid:",
          "display": "Katy Johnston"
        },
        "asserter": {
          "reference": "urn:uuid:",
          "display": "Evelina Children&#039;s Hospital"
        }
      }
    },
    {
      "fullUrl": "urn:uuid:34c3d07f-113d-4484-ad98-1612d0bf4e72",
      "resource": {
        "resourceType": "Condition",
        "id": "34c3d07f-113d-4484-ad98-1612d0bf4e72",
        "meta": {
          "profile": [
            "http://hl7.org/fhir/uv/ips/StructureDefinition/Condition-uv-ips"
          ]
        },
        "category": [
          {
            "coding": [
              {
                "code": "problem-list-item",
                "system": "http://terminology.hl7.org/CodeSystem/condition-category",
                "display": "Problem List Item"
              }
            ]
          }
        ],
        "code": {
          "coding": [
            {
              "code": "196416002",
              "system": "http://snomed.info/sct",
              "display": "Impacted molars (disorder)"
            }
          ],
          "text": "Impacted molars"
        },
        "text": {
          "status": "generated",
          "div": "<div xmlns=\"http://www.w3.org/1999/xhtml\"><table class=\"hl7__ips\"><tr><td>Impacted molars</td><td><span class=\"nb\">21-Jun-2001</span></td><td>active</td></tr></table></div>"
        },
        "onsetDateTime": "2001-06-21",
        "subject": {
          "reference": "urn:uuid:",
          "display": "Katy Johnston"
        },
        "asserter": {
          "reference": "urn:uuid:",
          "display": "Evelina Children&#039;s Hospital"
        }
      }
    },
    {
      "fullUrl": "urn:uuid:967a436f-e69e-4f69-9a33-3892baade6ce",
      "resource": {
        "resourceType": "Condition",
        "id": "967a436f-e69e-4f69-9a33-3892baade6ce",
        "meta": {
          "profile": [
            "http://hl7.org/fhir/uv/ips/StructureDefinition/Condition-uv-ips"
          ]
        },
        "category": [
          {
            "coding": [
              {
                "code": "problem-list-item",
                "system": "http://terminology.hl7.org/CodeSystem/condition-category",
                "display": "Problem List Item"
              }
            ]
          }
        ],
        "code": {
          "coding": [
            {
              "code": "444814009",
              "system": "http://snomed.info/sct",
              "display": "Viral sinusitis (disorder)"
            }
          ],
          "text": "Viral sinusitis"
        },
        "text": {
          "status": "generated",
          "div": "<div xmlns=\"http://www.w3.org/1999/xhtml\"><table class=\"hl7__ips\"><tr><td><span class=\"grayedout\">Viral sinusitis</span></td><td><span class=\"nb\">22-Oct-2023 - 16-Nov-2023</span></td><td><span class=\"grayedout\">inactive</span></td></tr></table></div>"
        },
        "onsetDateTime": "2023-10-22",
        "abatementDateTime": "2023-11-16",
        "subject": {
          "reference": "urn:uuid:",
          "display": "Katy Johnston"
        },
        "asserter": {
          "reference": "urn:uuid:",
          "display": "Evelina Children&#039;s Hospital"
        }
      }
    },
    {
      "fullUrl": "urn:uuid:ba6629f3-36ed-4f09-b717-e5e07a337486",
      "resource": {
        "resourceType": "Condition",
        "id": "ba6629f3-36ed-4f09-b717-e5e07a337486",
        "meta": {
          "profile": [
            "http://hl7.org/fhir/uv/ips/StructureDefinition/Condition-uv-ips"
          ]
        },
        "category": [
          {
            "coding": [
              {
                "code": "problem-list-item",
                "system": "http://terminology.hl7.org/CodeSystem/condition-category",
                "display": "Problem List Item"
              }
            ]
          }
        ],
        "code": {
          "coding": [
            {
              "code": "55680006",
              "system": "http://snomed.info/sct",
              "display": "Drug overdose (disorder)"
            }
          ],
          "text": "Drug overdose"
        },
        "text": {
          "status": "generated",
          "div": "<div xmlns=\"http://www.w3.org/1999/xhtml\"><table class=\"hl7__ips\"><tr><td><span class=\"grayedout\">Drug overdose</span></td><td><span class=\"nb\">01-Oct-2021 - 01-Oct-2021</span></td><td><span class=\"grayedout\">inactive</span></td></tr></table></div>"
        },
        "onsetDateTime": "2021-10-01",
        "abatementDateTime": "2021-10-01",
        "subject": {
          "reference": "urn:uuid:",
          "display": "Katy Johnston"
        },
        "asserter": {
          "reference": "urn:uuid:",
          "display": "Evelina Children&#039;s Hospital"
        }
      }
    },
    {
      "fullUrl": "urn:uuid:d8c132a9-611a-467f-8268-4e95cfe91016",
      "resource": {
        "resourceType": "Condition",
        "id": "d8c132a9-611a-467f-8268-4e95cfe91016",
        "meta": {
          "profile": [
            "http://hl7.org/fhir/uv/ips/StructureDefinition/Condition-uv-ips"
          ]
        },
        "category": [
          {
            "coding": [
              {
                "code": "problem-list-item",
                "system": "http://terminology.hl7.org/CodeSystem/condition-category",
                "display": "Problem List Item"
              }
            ]
          }
        ],
        "code": {
          "coding": [
            {
              "code": "55680006",
              "system": "http://snomed.info/sct",
              "display": "Drug overdose (disorder)"
            }
          ],
          "text": "Drug overdose"
        },
        "text": {
          "status": "generated",
          "div": "<div xmlns=\"http://www.w3.org/1999/xhtml\"><table class=\"hl7__ips\"><tr><td><span class=\"grayedout\">Drug overdose</span></td><td><span class=\"nb\">05-Feb-2020 - 05-Feb-2020</span></td><td><span class=\"grayedout\">inactive</span></td></tr></table></div>"
        },
        "onsetDateTime": "2020-02-05",
        "abatementDateTime": "2020-02-05",
        "subject": {
          "reference": "urn:uuid:",
          "display": "Katy Johnston"
        },
        "asserter": {
          "reference": "urn:uuid:",
          "display": "Evelina Children&#039;s Hospital"
        }
      }
    },
    {
      "fullUrl": "urn:uuid:f5393916-dcd0-44ca-b65a-99829c7e9695",
      "resource": {
        "resourceType": "Condition",
        "id": "f5393916-dcd0-44ca-b65a-99829c7e9695",
        "meta": {
          "profile": [
            "http://hl7.org/fhir/uv/ips/StructureDefinition/Condition-uv-ips"
          ]
        },
        "category": [
          {
            "coding": [
              {
                "code": "problem-list-item",
                "system": "http://terminology.hl7.org/CodeSystem/condition-category",
                "display": "Problem List Item"
              }
            ]
          }
        ],
        "code": {
          "coding": [
            {
              "code": "55680006",
              "system": "http://snomed.info/sct",
              "display": "Drug overdose (disorder)"
            }
          ],
          "text": "Drug overdose"
        },
        "text": {
          "status": "generated",
          "div": "<div xmlns=\"http://www.w3.org/1999/xhtml\"><table class=\"hl7__ips\"><tr><td><span class=\"grayedout\">Drug overdose</span></td><td><span class=\"nb\">23-Aug-2017 - 23-Aug-2017</span></td><td><span class=\"grayedout\">inactive</span></td></tr></table></div>"
        },
        "onsetDateTime": "2017-08-23",
        "abatementDateTime": "2017-08-23",
        "subject": {
          "reference": "urn:uuid:",
          "display": "Katy Johnston"
        },
        "asserter": {
          "reference": "urn:uuid:",
          "display": "Evelina Children&#039;s Hospital"
        }
      }
    },
    {
      "fullUrl": "urn:uuid:181eafbc-58d5-4717-8467-d96534ce3e3a",
      "resource": {
        "resourceType": "Condition",
        "id": "181eafbc-58d5-4717-8467-d96534ce3e3a",
        "meta": {
          "profile": [
            "http://hl7.org/fhir/uv/ips/StructureDefinition/Condition-uv-ips"
          ]
        },
        "category": [
          {
            "coding": [
              {
                "code": "problem-list-item",
                "system": "http://terminology.hl7.org/CodeSystem/condition-category",
                "display": "Problem List Item"
              }
            ]
          }
        ],
        "code": {
          "coding": [
            {
              "code": "444814009",
              "system": "http://snomed.info/sct",
              "display": "Viral sinusitis (disorder)"
            }
          ],
          "text": "Viral sinusitis"
        },
        "text": {
          "status": "generated",
          "div": "<div xmlns=\"http://www.w3.org/1999/xhtml\"><table class=\"hl7__ips\"><tr><td><span class=\"grayedout\">Viral sinusitis</span></td><td><span class=\"nb\">29-Apr-2017 - 19-May-2017</span></td><td><span class=\"grayedout\">inactive</span></td></tr></table></div>"
        },
        "onsetDateTime": "2017-04-29",
        "abatementDateTime": "2017-05-19",
        "subject": {
          "reference": "urn:uuid:",
          "display": "Katy Johnston"
        },
        "asserter": {
          "reference": "urn:uuid:",
          "display": "Evelina Children&#039;s Hospital"
        }
      }
    },
    {
      "fullUrl": "urn:uuid:5785a3e2-4e1c-47c0-be24-2034fe4d872d",
      "resource": {
        "resourceType": "Condition",
        "id": "5785a3e2-4e1c-47c0-be24-2034fe4d872d",
        "meta": {
          "profile": [
            "http://hl7.org/fhir/uv/ips/StructureDefinition/Condition-uv-ips"
          ]
        },
        "category": [
          {
            "coding": [
              {
                "code": "problem-list-item",
                "system": "http://terminology.hl7.org/CodeSystem/condition-category",
                "display": "Problem List Item"
              }
            ]
          }
        ],
        "code": {
          "coding": [
            {
              "code": "55680006",
              "system": "http://snomed.info/sct",
              "display": "Drug overdose (disorder)"
            }
          ],
          "text": "Drug overdose"
        },
        "text": {
          "status": "generated",
          "div": "<div xmlns=\"http://www.w3.org/1999/xhtml\"><table class=\"hl7__ips\"><tr><td><span class=\"grayedout\">Drug overdose</span></td><td><span class=\"nb\">09-Dec-2015 - 10-Dec-2015</span></td><td><span class=\"grayedout\">inactive</span></td></tr></table></div>"
        },
        "onsetDateTime": "2015-12-09",
        "abatementDateTime": "2015-12-10",
        "subject": {
          "reference": "urn:uuid:",
          "display": "Katy Johnston"
        },
        "asserter": {
          "reference": "urn:uuid:",
          "display": "Evelina Children&#039;s Hospital"
        }
      }
    },
    {
      "fullUrl": "urn:uuid:3b516292-c7be-4c73-9a06-3965ec552619",
      "resource": {
        "resourceType": "Medication",
        "id": "3b516292-c7be-4c73-9a06-3965ec552619",
        "meta": {
          "profile": [
            "http://hl7.eu/fhir/eps/StructureDefinition/Medication-eu-eps"
          ]
        },
        "code": {
          "coding": [
            {
              "code": "370150001",
              "system": "http://snomed.info/sct",
              "display": "Acetaminophen 325 mg oral tablet"
            }
          ],
          "text": "Acetaminophen 325 mg oral tablet"
        },
        "text": {
          "status": "generated",
          "div": "<div xmlns=\"http://www.w3.org/1999/xhtml\">Acetaminophen 325 mg oral tablet</div>"
        }
      }
    },
    {
      "fullUrl": "urn:uuid:193b9b2a-e17f-41c7-a7eb-d7b8e9d94778",
      "resource": {
        "resourceType": "MedicationStatement",
        "id": "193b9b2a-e17f-41c7-a7eb-d7b8e9d94778",
        "meta": {
          "profile": [
            "http://hl7.eu/fhir/eps/StructureDefinition/MedicationStatement-eu-eps"
          ]
        },
        "effectivePeriod": {
          "start": "2025-07-02"
        },
        "dosage": [
          {
            "doseAndRate": [
              {
                "doseQuantity": {
                  "value": 1,
                  "unit": "{tbl}",
                  "system": "$ucum",
                  "code": "{tbl}"
                }
              }
            ],
            "timing": {
              "repeat": {
                "frequency": 1,
                "period": 4,
                "periodUnit": "h"
              }
            },
            "text": "1 tablet (325 mg) by mouth every 4 to 6 hours as needed for pain. Do not exceed 12 tablets (3900 mg) in 24 hours.",
            "asNeededBoolean": true
          }
        ],
        "text": {
          "status": "generated",
          "div": "<div xmlns=\"http://www.w3.org/1999/xhtml\"><table class=\"hl7__ips first25\"><tr><th>Medication</th><th>Since</th><th>Form</th><th>Dosage</th><th>Reason</th></tr><tr><td>Acetaminophen 325 mg oral tablet</td><td><span class=\"nb\">2025-07-02</span></td><td>-</td><td>1 tablet (325 mg) by mouth every 4 to 6 hours as needed for pain. Do not exceed 12 tablets (3900 mg) in 24 hours.</td><td>-</td></tr></table></div>"
        },
        "status": "active",
        "medicationReference": {
          "reference": "urn:uuid:3b516292-c7be-4c73-9a06-3965ec552619",
          "display": "Acetaminophen 325 mg oral tablet"
        },
        "subject": {
          "reference": "urn:uuid:c5de0a53-e757-4182-9880-a8f6c0107ec4",
          "display": "Katy Johnston"
        }
      }
    },
    {
      "fullUrl": "urn:uuid:9513ec36-1090-46a4-a901-c5f868185df7",
      "resource": {
        "resourceType": "Medication",
        "id": "9513ec36-1090-46a4-a901-c5f868185df7",
        "meta": {
          "profile": [
            "http://hl7.eu/fhir/eps/StructureDefinition/Medication-eu-eps"
          ]
        },
        "code": {
          "coding": [
            {
              "code": "420397007",
              "system": "http://snomed.info/sct",
              "display": "Acetaminophen 300 mg and hydrocodone bitartrate 5 mg oral tablet"
            }
          ],
          "text": "Acetaminophen 300 mg and hydrocodone bitartrate 5 mg oral tablet"
        },
        "text": {
          "status": "generated",
          "div": "<div xmlns=\"http://www.w3.org/1999/xhtml\">Acetaminophen 300 mg and hydrocodone bitartrate 5 mg oral tablet</div>"
        }
      }
    },
    {
      "fullUrl": "urn:uuid:53982195-57c6-424a-9700-ac5c35f500c8",
      "resource": {
        "resourceType": "MedicationStatement",
        "id": "53982195-57c6-424a-9700-ac5c35f500c8",
        "meta": {
          "profile": [
            "http://hl7.eu/fhir/eps/StructureDefinition/MedicationStatement-eu-eps"
          ]
        },
        "effectivePeriod": {
          "start": "2025-04-20"
        },
        "dosage": [
          {
            "doseAndRate": [
              {
                "doseQuantity": {
                  "value": 1,
                  "unit": "{tbl}",
                  "code": "{tbl}"
                }
              }
            ],
            "timing": {
              "repeat": {
                "frequency": 6,
                "period": 1,
                "periodUnit": "d"
              }
            },
            "text": "1 tablet (300 mg/5 mg) every 4 to 6 hours as needed for pain",
            "asNeededBoolean": true
          }
        ],
        "text": {
          "status": "generated",
          "div": "<div xmlns=\"http://www.w3.org/1999/xhtml\"><table class=\"hl7__ips first25\"><tr><th>Medication</th><th>Since</th><th>Form</th><th>Dosage</th><th>Reason</th></tr><tr><td>Acetaminophen 300 mg and hydrocodone bitartrate 5 mg oral tablet</td><td><span class=\"nb\">2025-04-20</span></td><td>-</td><td>1 tablet (300 mg/5 mg) every 4 to 6 hours as needed for pain</td><td>-</td></tr></table></div>"
        },
        "status": "active",
        "medicationReference": {
          "reference": "urn:uuid:9513ec36-1090-46a4-a901-c5f868185df7",
          "display": "Acetaminophen 300 mg and hydrocodone bitartrate 5 mg oral tablet"
        },
        "subject": {
          "reference": "urn:uuid:c5de0a53-e757-4182-9880-a8f6c0107ec4",
          "display": "Katy Johnston"
        }
      }
    },
    {
      "fullUrl": "urn:uuid:de421e3b-69b0-47eb-93da-ed0bcf5356e2",
      "resource": {
        "resourceType": "Medication",
        "id": "de421e3b-69b0-47eb-93da-ed0bcf5356e2",
        "meta": {
          "profile": [
            "http://hl7.eu/fhir/eps/StructureDefinition/Medication-eu-eps"
          ]
        },
        "code": {
          "coding": [
            {
              "code": "320726008",
              "system": "http://snomed.info/sct",
              "display": "Diphenhydramine hydrochloride 25 mg oral tablet"
            }
          ],
          "text": "Diphenhydramine hydrochloride 25 mg oral tablet"
        },
        "text": {
          "status": "generated",
          "div": "<div xmlns=\"http://www.w3.org/1999/xhtml\">Diphenhydramine hydrochloride 25 mg oral tablet</div>"
        }
      }
    },
    {
      "fullUrl": "urn:uuid:688cf620-fb13-42fb-8b9c-2bb3a17da7de",
      "resource": {
        "resourceType": "MedicationStatement",
        "id": "688cf620-fb13-42fb-8b9c-2bb3a17da7de",
        "meta": {
          "profile": [
            "http://hl7.eu/fhir/eps/StructureDefinition/MedicationStatement-eu-eps"
          ]
        },
        "effectivePeriod": {
          "start": "1988-04-02"
        },
        "dosage": [
          {
            "doseAndRate": [
              {
                "doseQuantity": {
                  "value": 1,
                  "unit": "{tbl}",
                  "system": "$ucum",
                  "code": "{tbl}"
                }
              }
            ],
            "timing": {
              "repeat": {
                "frequency": 4,
                "period": 1,
                "periodUnit": "d"
              }
            },
            "text": "1 tablet (25 mg) every 6 hours as needed",
            "asNeededBoolean": true
          }
        ],
        "text": {
          "status": "generated",
          "div": "<div xmlns=\"http://www.w3.org/1999/xhtml\"><table class=\"hl7__ips first25\"><tr><th>Medication</th><th>Since</th><th>Form</th><th>Dosage</th><th>Reason</th></tr><tr><td>Diphenhydramine hydrochloride 25 mg oral tablet</td><td><span class=\"nb\">1988-04-02</span></td><td>-</td><td>1 tablet (25 mg) every 6 hours as needed</td><td>-</td></tr></table></div>"
        },
        "status": "active",
        "medicationReference": {
          "reference": "urn:uuid:de421e3b-69b0-47eb-93da-ed0bcf5356e2",
          "display": "Diphenhydramine hydrochloride 25 mg oral tablet"
        },
        "subject": {
          "reference": "urn:uuid:c5de0a53-e757-4182-9880-a8f6c0107ec4",
          "display": "Katy Johnston"
        }
      }
    },
    {
      "fullUrl": "urn:uuid:430c7ca9-9719-4a93-a07b-e323714759e7",
      "resource": {
        "resourceType": "Medication",
        "id": "430c7ca9-9719-4a93-a07b-e323714759e7",
        "meta": {
          "profile": [
            "http://hl7.eu/fhir/eps/StructureDefinition/Medication-eu-eps"
          ]
        },
        "code": {
          "coding": [
            {
              "code": "781862008",
              "system": "http://snomed.info/sct",
              "display": "Epinephrine 1 mg/mL solution for injection"
            }
          ],
          "text": "Epinephrine 1 mg/mL solution for injection"
        },
        "text": {
          "status": "generated",
          "div": "<div xmlns=\"http://www.w3.org/1999/xhtml\">Epinephrine 1 mg/mL solution for injection</div>"
        }
      }
    },
    {
      "fullUrl": "urn:uuid:44582c4a-ef3c-4cc1-91ba-d64748ca42d4",
      "resource": {
        "resourceType": "MedicationStatement",
        "id": "44582c4a-ef3c-4cc1-91ba-d64748ca42d4",
        "meta": {
          "profile": [
            "http://hl7.eu/fhir/eps/StructureDefinition/MedicationStatement-eu-eps"
          ]
        },
        "effectivePeriod": {
          "start": "1988-04-02"
        },
        "dosage": [
          {
            "doseAndRate": [
              {
                "doseQuantity": {
                  "value": 0.3,
                  "unit": "mg",
                  "system": "$ucum",
                  "code": "mg"
                }
              }
            ],
            "timing": {
              "repeat": {
                "frequency": 1,
                "period": 1,
                "periodUnit": "d"
              }
            },
            "text": "0.3 mg (1 mg/mL) injected intramuscularly as needed for anaphylaxis",
            "asNeededBoolean": true
          }
        ],
        "text": {
          "status": "generated",
          "div": "<div xmlns=\"http://www.w3.org/1999/xhtml\"><table class=\"hl7__ips first25\"><tr><th>Medication</th><th>Since</th><th>Form</th><th>Dosage</th><th>Reason</th></tr><tr><td>Epinephrine 1 mg/mL solution for injection</td><td><span class=\"nb\">1988-04-02</span></td><td>-</td><td>0.3 mg (1 mg/mL) injected intramuscularly as needed for anaphylaxis</td><td>-</td></tr></table></div>"
        },
        "status": "active",
        "medicationReference": {
          "reference": "urn:uuid:430c7ca9-9719-4a93-a07b-e323714759e7",
          "display": "Epinephrine 1 mg/mL solution for injection"
        },
        "subject": {
          "reference": "urn:uuid:c5de0a53-e757-4182-9880-a8f6c0107ec4",
          "display": "Katy Johnston"
        }
      }
    },
    {
      "fullUrl": "urn:uuid:742bb9c4-fd0e-455d-904c-2da9b256138c",
      "resource": {
        "resourceType": "Immunization",
        "id": "742bb9c4-fd0e-455d-904c-2da9b256138c",
        "meta": {
          "profile": [
            "http://hl7.org/fhir/uv/ips/StructureDefinition/Immunization-uv-ips"
          ]
        },
        "vaccineCode": {
          "coding": [
            {
              "code": "1181000221105",
              "system": "http://snomed.info/sct",
              "display": "Vaccine product containing Influenza virus antigen"
            },
            {
              "code": "J07BB02",
              "system": "http://www.whocc.no/atc",
              "display": "Influenza, inactivated, split virus"
            }
          ],
          "text": "Influenza virus antigen only vaccine product"
        },
        "site": {
          "coding": [
            {
              "code": "244979005",
              "system": "http://snomed.info/sct",
              "display": "Entire muscle of upper arm"
            }
          ],
          "text": "Entire muscle of upper arm"
        },
        "route": {
          "coding": [
            {
              "code": "78421000",
              "system": "http://snomed.info/sct",
              "display": "Intramuscular route"
            }
          ],
          "text": "Intramuscular route"
        },
        "text": {
          "status": "generated",
          "div": "<div xmlns=\"http://www.w3.org/1999/xhtml\"><table class=\"hl7__ips\"><tr><td>Influenza virus antigen only vaccine product</td><td><span class=\"nb\">20-Apr-2025</span></td></tr></table></div>"
        },
        "status": "completed",
        "patient": {
          "reference": "urn:uuid:c5de0a53-e757-4182-9880-a8f6c0107ec4",
          "display": "Katy Johnston"
        },
        "occurrenceDateTime": "2025-04-20",
        "lotNumber": "ON-Ju8GQZGBN",
        "expirationDate": "2025-08-11"
      }
    },
    {
      "fullUrl": "urn:uuid:03a52a5c-909e-4ace-b0e8-00d89979d36e",
      "resource": {
        "resourceType": "Immunization",
        "id": "03a52a5c-909e-4ace-b0e8-00d89979d36e",
        "meta": {
          "profile": [
            "http://hl7.org/fhir/uv/ips/StructureDefinition/Immunization-uv-ips"
          ]
        },
        "vaccineCode": {
          "coding": [
            {
              "code": "1119349007",
              "system": "http://snomed.info/sct",
              "display": "Vaccine product containing SARS-CoV-2 mRNA"
            },
            {
              "code": "J07BX03",
              "system": "http://www.whocc.no/atc",
              "display": "COVID-19 mRNA vaccines"
            }
          ],
          "text": "SARS-CoV-2 mRNA vaccine"
        },
        "site": {
          "coding": [
            {
              "code": "244979005",
              "system": "http://snomed.info/sct",
              "display": "Entire muscle of upper arm"
            }
          ],
          "text": "Entire muscle of upper arm"
        },
        "route": {
          "coding": [
            {
              "code": "78421000",
              "system": "http://snomed.info/sct",
              "display": "Intramuscular route"
            }
          ],
          "text": "Intramuscular route"
        },
        "text": {
          "status": "generated",
          "div": "<div xmlns=\"http://www.w3.org/1999/xhtml\"><table class=\"hl7__ips\"><tr><td>SARS-CoV-2 mRNA vaccine</td><td><span class=\"nb\">20-Jun-2021</span></td></tr></table></div>"
        },
        "status": "completed",
        "patient": {
          "reference": "urn:uuid:c5de0a53-e757-4182-9880-a8f6c0107ec4",
          "display": "Katy Johnston"
        },
        "occurrenceDateTime": "2021-06-20",
        "lotNumber": "XW-TpiBjFz",
        "expirationDate": "2022-06-24"
      }
    },
    {
      "fullUrl": "urn:uuid:b5433caa-47ed-4b7c-9a1a-5dcc6d61b96f",
      "resource": {
        "resourceType": "Immunization",
        "id": "b5433caa-47ed-4b7c-9a1a-5dcc6d61b96f",
        "meta": {
          "profile": [
            "http://hl7.org/fhir/uv/ips/StructureDefinition/Immunization-uv-ips"
          ]
        },
        "vaccineCode": {
          "coding": [
            {
              "code": "777725002",
              "system": "http://snomed.info/sct",
              "display": "Vaccine product containing only Clostridium tetani toxoid antigen adsorbed"
            },
            {
              "code": "J07AM51",
              "system": "http://www.whocc.no/atc",
              "display": "Diphtheria-tetanus vaccines, adult type"
            }
          ],
          "text": "Clostridium tetani toxoid antigen adsorbed only vaccine product"
        },
        "site": {
          "coding": [
            {
              "code": "244979005",
              "system": "http://snomed.info/sct",
              "display": "Entire muscle of upper arm"
            }
          ],
          "text": "Entire muscle of upper arm"
        },
        "route": {
          "coding": [
            {
              "code": "78421000",
              "system": "http://snomed.info/sct",
              "display": "Intramuscular route"
            }
          ],
          "text": "Intramuscular route"
        },
        "text": {
          "status": "generated",
          "div": "<div xmlns=\"http://www.w3.org/1999/xhtml\"><table class=\"hl7__ips\"><tr><td>Clostridium tetani toxoid antigen adsorbed only vaccine product</td><td><span class=\"nb\">17-Mar-2019</span></td></tr></table></div>"
        },
        "status": "completed",
        "patient": {
          "reference": "urn:uuid:c5de0a53-e757-4182-9880-a8f6c0107ec4",
          "display": "Katy Johnston"
        },
        "occurrenceDateTime": "2019-03-17",
        "lotNumber": "CW-19iVc",
        "expirationDate": "2019-06-12"
      }
    },
    {
      "fullUrl": "urn:uuid:6cec2ab2-8ed1-4cb8-96ff-32881377dcb8",
      "resource": {
        "resourceType": "Procedure",
        "id": "6cec2ab2-8ed1-4cb8-96ff-32881377dcb8",
        "meta": {
          "profile": [
            "http://hl7.org/fhir/uv/ips/StructureDefinition/Procedure-uv-ips"
          ]
        },
        "code": {
          "coding": [
            {
              "code": "288086009",
              "system": "http://snomed.info/sct",
              "display": "Suture open wound"
            }
          ],
          "text": "Suture open wound"
        },
        "reasonCode": [
          {
            "coding": [
              {
                "code": "284549007",
                "system": "http://snomed.info/sct",
                "display": "Laceration of hand"
              }
            ]
          }
        ],
        "text": {
          "status": "generated",
          "div": "<div xmlns=\"http://www.w3.org/1999/xhtml\"><table class=\"hl7__ips\"><tr><td>Suture open wound</td><td><span class=\"nb\">02-Jul-2025</span></td><td>Laceration of hand</td></tr></table></div>"
        },
        "status": "completed",
        "performedDateTime": "2025-07-02",
        "subject": {
          "reference": "urn:uuid:",
          "display": "Katy Johnston"
        }
      }
    },
    {
      "fullUrl": "urn:uuid:9a6a81c3-65ba-4631-aab9-4fc84daf960c",
      "resource": {
        "resourceType": "AllergyIntolerance",
        "id": "9a6a81c3-65ba-4631-aab9-4fc84daf960c",
        "meta": {
          "profile": [
            "http://hl7.eu/fhir/eps/StructureDefinition/allergyIntolerance-eu-eps"
          ]
        },
        "code": {
          "coding": [
            {
              "code": "84489001",
              "system": "http://snomed.info/sct",
              "display": "Mold (organism)"
            }
          ],
          "text": "Mold"
        },
        "clinicalStatus": {
          "coding": [
            {
              "code": "active",
              "system": "http://terminology.hl7.org/CodeSystem/allergyintolerance-clinical"
            }
          ]
        },
        "category": [
          "environment"
        ],
        "text": {
          "status": "generated",
          "div": "<div xmlns=\"http://www.w3.org/1999/xhtml\"><table class=\"hl7__ips\"><tr><th>Allergy/Intolerance</th><th>Onset Date</th><th>Status</th><th>Type</th><th>Reaction</th></tr><tr><td>Mold</td><td><span class=\"nb\">1988-04-02</span></td><td>active</td><td>environment</td><td></td></tr></table></div>"
        },
        "onsetDateTime": "1988-04-02",
        "verificationStatus": {
          "coding": [
            {
              "code": "confirmed",
              "system": "http://terminology.hl7.org/CodeSystem/allergyintolerance-verification"
            }
          ]
        },
        "type": "allergy",
        "patient": {
          "reference": "urn:uuid:c5de0a53-e757-4182-9880-a8f6c0107ec4",
          "display": "Katy Johnston"
        }
      }
    },
    {
      "fullUrl": "urn:uuid:2276fd6d-aec8-4e78-8f6c-896aee53021e",
      "resource": {
        "resourceType": "AllergyIntolerance",
        "id": "2276fd6d-aec8-4e78-8f6c-896aee53021e",
        "meta": {
          "profile": [
            "http://hl7.eu/fhir/eps/StructureDefinition/allergyIntolerance-eu-eps"
          ]
        },
        "code": {
          "coding": [
            {
              "code": "102263004",
              "system": "http://snomed.info/sct",
              "display": "Eggs (edible) (substance)"
            }
          ],
          "text": "Eggs (edible)"
        },
        "clinicalStatus": {
          "coding": [
            {
              "code": "active",
              "system": "http://terminology.hl7.org/CodeSystem/allergyintolerance-clinical"
            }
          ]
        },
        "category": [
          "food"
        ],
        "reaction": [
          {
            "manifestation": [
              {
                "coding": [
                  {
                    "code": "247472004",
                    "system": "http://snomed.info/sct",
                    "display": "Wheal (finding)"
                  }
                ]
              }
            ],
            "severity": "moderate"
          }
        ],
        "text": {
          "status": "generated",
          "div": "<div xmlns=\"http://www.w3.org/1999/xhtml\"><table class=\"hl7__ips\"><tr><th>Allergy/Intolerance</th><th>Onset Date</th><th>Status</th><th>Type</th><th>Reaction</th></tr><tr><td>Eggs (edible)</td><td><span class=\"nb\">1988-04-02</span></td><td>active</td><td>food</td><td>Wheal (finding)</td></tr></table></div>"
        },
        "onsetDateTime": "1988-04-02",
        "verificationStatus": {
          "coding": [
            {
              "code": "confirmed",
              "system": "http://terminology.hl7.org/CodeSystem/allergyintolerance-verification"
            }
          ]
        },
        "type": "allergy",
        "patient": {
          "reference": "urn:uuid:c5de0a53-e757-4182-9880-a8f6c0107ec4",
          "display": "Katy Johnston"
        }
      }
    },
    {
      "fullUrl": "urn:uuid:95480281-82b6-4550-99ac-aa2ecdb549bf",
      "resource": {
        "resourceType": "AllergyIntolerance",
        "id": "95480281-82b6-4550-99ac-aa2ecdb549bf",
        "meta": {
          "profile": [
            "http://hl7.eu/fhir/eps/StructureDefinition/allergyIntolerance-eu-eps"
          ]
        },
        "code": {
          "coding": [
            {
              "code": "419199007",
              "system": "http://snomed.info/sct",
              "display": "Allergy to substance (finding)"
            }
          ],
          "text": "Allergy to substance"
        },
        "clinicalStatus": {
          "coding": [
            {
              "code": "active",
              "system": "http://terminology.hl7.org/CodeSystem/allergyintolerance-clinical"
            }
          ]
        },
        "category": [
          "environment"
        ],
        "text": {
          "status": "generated",
          "div": "<div xmlns=\"http://www.w3.org/1999/xhtml\"><table class=\"hl7__ips\"><tr><th>Allergy/Intolerance</th><th>Onset Date</th><th>Status</th><th>Type</th><th>Reaction</th></tr><tr><td>Allergy to substance</td><td><span class=\"nb\">1988-04-02</span></td><td>active</td><td>environment</td><td></td></tr></table></div>"
        },
        "onsetDateTime": "1988-04-02",
        "verificationStatus": {
          "coding": [
            {
              "code": "confirmed",
              "system": "http://terminology.hl7.org/CodeSystem/allergyintolerance-verification"
            }
          ]
        },
        "type": "allergy",
        "patient": {
          "reference": "urn:uuid:c5de0a53-e757-4182-9880-a8f6c0107ec4",
          "display": "Katy Johnston"
        }
      }
    },
    {
      "fullUrl": "urn:uuid:934a9a91-b66a-4902-9d0e-8e9ef761d6f9",
      "resource": {
        "resourceType": "CarePlan",
        "id": "934a9a91-b66a-4902-9d0e-8e9ef761d6f9",
        "category": [
          {
            "coding": [
              {
                "code": "assess-plan",
                "system": "http://terminology.hl7.org/CodeSystem/care-plan-category",
                "display": "Assessment and Plan"
              }
            ]
          }
        ],
        "activity": [
          {
            "detail": {
              "code": {
                "coding": [
                  {
                    "code": "225358003",
                    "system": "http://snomed.info/sct",
                    "display": "Wound care (regime/therapy)"
                  }
                ]
              },
              "reasonCode": [
                {
                  "coding": [
                    {
                      "code": "284549007",
                      "system": "http://snomed.info/sct",
                      "display": "Laceration of hand"
                    }
                  ]
                }
              ],
              "status": "unknown",
              "description": "Wound care",
              "kind": "Appointment"
            }
          }
        ],
        "period": {
          "start": "2025-07-02"
        },
        "goal": [
          {
            "reference": "urn:uuid:67078b21-389f-412a-871a-edca7604de1c"
          },
          {
            "reference": "urn:uuid:c0d9a821-2b90-4d95-8f42-370912419916"
          },
          {
            "reference": "urn:uuid:3a95c620-75fd-4f56-9afe-f704783e6a58"
          }
        ],
        "text": {
          "status": "generated",
          "div": "<div xmlns=\"http://www.w3.org/1999/xhtml\"><table class=\"hl7__ips first25\"><tr><th>Active Planned Care / Goals</th><th>Start Date</th><th>Reason</th></tr><tr><td>Wound care</td><td><span class=\"nb\">02-Jul-2025</span></td><td>Laceration of hand</td></tr><tr><td><ul><li>Achieve full epithelialization of the hand laceration without signs of infection.</li><li>Reduce wound size to 0 cm by end of treatment.</li><li>Maintain absence of clinical signs of infection throughout wound healing.</li></ul></td><td></td><td></td></tr></table></div>"
        },
        "status": "active",
        "intent": "plan",
        "subject": {
          "reference": "urn:uuid:c5de0a53-e757-4182-9880-a8f6c0107ec4",
          "display": "Katy Johnston"
        }
      }
    },
    {
      "fullUrl": "urn:uuid:c56382cf-40d2-418a-b212-3f40762bda88",
      "resource": {
        "resourceType": "CarePlan",
        "id": "c56382cf-40d2-418a-b212-3f40762bda88",
        "category": [
          {
            "coding": [
              {
                "code": "assess-plan",
                "system": "http://terminology.hl7.org/CodeSystem/care-plan-category",
                "display": "Assessment and Plan"
              }
            ]
          }
        ],
        "activity": [
          {
            "detail": {
              "code": {
                "coding": [
                  {
                    "code": "698360004",
                    "system": "http://snomed.info/sct",
                    "display": "Diabetes self management plan (qualifier value)"
                  }
                ]
              },
              "reasonCode": [
                {
                  "coding": [
                    {
                      "code": "15777000",
                      "system": "http://snomed.info/sct",
                      "display": "Prediabetes"
                    }
                  ]
                }
              ],
              "status": "unknown",
              "description": "Diabetes self management plan",
              "kind": "Appointment"
            }
          }
        ],
        "period": {
          "start": "2019-03-17"
        },
        "goal": [
          {
            "reference": "urn:uuid:88c8a65a-fb74-4b1c-a4f3-9a9af73094f2"
          }
        ],
        "text": {
          "status": "generated",
          "div": "<div xmlns=\"http://www.w3.org/1999/xhtml\"><table class=\"hl7__ips first25\"><tr><th>Active Planned Care / Goals</th><th>Start Date</th><th>Reason</th></tr><tr><td>Diabetes self management plan</td><td><span class=\"nb\">17-Mar-2019</span></td><td>Prediabetes</td></tr><tr><td><ul><li>Patient will implement and adhere to a diabetes self-management plan to reduce risk of progression to type 2 diabetes.</li></ul></td><td></td><td></td></tr></table></div>"
        },
        "status": "active",
        "intent": "plan",
        "subject": {
          "reference": "urn:uuid:c5de0a53-e757-4182-9880-a8f6c0107ec4",
          "display": "Katy Johnston"
        }
      }
    },
    {
      "fullUrl": "urn:uuid:dcff0826-6b8e-40de-8f2d-10e4b388edce",
      "resource": {
        "resourceType": "CarePlan",
        "id": "dcff0826-6b8e-40de-8f2d-10e4b388edce",
        "category": [
          {
            "coding": [
              {
                "code": "assess-plan",
                "system": "http://terminology.hl7.org/CodeSystem/care-plan-category",
                "display": "Assessment and Plan"
              }
            ]
          }
        ],
        "activity": [
          {
            "detail": {
              "code": {
                "coding": [
                  {
                    "code": "734163000",
                    "system": "http://snomed.info/sct",
                    "display": "Care plan (record artifact)"
                  }
                ]
              },
              "status": "unknown",
              "description": "Care plan",
              "kind": "Appointment"
            }
          }
        ],
        "period": {
          "start": "2013-06-19"
        },
        "text": {
          "status": "generated",
          "div": "<div xmlns=\"http://www.w3.org/1999/xhtml\"><table class=\"hl7__ips first25\"><tr><th>Active Planned Care / Goals</th><th>Start Date</th><th>Reason</th></tr><tr><td>Care plan</td><td><span class=\"nb\">19-Jun-2013</span></td><td>-</td></tr></table></div>"
        },
        "status": "active",
        "intent": "plan",
        "subject": {
          "reference": "urn:uuid:c5de0a53-e757-4182-9880-a8f6c0107ec4",
          "display": "Katy Johnston"
        }
      }
    },
    {
      "fullUrl": "urn:uuid:377b167c-e4b0-4470-a311-2c43dcd0fd6a",
      "resource": {
        "resourceType": "CarePlan",
        "id": "377b167c-e4b0-4470-a311-2c43dcd0fd6a",
        "category": [
          {
            "coding": [
              {
                "code": "assess-plan",
                "system": "http://terminology.hl7.org/CodeSystem/care-plan-category",
                "display": "Assessment and Plan"
              }
            ]
          }
        ],
        "activity": [
          {
            "detail": {
              "code": {
                "coding": [
                  {
                    "code": "384758001",
                    "system": "http://snomed.info/sct",
                    "display": "Self-care interventions (procedure)"
                  }
                ]
              },
              "status": "unknown",
              "description": "Self-care interventions",
              "kind": "Appointment"
            }
          }
        ],
        "period": {
          "start": "1988-03-15"
        },
        "text": {
          "status": "generated",
          "div": "<div xmlns=\"http://www.w3.org/1999/xhtml\"><table class=\"hl7__ips first25\"><tr><th>Active Planned Care / Goals</th><th>Start Date</th><th>Reason</th></tr><tr><td>Self-care interventions</td><td><span class=\"nb\">15-Mar-1988</span></td><td>-</td></tr></table></div>"
        },
        "status": "active",
        "intent": "plan",
        "subject": {
          "reference": "urn:uuid:c5de0a53-e757-4182-9880-a8f6c0107ec4",
          "display": "Katy Johnston"
        }
      }
    },
    {
      "fullUrl": "urn:uuid:b52214b3-9d53-4e6e-a1cc-4f815ce84cca",
      "resource": {
        "resourceType": "Observation",
        "id": "b52214b3-9d53-4e6e-a1cc-4f815ce84cca",
        "meta": {
          "profile": [
            "http://hl7.org/fhir/StructureDefinition/vitalsigns"
          ]
        },
        "category": [
          {
            "coding": [
              {
                "system": "http://terminology.hl7.org/CodeSystem/observation-category",
                "code": "vital-signs",
                "display": "Vital Signs"
              }
            ]
          }
        ],
        "valueQuantity": {
          "value": 156,
          "code": "cm",
          "unit": "cm"
        },
        "text": {
          "status": "generated",
          "div": "<div xmlns=\"http://www.w3.org/1999/xhtml\"><table class=\"hl7__ips\"><tr><th>Vital Sign</th><th>Date</th><th>Measurement</th></tr><tr><td>Body Height</td><td>20-Apr-2025</td><td>156 cm</td></tr></table></div>"
        },
        "status": "final",
        "code": {
          "coding": [
            {
              "code": "$8302-2",
              "system": "http://loinc.org",
              "display": "Body Height"
            }
          ]
        },
        "subject": {
          "reference": "urn:uuid:c5de0a53-e757-4182-9880-a8f6c0107ec4",
          "display": "Katy Johnston"
        },
        "effectiveDateTime": "2025-04-20"
      }
    },
    {
      "fullUrl": "urn:uuid:cb68cc73-a0e1-4961-9128-a72c4ddaea42",
      "resource": {
        "resourceType": "Observation",
        "id": "cb68cc73-a0e1-4961-9128-a72c4ddaea42",
        "meta": {
          "profile": [
            "http://hl7.org/fhir/StructureDefinition/vitalsigns"
          ]
        },
        "category": [
          {
            "coding": [
              {
                "system": "http://terminology.hl7.org/CodeSystem/observation-category",
                "code": "vital-signs",
                "display": "Vital Signs"
              }
            ]
          }
        ],
        "valueQuantity": {
          "value": 3,
          "code": "{score}",
          "unit": "{score}"
        },
        "text": {
          "status": "generated",
          "div": "<div xmlns=\"http://www.w3.org/1999/xhtml\"><table class=\"hl7__ips\"><tr><th>Vital Sign</th><th>Date</th><th>Measurement</th></tr><tr><td>Pain severity - 0-10 verbal numeric rating [Score] - Reported</td><td>20-Apr-2025</td><td>3 {score}</td></tr></table></div>"
        },
        "status": "final",
        "code": {
          "coding": [
            {
              "code": "$72514-3",
              "system": "http://loinc.org",
              "display": "Pain severity - 0-10 verbal numeric rating [Score] - Reported"
            }
          ]
        },
        "subject": {
          "reference": "urn:uuid:c5de0a53-e757-4182-9880-a8f6c0107ec4",
          "display": "Katy Johnston"
        },
        "effectiveDateTime": "2025-04-20"
      }
    },
    {
      "fullUrl": "urn:uuid:e972ed30-0b22-496c-9596-308aa17cec60",
      "resource": {
        "resourceType": "Observation",
        "id": "e972ed30-0b22-496c-9596-308aa17cec60",
        "meta": {
          "profile": [
            "http://hl7.org/fhir/StructureDefinition/vitalsigns"
          ]
        },
        "category": [
          {
            "coding": [
              {
                "system": "http://terminology.hl7.org/CodeSystem/observation-category",
                "code": "vital-signs",
                "display": "Vital Signs"
              }
            ]
          }
        ],
        "valueQuantity": {
          "value": 75.1,
          "code": "kg",
          "unit": "kg"
        },
        "text": {
          "status": "generated",
          "div": "<div xmlns=\"http://www.w3.org/1999/xhtml\"><table class=\"hl7__ips\"><tr><th>Vital Sign</th><th>Date</th><th>Measurement</th></tr><tr><td>Body Weight</td><td>20-Apr-2025</td><td>75.1 kg</td></tr></table></div>"
        },
        "status": "final",
        "code": {
          "coding": [
            {
              "code": "$29463-7",
              "system": "http://loinc.org",
              "display": "Body Weight"
            }
          ]
        },
        "subject": {
          "reference": "urn:uuid:c5de0a53-e757-4182-9880-a8f6c0107ec4",
          "display": "Katy Johnston"
        },
        "effectiveDateTime": "2025-04-20"
      }
    },
    {
      "fullUrl": "urn:uuid:973a98c3-b61d-4c04-a87f-d18480658734",
      "resource": {
        "resourceType": "Observation",
        "id": "973a98c3-b61d-4c04-a87f-d18480658734",
        "meta": {
          "profile": [
            "http://hl7.org/fhir/StructureDefinition/vitalsigns"
          ]
        },
        "category": [
          {
            "coding": [
              {
                "system": "http://terminology.hl7.org/CodeSystem/observation-category",
                "code": "vital-signs",
                "display": "Vital Signs"
              }
            ]
          }
        ],
        "valueQuantity": {
          "value": 30.9,
          "code": "kg/m2",
          "unit": "kg/m2"
        },
        "text": {
          "status": "generated",
          "div": "<div xmlns=\"http://www.w3.org/1999/xhtml\"><table class=\"hl7__ips\"><tr><th>Vital Sign</th><th>Date</th><th>Measurement</th></tr><tr><td>Body mass index (BMI) [Ratio]</td><td>20-Apr-2025</td><td>30.9 kg/m2</td></tr></table></div>"
        },
        "status": "final",
        "code": {
          "coding": [
            {
              "code": "$39156-5",
              "system": "http://loinc.org",
              "display": "Body mass index (BMI) [Ratio]"
            }
          ]
        },
        "subject": {
          "reference": "urn:uuid:c5de0a53-e757-4182-9880-a8f6c0107ec4",
          "display": "Katy Johnston"
        },
        "effectiveDateTime": "2025-04-20"
      }
    },
    {
      "fullUrl": "urn:uuid:9415b5a5-3689-40c6-ba3a-a42d5209e2b4",
      "resource": {
        "resourceType": "Observation",
        "id": "9415b5a5-3689-40c6-ba3a-a42d5209e2b4",
        "meta": {
          "profile": [
            "http://hl7.org/fhir/StructureDefinition/vitalsigns"
          ]
        },
        "category": [
          {
            "coding": [
              {
                "system": "http://terminology.hl7.org/CodeSystem/observation-category",
                "code": "vital-signs",
                "display": "Vital Signs"
              }
            ]
          }
        ],
        "valueQuantity": {
          "value": 72,
          "code": "mm[Hg]",
          "unit": "mm[Hg]"
        },
        "text": {
          "status": "generated",
          "div": "<div xmlns=\"http://www.w3.org/1999/xhtml\"><table class=\"hl7__ips\"><tr><th>Vital Sign</th><th>Date</th><th>Measurement</th></tr><tr><td>Diastolic Blood Pressure</td><td>20-Apr-2025</td><td>72 mm[Hg]</td></tr></table></div>"
        },
        "status": "final",
        "code": {
          "coding": [
            {
              "code": "$8462-4",
              "system": "http://loinc.org",
              "display": "Diastolic Blood Pressure"
            }
          ]
        },
        "subject": {
          "reference": "urn:uuid:c5de0a53-e757-4182-9880-a8f6c0107ec4",
          "display": "Katy Johnston"
        },
        "effectiveDateTime": "2025-04-20"
      }
    },
    {
      "fullUrl": "urn:uuid:b2d8c8f8-d45b-4116-bed7-f2efbb500125",
      "resource": {
        "resourceType": "Observation",
        "id": "b2d8c8f8-d45b-4116-bed7-f2efbb500125",
        "meta": {
          "profile": [
            "http://hl7.org/fhir/StructureDefinition/vitalsigns"
          ]
        },
        "category": [
          {
            "coding": [
              {
                "system": "http://terminology.hl7.org/CodeSystem/observation-category",
                "code": "vital-signs",
                "display": "Vital Signs"
              }
            ]
          }
        ],
        "valueQuantity": {
          "value": 129,
          "code": "mm[Hg]",
          "unit": "mm[Hg]"
        },
        "text": {
          "status": "generated",
          "div": "<div xmlns=\"http://www.w3.org/1999/xhtml\"><table class=\"hl7__ips\"><tr><th>Vital Sign</th><th>Date</th><th>Measurement</th></tr><tr><td>Systolic Blood Pressure</td><td>20-Apr-2025</td><td>129 mm[Hg]</td></tr></table></div>"
        },
        "status": "final",
        "code": {
          "coding": [
            {
              "code": "$8480-6",
              "system": "http://loinc.org",
              "display": "Systolic Blood Pressure"
            }
          ]
        },
        "subject": {
          "reference": "urn:uuid:c5de0a53-e757-4182-9880-a8f6c0107ec4",
          "display": "Katy Johnston"
        },
        "effectiveDateTime": "2025-04-20"
      }
    },
    {
      "fullUrl": "urn:uuid:6af71ff5-652b-414d-ad05-4303e0a09fdb",
      "resource": {
        "resourceType": "Observation",
        "id": "6af71ff5-652b-414d-ad05-4303e0a09fdb",
        "meta": {
          "profile": [
            "http://hl7.org/fhir/StructureDefinition/vitalsigns"
          ]
        },
        "category": [
          {
            "coding": [
              {
                "system": "http://terminology.hl7.org/CodeSystem/observation-category",
                "code": "vital-signs",
                "display": "Vital Signs"
              }
            ]
          }
        ],
        "valueQuantity": {
          "value": 88,
          "code": "/min",
          "unit": "/min"
        },
        "text": {
          "status": "generated",
          "div": "<div xmlns=\"http://www.w3.org/1999/xhtml\"><table class=\"hl7__ips\"><tr><th>Vital Sign</th><th>Date</th><th>Measurement</th></tr><tr><td>Heart rate</td><td>20-Apr-2025</td><td>88 /min</td></tr></table></div>"
        },
        "status": "final",
        "code": {
          "coding": [
            {
              "code": "$8867-4",
              "system": "http://loinc.org",
              "display": "Heart rate"
            }
          ]
        },
        "subject": {
          "reference": "urn:uuid:c5de0a53-e757-4182-9880-a8f6c0107ec4",
          "display": "Katy Johnston"
        },
        "effectiveDateTime": "2025-04-20"
      }
    },
    {
      "fullUrl": "urn:uuid:63d123a7-bb72-45de-ad10-1ebca27e15d7",
      "resource": {
        "resourceType": "Observation",
        "id": "63d123a7-bb72-45de-ad10-1ebca27e15d7",
        "meta": {
          "profile": [
            "http://hl7.org/fhir/StructureDefinition/vitalsigns"
          ]
        },
        "category": [
          {
            "coding": [
              {
                "system": "http://terminology.hl7.org/CodeSystem/observation-category",
                "code": "vital-signs",
                "display": "Vital Signs"
              }
            ]
          }
        ],
        "valueQuantity": {
          "value": 16,
          "code": "/min",
          "unit": "/min"
        },
        "text": {
          "status": "generated",
          "div": "<div xmlns=\"http://www.w3.org/1999/xhtml\"><table class=\"hl7__ips\"><tr><th>Vital Sign</th><th>Date</th><th>Measurement</th></tr><tr><td>Respiratory rate</td><td>20-Apr-2025</td><td>16 /min</td></tr></table></div>"
        },
        "status": "final",
        "code": {
          "coding": [
            {
              "code": "$9279-1",
              "system": "http://loinc.org",
              "display": "Respiratory rate"
            }
          ]
        },
        "subject": {
          "reference": "urn:uuid:c5de0a53-e757-4182-9880-a8f6c0107ec4",
          "display": "Katy Johnston"
        },
        "effectiveDateTime": "2025-04-20"
      }
    },
    {
      "fullUrl": "urn:uuid:32d3ee42-a864-4d48-8ae7-b64dc41946ab",
      "resource": {
        "resourceType": "Observation",
        "id": "32d3ee42-a864-4d48-8ae7-b64dc41946ab",
        "meta": {
          "profile": [
            "http://hl7.org/fhir/StructureDefinition/vitalsigns"
          ]
        },
        "category": [
          {
            "coding": [
              {
                "system": "http://terminology.hl7.org/CodeSystem/observation-category",
                "code": "vital-signs",
                "display": "Vital Signs"
              }
            ]
          }
        ],
        "valueQuantity": {
          "value": 6,
          "code": "{score}",
          "unit": "{score}"
        },
        "text": {
          "status": "generated",
          "div": "<div xmlns=\"http://www.w3.org/1999/xhtml\"><table class=\"hl7__ips\"><tr><th>Vital Sign</th><th>Date</th><th>Measurement</th></tr><tr><td>Pain severity - 0-10 verbal numeric rating [Score] - Reported</td><td>13-Mar-2025</td><td>6 {score}</td></tr></table></div>"
        },
        "status": "final",
        "code": {
          "coding": [
            {
              "code": "$72514-3",
              "system": "http://loinc.org",
              "display": "Pain severity - 0-10 verbal numeric rating [Score] - Reported"
            }
          ]
        },
        "subject": {
          "reference": "urn:uuid:c5de0a53-e757-4182-9880-a8f6c0107ec4",
          "display": "Katy Johnston"
        },
        "effectiveDateTime": "2025-03-13"
      }
    },
    {
      "fullUrl": "urn:uuid:dfbf8ac5-ac9a-48b4-9b6d-2dca27af319c",
      "resource": {
        "resourceType": "Observation",
        "id": "dfbf8ac5-ac9a-48b4-9b6d-2dca27af319c",
        "meta": {
          "profile": [
            "http://hl7.eu/fhir/laboratory/StructureDefinition/Observation-resultslab-eu-lab"
          ]
        },
        "performer": [
          {
            "display": "The Central European Lab"
          }
        ],
        "category": [
          {
            "coding": [
              {
                "system": "http://terminology.hl7.org/CodeSystem/observation-category",
                "code": "laboratory"
              }
            ]
          }
        ],
        "code": {
          "coding": [
            {
              "code": "4548-4",
              "system": "http://loinc.org",
              "display": "Hemoglobin A1c/Hemoglobin.total in Blood"
            }
          ],
          "text": "Hemoglobin A1c/Hemoglobin.total in Blood"
        },
        "valueQuantity": {
          "system": "http://unitsofmeasure.org",
          "value": 6,
          "unit": "%",
          "code": "%"
        },
        "referenceRange": [
          {
            "low": {
              "value": 4.8,
              "code": "%",
              "system": "http://unitsofmeasure.org"
            }
          },
          {
            "high": {
              "value": 5.7,
              "code": "%",
              "system": "http://unitsofmeasure.org"
            }
          }
        ],
        "interpretation": [
          {
            "coding": [
              {
                "code": "H",
                "system": "http://terminology.hl7.org/CodeSystem/v3-ObservationInterpretation",
                "display": "High"
              }
            ]
          }
        ],
        "text": {
          "status": "generated",
          "div": "<div xmlns=\"http://www.w3.org/1999/xhtml\"><table class=\"hl7__eu__lab__report\"><tr><th>Test</th><th>20-Apr-2025</th><th>Reference&#xA0;Range</th><th>Unit</th></tr><tr><td>Hemoglobin A1c/Hemoglobin.total in Blood</td><td>6.0</td><td>4.8 - 5.7</td><td>H</td><td>%</td></tr></table></div>"
        },
        "status": "final",
        "subject": {
          "reference": "urn:uuid:c5de0a53-e757-4182-9880-a8f6c0107ec4",
          "display": "Katy Johnston"
        },
        "effectiveDateTime": "2025-04-20T09:58:49Z"
      }
    },
    {
      "fullUrl": "urn:uuid:330a7112-570f-4467-baa2-2f61c3fc5495",
      "resource": {
        "resourceType": "Observation",
        "id": "330a7112-570f-4467-baa2-2f61c3fc5495",
        "meta": {
          "profile": [
            "http://hl7.eu/fhir/laboratory/StructureDefinition/Observation-resultslab-eu-lab"
          ]
        },
        "performer": [
          {
            "display": "The Central European Lab"
          }
        ],
        "category": [
          {
            "coding": [
              {
                "system": "http://terminology.hl7.org/CodeSystem/observation-category",
                "code": "laboratory"
              }
            ]
          }
        ],
        "code": {
          "coding": [
            {
              "code": "2339-0",
              "system": "http://loinc.org",
              "display": "Glucose [Mass/volume] in Blood"
            }
          ],
          "text": "Glucose [Mass/volume] in Blood"
        },
        "valueQuantity": {
          "system": "http://unitsofmeasure.org",
          "value": 74.1,
          "unit": "mg/dL",
          "code": "mg/dL"
        },
        "referenceRange": [
          {
            "low": {
              "value": 70,
              "code": "mg/dL",
              "system": "http://unitsofmeasure.org"
            }
          },
          {
            "high": {
              "value": 140,
              "code": "mg/dL",
              "system": "http://unitsofmeasure.org"
            }
          }
        ],
        "text": {
          "status": "generated",
          "div": "<div xmlns=\"http://www.w3.org/1999/xhtml\"><table class=\"hl7__eu__lab__report\"><tr><th>Test</th><th>20-Apr-2025</th><th>Reference&#xA0;Range</th><th>Unit</th></tr><tr><td>Glucose [Mass/volume] in Blood</td><td>74.1</td><td>70 - 140</td><td></td><td>mg/dL</td></tr></table></div>"
        },
        "status": "final",
        "subject": {
          "reference": "urn:uuid:c5de0a53-e757-4182-9880-a8f6c0107ec4",
          "display": "Katy Johnston"
        },
        "effectiveDateTime": "2025-04-20T09:58:49Z"
      }
    },
    {
      "fullUrl": "urn:uuid:fd6305f5-519e-46fe-a112-8ccf1f6a6bee",
      "resource": {
        "resourceType": "Observation",
        "id": "fd6305f5-519e-46fe-a112-8ccf1f6a6bee",
        "meta": {
          "profile": [
            "http://hl7.eu/fhir/laboratory/StructureDefinition/Observation-resultslab-eu-lab"
          ]
        },
        "performer": [
          {
            "display": "The Central European Lab"
          }
        ],
        "category": [
          {
            "coding": [
              {
                "system": "http://terminology.hl7.org/CodeSystem/observation-category",
                "code": "laboratory"
              }
            ]
          }
        ],
        "code": {
          "coding": [
            {
              "code": "6299-2",
              "system": "http://loinc.org",
              "display": "Urea nitrogen [Mass/volume] in Blood"
            }
          ],
          "text": "Urea nitrogen [Mass/volume] in Blood"
        },
        "valueQuantity": {
          "system": "http://unitsofmeasure.org",
          "value": 10.1,
          "unit": "mg/dL",
          "code": "mg/dL"
        },
        "referenceRange": [
          {
            "low": {
              "value": 7,
              "code": "mg/dL",
              "system": "http://unitsofmeasure.org"
            }
          },
          {
            "high": {
              "value": 20,
              "code": "mg/dL",
              "system": "http://unitsofmeasure.org"
            }
          }
        ],
        "text": {
          "status": "generated",
          "div": "<div xmlns=\"http://www.w3.org/1999/xhtml\"><table class=\"hl7__eu__lab__report\"><tr><th>Test</th><th>20-Apr-2025</th><th>Reference&#xA0;Range</th><th>Unit</th></tr><tr><td>Urea nitrogen [Mass/volume] in Blood</td><td>10.1</td><td>7 - 20</td><td></td><td>mg/dL</td></tr></table></div>"
        },
        "status": "final",
        "subject": {
          "reference": "urn:uuid:c5de0a53-e757-4182-9880-a8f6c0107ec4",
          "display": "Katy Johnston"
        },
        "effectiveDateTime": "2025-04-20T09:58:49Z"
      }
    },
    {
      "fullUrl": "urn:uuid:b1653089-71e6-43fe-987e-93559a78786c",
      "resource": {
        "resourceType": "Observation",
        "id": "b1653089-71e6-43fe-987e-93559a78786c",
        "meta": {
          "profile": [
            "http://hl7.eu/fhir/laboratory/StructureDefinition/Observation-resultslab-eu-lab"
          ]
        },
        "performer": [
          {
            "display": "The Central European Lab"
          }
        ],
        "category": [
          {
            "coding": [
              {
                "system": "http://terminology.hl7.org/CodeSystem/observation-category",
                "code": "laboratory"
              }
            ]
          }
        ],
        "code": {
          "coding": [
            {
              "code": "38483-4",
              "system": "http://loinc.org",
              "display": "Creatinine [Mass/volume] in Blood"
            }
          ],
          "text": "Creatinine [Mass/volume] in Blood"
        },
        "valueQuantity": {
          "system": "http://unitsofmeasure.org",
          "value": 0.9,
          "unit": "mg/dL",
          "code": "mg/dL"
        },
        "referenceRange": [
          {
            "low": {
              "value": 0.6,
              "code": "mg/dL",
              "system": "http://unitsofmeasure.org"
            }
          },
          {
            "high": {
              "value": 1.2,
              "code": "mg/dL",
              "system": "http://unitsofmeasure.org"
            }
          }
        ],
        "text": {
          "status": "generated",
          "div": "<div xmlns=\"http://www.w3.org/1999/xhtml\"><table class=\"hl7__eu__lab__report\"><tr><th>Test</th><th>20-Apr-2025</th><th>Reference&#xA0;Range</th><th>Unit</th></tr><tr><td>Creatinine [Mass/volume] in Blood</td><td>0.9</td><td>0.6 - 1.2</td><td></td><td>mg/dL</td></tr></table></div>"
        },
        "status": "final",
        "subject": {
          "reference": "urn:uuid:c5de0a53-e757-4182-9880-a8f6c0107ec4",
          "display": "Katy Johnston"
        },
        "effectiveDateTime": "2025-04-20T09:58:49Z"
      }
    },
    {
      "fullUrl": "urn:uuid:ab446dd0-dc41-4d0e-8b63-e326ac888ee4",
      "resource": {
        "resourceType": "Observation",
        "id": "ab446dd0-dc41-4d0e-8b63-e326ac888ee4",
        "meta": {
          "profile": [
            "http://hl7.eu/fhir/laboratory/StructureDefinition/Observation-resultslab-eu-lab"
          ]
        },
        "performer": [
          {
            "display": "The Central European Lab"
          }
        ],
        "category": [
          {
            "coding": [
              {
                "system": "http://terminology.hl7.org/CodeSystem/observation-category",
                "code": "laboratory"
              }
            ]
          }
        ],
        "code": {
          "coding": [
            {
              "code": "49765-1",
              "system": "http://loinc.org",
              "display": "Calcium [Mass/volume] in Blood"
            }
          ],
          "text": "Calcium [Mass/volume] in Blood"
        },
        "valueQuantity": {
          "system": "http://unitsofmeasure.org",
          "value": 9,
          "unit": "mg/dL",
          "code": "mg/dL"
        },
        "referenceRange": [
          {
            "low": {
              "value": 8.5,
              "code": "mg/dL",
              "system": "http://unitsofmeasure.org"
            }
          },
          {
            "high": {
              "value": 10.4,
              "code": "mg/dL",
              "system": "http://unitsofmeasure.org"
            }
          }
        ],
        "text": {
          "status": "generated",
          "div": "<div xmlns=\"http://www.w3.org/1999/xhtml\"><table class=\"hl7__eu__lab__report\"><tr><th>Test</th><th>20-Apr-2025</th><th>Reference&#xA0;Range</th><th>Unit</th></tr><tr><td>Calcium [Mass/volume] in Blood</td><td>9.0</td><td>8.5 - 10.4</td><td></td><td>mg/dL</td></tr></table></div>"
        },
        "status": "final",
        "subject": {
          "reference": "urn:uuid:c5de0a53-e757-4182-9880-a8f6c0107ec4",
          "display": "Katy Johnston"
        },
        "effectiveDateTime": "2025-04-20T09:58:49Z"
      }
    },
    {
      "fullUrl": "urn:uuid:a7fff1ea-ab8c-4524-a5de-91db54f6d55b",
      "resource": {
        "resourceType": "Observation",
        "id": "a7fff1ea-ab8c-4524-a5de-91db54f6d55b",
        "meta": {
          "profile": [
            "http://hl7.eu/fhir/laboratory/StructureDefinition/Observation-resultslab-eu-lab"
          ]
        },
        "performer": [
          {
            "display": "The Central European Lab"
          }
        ],
        "category": [
          {
            "coding": [
              {
                "system": "http://terminology.hl7.org/CodeSystem/observation-category",
                "code": "laboratory"
              }
            ]
          }
        ],
        "code": {
          "coding": [
            {
              "code": "2947-0",
              "system": "http://loinc.org",
              "display": "Sodium [Moles/volume] in Blood"
            }
          ],
          "text": "Sodium [Moles/volume] in Blood"
        },
        "valueQuantity": {
          "system": "http://unitsofmeasure.org",
          "value": 138.6,
          "unit": "mmol/L",
          "code": "mmol/L"
        },
        "referenceRange": [
          {
            "low": {
              "value": 135,
              "code": "mmol/L",
              "system": "http://unitsofmeasure.org"
            }
          },
          {
            "high": {
              "value": 145,
              "code": "mmol/L",
              "system": "http://unitsofmeasure.org"
            }
          }
        ],
        "text": {
          "status": "generated",
          "div": "<div xmlns=\"http://www.w3.org/1999/xhtml\"><table class=\"hl7__eu__lab__report\"><tr><th>Test</th><th>20-Apr-2025</th><th>Reference&#xA0;Range</th><th>Unit</th></tr><tr><td>Sodium [Moles/volume] in Blood</td><td>138.6</td><td>135 - 145</td><td></td><td>mmol/L</td></tr></table></div>"
        },
        "status": "final",
        "subject": {
          "reference": "urn:uuid:c5de0a53-e757-4182-9880-a8f6c0107ec4",
          "display": "Katy Johnston"
        },
        "effectiveDateTime": "2025-04-20T09:58:49Z"
      }
    },
    {
      "fullUrl": "urn:uuid:86b5a4f1-96fb-4e35-8fa4-e9786bfa7823",
      "resource": {
        "resourceType": "Observation",
        "id": "86b5a4f1-96fb-4e35-8fa4-e9786bfa7823",
        "meta": {
          "profile": [
            "http://hl7.eu/fhir/laboratory/StructureDefinition/Observation-resultslab-eu-lab"
          ]
        },
        "performer": [
          {
            "display": "The Central European Lab"
          }
        ],
        "category": [
          {
            "coding": [
              {
                "system": "http://terminology.hl7.org/CodeSystem/observation-category",
                "code": "laboratory"
              }
            ]
          }
        ],
        "code": {
          "coding": [
            {
              "code": "6298-4",
              "system": "http://loinc.org",
              "display": "Potassium [Moles/volume] in Blood"
            }
          ],
          "text": "Potassium [Moles/volume] in Blood"
        },
        "valueQuantity": {
          "system": "http://unitsofmeasure.org",
          "value": 4.9,
          "unit": "mmol/L",
          "code": "mmol/L"
        },
        "referenceRange": [
          {
            "low": {
              "value": 3.5,
              "code": "mmol/L",
              "system": "http://unitsofmeasure.org"
            }
          },
          {
            "high": {
              "value": 5.1,
              "code": "mmol/L",
              "system": "http://unitsofmeasure.org"
            }
          }
        ],
        "text": {
          "status": "generated",
          "div": "<div xmlns=\"http://www.w3.org/1999/xhtml\"><table class=\"hl7__eu__lab__report\"><tr><th>Test</th><th>20-Apr-2025</th><th>Reference&#xA0;Range</th><th>Unit</th></tr><tr><td>Potassium [Moles/volume] in Blood</td><td>4.9</td><td>3.5 - 5.1</td><td></td><td>mmol/L</td></tr></table></div>"
        },
        "status": "final",
        "subject": {
          "reference": "urn:uuid:c5de0a53-e757-4182-9880-a8f6c0107ec4",
          "display": "Katy Johnston"
        },
        "effectiveDateTime": "2025-04-20T09:58:49Z"
      }
    },
    {
      "fullUrl": "urn:uuid:92f7cfc8-388f-44c0-ae8c-fa4af6ad0a39",
      "resource": {
        "resourceType": "Observation",
        "id": "92f7cfc8-388f-44c0-ae8c-fa4af6ad0a39",
        "meta": {
          "profile": [
            "http://hl7.eu/fhir/laboratory/StructureDefinition/Observation-resultslab-eu-lab"
          ]
        },
        "performer": [
          {
            "display": "The Central European Lab"
          }
        ],
        "category": [
          {
            "coding": [
              {
                "system": "http://terminology.hl7.org/CodeSystem/observation-category",
                "code": "laboratory"
              }
            ]
          }
        ],
        "code": {
          "coding": [
            {
              "code": "2069-3",
              "system": "http://loinc.org",
              "display": "Chloride [Moles/volume] in Blood"
            }
          ],
          "text": "Chloride [Moles/volume] in Blood"
        },
        "valueQuantity": {
          "system": "http://unitsofmeasure.org",
          "value": 106.5,
          "unit": "mmol/L",
          "code": "mmol/L"
        },
        "referenceRange": [
          {
            "low": {
              "value": 98,
              "code": "mmol/L",
              "system": "http://unitsofmeasure.org"
            }
          },
          {
            "high": {
              "value": 107,
              "code": "mmol/L",
              "system": "http://unitsofmeasure.org"
            }
          }
        ],
        "text": {
          "status": "generated",
          "div": "<div xmlns=\"http://www.w3.org/1999/xhtml\"><table class=\"hl7__eu__lab__report\"><tr><th>Test</th><th>20-Apr-2025</th><th>Reference&#xA0;Range</th><th>Unit</th></tr><tr><td>Chloride [Moles/volume] in Blood</td><td>106.5</td><td>98 - 107</td><td></td><td>mmol/L</td></tr></table></div>"
        },
        "status": "final",
        "subject": {
          "reference": "urn:uuid:c5de0a53-e757-4182-9880-a8f6c0107ec4",
          "display": "Katy Johnston"
        },
        "effectiveDateTime": "2025-04-20T09:58:49Z"
      }
    },
    {
      "fullUrl": "urn:uuid:bcbe7374-d2b5-476d-ba31-068a471675bc",
      "resource": {
        "resourceType": "Observation",
        "id": "bcbe7374-d2b5-476d-ba31-068a471675bc",
        "meta": {
          "profile": [
            "http://hl7.eu/fhir/laboratory/StructureDefinition/Observation-resultslab-eu-lab"
          ]
        },
        "performer": [
          {
            "display": "The Central European Lab"
          }
        ],
        "category": [
          {
            "coding": [
              {
                "system": "http://terminology.hl7.org/CodeSystem/observation-category",
                "code": "laboratory"
              }
            ]
          }
        ],
        "code": {
          "coding": [
            {
              "code": "20565-8",
              "system": "http://loinc.org",
              "display": "Carbon dioxide, total [Moles/volume] in Blood"
            }
          ],
          "text": "Carbon dioxide, total [Moles/volume] in Blood"
        },
        "valueQuantity": {
          "system": "http://unitsofmeasure.org",
          "value": 22.1,
          "unit": "mmol/L",
          "code": "mmol/L"
        },
        "referenceRange": [
          {
            "low": {
              "value": 22,
              "code": "mmol/L",
              "system": "http://unitsofmeasure.org"
            }
          },
          {
            "high": {
              "value": 29,
              "code": "mmol/L",
              "system": "http://unitsofmeasure.org"
            }
          }
        ],
        "text": {
          "status": "generated",
          "div": "<div xmlns=\"http://www.w3.org/1999/xhtml\"><table class=\"hl7__eu__lab__report\"><tr><th>Test</th><th>20-Apr-2025</th><th>Reference&#xA0;Range</th><th>Unit</th></tr><tr><td>Carbon dioxide, total [Moles/volume] in Blood</td><td>22.1</td><td>22 - 29</td><td></td><td>mmol/L</td></tr></table></div>"
        },
        "status": "final",
        "subject": {
          "reference": "urn:uuid:c5de0a53-e757-4182-9880-a8f6c0107ec4",
          "display": "Katy Johnston"
        },
        "effectiveDateTime": "2025-04-20T09:58:49Z"
      }
    },
    {
      "fullUrl": "urn:uuid:3531f361-a201-4514-8335-f33787807c60",
      "resource": {
        "resourceType": "Observation",
        "id": "3531f361-a201-4514-8335-f33787807c60",
        "meta": {
          "profile": [
            "http://hl7.eu/fhir/laboratory/StructureDefinition/Observation-resultslab-eu-lab"
          ]
        },
        "performer": [
          {
            "display": "The Central European Lab"
          }
        ],
        "category": [
          {
            "coding": [
              {
                "system": "http://terminology.hl7.org/CodeSystem/observation-category",
                "code": "laboratory"
              }
            ]
          }
        ],
        "code": {
          "coding": [
            {
              "code": "6690-2",
              "system": "http://loinc.org",
              "display": "Leukocytes [#/volume] in Blood by Automated count"
            }
          ],
          "text": "Leukocytes [#/volume] in Blood by Automated count"
        },
        "valueQuantity": {
          "system": "http://unitsofmeasure.org",
          "value": 4.3,
          "unit": "10*3/uL",
          "code": "10*3/uL"
        },
        "referenceRange": [
          {
            "low": {
              "value": 3.4,
              "code": "10*3/uL",
              "system": "http://unitsofmeasure.org"
            }
          },
          {
            "high": {
              "value": 10,
              "code": "10*3/uL",
              "system": "http://unitsofmeasure.org"
            }
          }
        ],
        "text": {
          "status": "generated",
          "div": "<div xmlns=\"http://www.w3.org/1999/xhtml\"><table class=\"hl7__eu__lab__report\"><tr><th>Test</th><th>20-Apr-2025</th><th>Reference&#xA0;Range</th><th>Unit</th></tr><tr><td>Leukocytes [#/volume] in Blood by Automated count</td><td>4.3</td><td>3.4 - 10</td><td></td><td>10*3/uL</td></tr></table></div>"
        },
        "status": "final",
        "subject": {
          "reference": "urn:uuid:c5de0a53-e757-4182-9880-a8f6c0107ec4",
          "display": "Katy Johnston"
        },
        "effectiveDateTime": "2025-04-20T09:58:49Z"
      }
    },
    {
      "fullUrl": "urn:uuid:13b6df27-51ac-4b3c-bd63-182b1d7a1957",
      "resource": {
        "resourceType": "Observation",
        "id": "13b6df27-51ac-4b3c-bd63-182b1d7a1957",
        "meta": {
          "profile": [
            "http://hl7.eu/fhir/laboratory/StructureDefinition/Observation-resultslab-eu-lab"
          ]
        },
        "performer": [
          {
            "display": "The Central European Lab"
          }
        ],
        "category": [
          {
            "coding": [
              {
                "system": "http://terminology.hl7.org/CodeSystem/observation-category",
                "code": "laboratory"
              }
            ]
          }
        ],
        "code": {
          "coding": [
            {
              "code": "789-8",
              "system": "http://loinc.org",
              "display": "Erythrocytes [#/volume] in Blood by Automated count"
            }
          ],
          "text": "Erythrocytes [#/volume] in Blood by Automated count"
        },
        "valueQuantity": {
          "system": "http://unitsofmeasure.org",
          "value": 5,
          "unit": "10*6/uL",
          "code": "10*6/uL"
        },
        "referenceRange": [
          {
            "low": {
              "value": 4.5,
              "code": "10*6/uL",
              "system": "http://unitsofmeasure.org"
            }
          },
          {
            "high": {
              "value": 5.2,
              "code": "10*6/uL",
              "system": "http://unitsofmeasure.org"
            }
          }
        ],
        "text": {
          "status": "generated",
          "div": "<div xmlns=\"http://www.w3.org/1999/xhtml\"><table class=\"hl7__eu__lab__report\"><tr><th>Test</th><th>20-Apr-2025</th><th>Reference&#xA0;Range</th><th>Unit</th></tr><tr><td>Erythrocytes [#/volume] in Blood by Automated count</td><td>5.0</td><td>4.5 - 5.2</td><td></td><td>10*6/uL</td></tr></table></div>"
        },
        "status": "final",
        "subject": {
          "reference": "urn:uuid:c5de0a53-e757-4182-9880-a8f6c0107ec4",
          "display": "Katy Johnston"
        },
        "effectiveDateTime": "2025-04-20T09:58:49Z"
      }
    },
    {
      "fullUrl": "urn:uuid:e0439ce8-3513-488c-9fae-4695fd1ea87b",
      "resource": {
        "resourceType": "Observation",
        "id": "e0439ce8-3513-488c-9fae-4695fd1ea87b",
        "meta": {
          "profile": [
            "http://hl7.eu/fhir/laboratory/StructureDefinition/Observation-resultslab-eu-lab"
          ]
        },
        "performer": [
          {
            "display": "The Central European Lab"
          }
        ],
        "category": [
          {
            "coding": [
              {
                "system": "http://terminology.hl7.org/CodeSystem/observation-category",
                "code": "laboratory"
              }
            ]
          }
        ],
        "code": {
          "coding": [
            {
              "code": "718-7",
              "system": "http://loinc.org",
              "display": "Hemoglobin [Mass/volume] in Blood"
            }
          ],
          "text": "Hemoglobin [Mass/volume] in Blood"
        },
        "valueQuantity": {
          "system": "http://unitsofmeasure.org",
          "value": 17.3,
          "unit": "g/dL",
          "code": "g/dL"
        },
        "referenceRange": [
          {
            "low": {
              "value": 12,
              "code": "g/dL",
              "system": "http://unitsofmeasure.org"
            }
          },
          {
            "high": {
              "value": 16,
              "code": "g/dL",
              "system": "http://unitsofmeasure.org"
            }
          }
        ],
        "interpretation": [
          {
            "coding": [
              {
                "code": "H",
                "system": "http://terminology.hl7.org/CodeSystem/v3-ObservationInterpretation",
                "display": "High"
              }
            ]
          }
        ],
        "text": {
          "status": "generated",
          "div": "<div xmlns=\"http://www.w3.org/1999/xhtml\"><table class=\"hl7__eu__lab__report\"><tr><th>Test</th><th>20-Apr-2025</th><th>Reference&#xA0;Range</th><th>Unit</th></tr><tr><td>Hemoglobin [Mass/volume] in Blood</td><td>17.3</td><td>12 - 16</td><td>H</td><td>g/dL</td></tr></table></div>"
        },
        "status": "final",
        "subject": {
          "reference": "urn:uuid:c5de0a53-e757-4182-9880-a8f6c0107ec4",
          "display": "Katy Johnston"
        },
        "effectiveDateTime": "2025-04-20T09:58:49Z"
      }
    },
    {
      "fullUrl": "urn:uuid:1959ecfe-d8bc-4431-9b84-3a055a1338eb",
      "resource": {
        "resourceType": "Observation",
        "id": "1959ecfe-d8bc-4431-9b84-3a055a1338eb",
        "meta": {
          "profile": [
            "http://hl7.eu/fhir/laboratory/StructureDefinition/Observation-resultslab-eu-lab"
          ]
        },
        "performer": [
          {
            "display": "The Central European Lab"
          }
        ],
        "category": [
          {
            "coding": [
              {
                "system": "http://terminology.hl7.org/CodeSystem/observation-category",
                "code": "laboratory"
              }
            ]
          }
        ],
        "code": {
          "coding": [
            {
              "code": "4544-3",
              "system": "http://loinc.org",
              "display": "Hematocrit [Volume Fraction] of Blood by Automated count"
            }
          ],
          "text": "Hematocrit [Volume Fraction] of Blood by Automated count"
        },
        "valueQuantity": {
          "system": "http://unitsofmeasure.org",
          "value": 47.3,
          "unit": "%",
          "code": "%"
        },
        "referenceRange": [
          {
            "low": {
              "value": 37,
              "code": "%",
              "system": "http://unitsofmeasure.org"
            }
          },
          {
            "high": {
              "value": 47,
              "code": "%",
              "system": "http://unitsofmeasure.org"
            }
          }
        ],
        "interpretation": [
          {
            "coding": [
              {
                "code": "H",
                "system": "http://terminology.hl7.org/CodeSystem/v3-ObservationInterpretation",
                "display": "High"
              }
            ]
          }
        ],
        "text": {
          "status": "generated",
          "div": "<div xmlns=\"http://www.w3.org/1999/xhtml\"><table class=\"hl7__eu__lab__report\"><tr><th>Test</th><th>20-Apr-2025</th><th>Reference&#xA0;Range</th><th>Unit</th></tr><tr><td>Hematocrit [Volume Fraction] of Blood by Automated count</td><td>47.3</td><td>37 - 47</td><td>H</td><td>%</td></tr></table></div>"
        },
        "status": "final",
        "subject": {
          "reference": "urn:uuid:c5de0a53-e757-4182-9880-a8f6c0107ec4",
          "display": "Katy Johnston"
        },
        "effectiveDateTime": "2025-04-20T09:58:49Z"
      }
    },
    {
      "fullUrl": "urn:uuid:196a1e9f-7b95-4677-b606-ff38b88246c8",
      "resource": {
        "resourceType": "Observation",
        "id": "196a1e9f-7b95-4677-b606-ff38b88246c8",
        "meta": {
          "profile": [
            "http://hl7.eu/fhir/laboratory/StructureDefinition/Observation-resultslab-eu-lab"
          ]
        },
        "performer": [
          {
            "display": "The Central European Lab"
          }
        ],
        "category": [
          {
            "coding": [
              {
                "system": "http://terminology.hl7.org/CodeSystem/observation-category",
                "code": "laboratory"
              }
            ]
          }
        ],
        "code": {
          "coding": [
            {
              "code": "787-2",
              "system": "http://loinc.org",
              "display": "MCV [Entitic volume] by Automated count"
            }
          ],
          "text": "MCV [Entitic volume] by Automated count"
        },
        "valueQuantity": {
          "system": "http://unitsofmeasure.org",
          "value": 90.3,
          "unit": "fL",
          "code": "fL"
        },
        "referenceRange": [
          {
            "low": {
              "value": 82,
              "code": "fL",
              "system": "http://unitsofmeasure.org"
            }
          },
          {
            "high": {
              "value": 98,
              "code": "fL",
              "system": "http://unitsofmeasure.org"
            }
          }
        ],
        "text": {
          "status": "generated",
          "div": "<div xmlns=\"http://www.w3.org/1999/xhtml\"><table class=\"hl7__eu__lab__report\"><tr><th>Test</th><th>20-Apr-2025</th><th>Reference&#xA0;Range</th><th>Unit</th></tr><tr><td>MCV [Entitic volume] by Automated count</td><td>90.3</td><td>82 - 98</td><td></td><td>fL</td></tr></table></div>"
        },
        "status": "final",
        "subject": {
          "reference": "urn:uuid:c5de0a53-e757-4182-9880-a8f6c0107ec4",
          "display": "Katy Johnston"
        },
        "effectiveDateTime": "2025-04-20T09:58:49Z"
      }
    },
    {
      "fullUrl": "urn:uuid:00dc701d-01f3-4232-ae8d-bffb21ba61e1",
      "resource": {
        "resourceType": "Observation",
        "id": "00dc701d-01f3-4232-ae8d-bffb21ba61e1",
        "meta": {
          "profile": [
            "http://hl7.eu/fhir/laboratory/StructureDefinition/Observation-resultslab-eu-lab"
          ]
        },
        "performer": [
          {
            "display": "The Central European Lab"
          }
        ],
        "category": [
          {
            "coding": [
              {
                "system": "http://terminology.hl7.org/CodeSystem/observation-category",
                "code": "laboratory"
              }
            ]
          }
        ],
        "code": {
          "coding": [
            {
              "code": "785-6",
              "system": "http://loinc.org",
              "display": "MCH [Entitic mass] by Automated count"
            }
          ],
          "text": "MCH [Entitic mass] by Automated count"
        },
        "valueQuantity": {
          "system": "http://unitsofmeasure.org",
          "value": 29.9,
          "unit": "pg",
          "code": "pg"
        },
        "referenceRange": [
          {
            "low": {
              "value": 27,
              "code": "pg",
              "system": "http://unitsofmeasure.org"
            }
          },
          {
            "high": {
              "value": 33,
              "code": "pg",
              "system": "http://unitsofmeasure.org"
            }
          }
        ],
        "text": {
          "status": "generated",
          "div": "<div xmlns=\"http://www.w3.org/1999/xhtml\"><table class=\"hl7__eu__lab__report\"><tr><th>Test</th><th>20-Apr-2025</th><th>Reference&#xA0;Range</th><th>Unit</th></tr><tr><td>MCH [Entitic mass] by Automated count</td><td>29.9</td><td>27 - 33</td><td></td><td>pg</td></tr></table></div>"
        },
        "status": "final",
        "subject": {
          "reference": "urn:uuid:c5de0a53-e757-4182-9880-a8f6c0107ec4",
          "display": "Katy Johnston"
        },
        "effectiveDateTime": "2025-04-20T09:58:49Z"
      }
    },
    {
      "fullUrl": "urn:uuid:b3a2f799-0637-4975-864d-6fb838b546bb",
      "resource": {
        "resourceType": "Observation",
        "id": "b3a2f799-0637-4975-864d-6fb838b546bb",
        "meta": {
          "profile": [
            "http://hl7.eu/fhir/laboratory/StructureDefinition/Observation-resultslab-eu-lab"
          ]
        },
        "performer": [
          {
            "display": "The Central European Lab"
          }
        ],
        "category": [
          {
            "coding": [
              {
                "system": "http://terminology.hl7.org/CodeSystem/observation-category",
                "code": "laboratory"
              }
            ]
          }
        ],
        "code": {
          "coding": [
            {
              "code": "786-4",
              "system": "http://loinc.org",
              "display": "MCHC [Mass/volume] by Automated count"
            }
          ],
          "text": "MCHC [Mass/volume] by Automated count"
        },
        "valueQuantity": {
          "system": "http://unitsofmeasure.org",
          "value": 34.5,
          "unit": "g/dL",
          "code": "g/dL"
        },
        "referenceRange": [
          {
            "low": {
              "value": 32,
              "code": "g/dL",
              "system": "http://unitsofmeasure.org"
            }
          },
          {
            "high": {
              "value": 37,
              "code": "g/dL",
              "system": "http://unitsofmeasure.org"
            }
          }
        ],
        "text": {
          "status": "generated",
          "div": "<div xmlns=\"http://www.w3.org/1999/xhtml\"><table class=\"hl7__eu__lab__report\"><tr><th>Test</th><th>20-Apr-2025</th><th>Reference&#xA0;Range</th><th>Unit</th></tr><tr><td>MCHC [Mass/volume] by Automated count</td><td>34.5</td><td>32 - 37</td><td></td><td>g/dL</td></tr></table></div>"
        },
        "status": "final",
        "subject": {
          "reference": "urn:uuid:c5de0a53-e757-4182-9880-a8f6c0107ec4",
          "display": "Katy Johnston"
        },
        "effectiveDateTime": "2025-04-20T09:58:49Z"
      }
    },
    {
      "fullUrl": "urn:uuid:974bc04d-e85a-4611-aeb3-3f22e5f54839",
      "resource": {
        "resourceType": "Observation",
        "id": "974bc04d-e85a-4611-aeb3-3f22e5f54839",
        "meta": {
          "profile": [
            "http://hl7.eu/fhir/laboratory/StructureDefinition/Observation-resultslab-eu-lab"
          ]
        },
        "performer": [
          {
            "display": "The Central European Lab"
          }
        ],
        "category": [
          {
            "coding": [
              {
                "system": "http://terminology.hl7.org/CodeSystem/observation-category",
                "code": "laboratory"
              }
            ]
          }
        ],
        "code": {
          "coding": [
            {
              "code": "21000-5",
              "system": "http://loinc.org",
              "display": "Erythrocyte distribution width [Entitic volume] by Automated count"
            }
          ],
          "text": "Erythrocyte distribution width [Entitic volume] by Automated count"
        },
        "valueQuantity": {
          "system": "http://unitsofmeasure.org",
          "value": 39.4,
          "unit": "fL",
          "code": "fL"
        },
        "referenceRange": [
          {
            "low": {
              "value": 36,
              "code": "fL",
              "system": "http://unitsofmeasure.org"
            }
          },
          {
            "high": {
              "value": 56,
              "code": "fL",
              "system": "http://unitsofmeasure.org"
            }
          }
        ],
        "text": {
          "status": "generated",
          "div": "<div xmlns=\"http://www.w3.org/1999/xhtml\"><table class=\"hl7__eu__lab__report\"><tr><th>Test</th><th>20-Apr-2025</th><th>Reference&#xA0;Range</th><th>Unit</th></tr><tr><td>Erythrocyte distribution width [Entitic volume] by Automated count</td><td>39.4</td><td>36 - 56</td><td></td><td>fL</td></tr></table></div>"
        },
        "status": "final",
        "subject": {
          "reference": "urn:uuid:c5de0a53-e757-4182-9880-a8f6c0107ec4",
          "display": "Katy Johnston"
        },
        "effectiveDateTime": "2025-04-20T09:58:49Z"
      }
    },
    {
      "fullUrl": "urn:uuid:7f0c1435-a318-499b-9c82-737faf78b1d2",
      "resource": {
        "resourceType": "Observation",
        "id": "7f0c1435-a318-499b-9c82-737faf78b1d2",
        "meta": {
          "profile": [
            "http://hl7.eu/fhir/laboratory/StructureDefinition/Observation-resultslab-eu-lab"
          ]
        },
        "performer": [
          {
            "display": "The Central European Lab"
          }
        ],
        "category": [
          {
            "coding": [
              {
                "system": "http://terminology.hl7.org/CodeSystem/observation-category",
                "code": "laboratory"
              }
            ]
          }
        ],
        "code": {
          "coding": [
            {
              "code": "777-3",
              "system": "http://loinc.org",
              "display": "Platelets [#/volume] in Blood by Automated count"
            }
          ],
          "text": "Platelets [#/volume] in Blood by Automated count"
        },
        "valueQuantity": {
          "system": "http://unitsofmeasure.org",
          "value": 380.4,
          "unit": "10*3/uL",
          "code": "10*3/uL"
        },
        "referenceRange": [
          {
            "low": {
              "value": 150,
              "code": "10*3/uL",
              "system": "http://unitsofmeasure.org"
            }
          },
          {
            "high": {
              "value": 450,
              "code": "10*3/uL",
              "system": "http://unitsofmeasure.org"
            }
          }
        ],
        "text": {
          "status": "generated",
          "div": "<div xmlns=\"http://www.w3.org/1999/xhtml\"><table class=\"hl7__eu__lab__report\"><tr><th>Test</th><th>20-Apr-2025</th><th>Reference&#xA0;Range</th><th>Unit</th></tr><tr><td>Platelets [#/volume] in Blood by Automated count</td><td>380.4</td><td>150 - 450</td><td></td><td>10*3/uL</td></tr></table></div>"
        },
        "status": "final",
        "subject": {
          "reference": "urn:uuid:c5de0a53-e757-4182-9880-a8f6c0107ec4",
          "display": "Katy Johnston"
        },
        "effectiveDateTime": "2025-04-20T09:58:49Z"
      }
    },
    {
      "fullUrl": "urn:uuid:ce3ea2d7-5ad7-49ce-a337-b60ad9137cd5",
      "resource": {
        "resourceType": "Observation",
        "id": "ce3ea2d7-5ad7-49ce-a337-b60ad9137cd5",
        "meta": {
          "profile": [
            "http://hl7.eu/fhir/laboratory/StructureDefinition/Observation-resultslab-eu-lab"
          ]
        },
        "performer": [
          {
            "display": "The Central European Lab"
          }
        ],
        "category": [
          {
            "coding": [
              {
                "system": "http://terminology.hl7.org/CodeSystem/observation-category",
                "code": "laboratory"
              }
            ]
          }
        ],
        "code": {
          "coding": [
            {
              "code": "32207-3",
              "system": "http://loinc.org",
              "display": "Platelet distribution width [Entitic volume] in Blood by Automated count"
            }
          ],
          "text": "Platelet distribution width [Entitic volume] in Blood by Automated count"
        },
        "valueQuantity": {
          "system": "http://unitsofmeasure.org",
          "value": 199.4,
          "unit": "fL",
          "code": "fL"
        },
        "referenceRange": [
          {
            "low": {
              "value": 11.6,
              "code": "fL",
              "system": "http://unitsofmeasure.org"
            }
          },
          {
            "high": {
              "value": 17.4,
              "code": "fL",
              "system": "http://unitsofmeasure.org"
            }
          }
        ],
        "interpretation": [
          {
            "coding": [
              {
                "code": "H",
                "system": "http://terminology.hl7.org/CodeSystem/v3-ObservationInterpretation",
                "display": "High"
              }
            ]
          }
        ],
        "text": {
          "status": "generated",
          "div": "<div xmlns=\"http://www.w3.org/1999/xhtml\"><table class=\"hl7__eu__lab__report\"><tr><th>Test</th><th>20-Apr-2025</th><th>Reference&#xA0;Range</th><th>Unit</th></tr><tr><td>Platelet distribution width [Entitic volume] in Blood by Automated count</td><td>199.4</td><td>11.6 - 17.4</td><td>H</td><td>fL</td></tr></table></div>"
        },
        "status": "final",
        "subject": {
          "reference": "urn:uuid:c5de0a53-e757-4182-9880-a8f6c0107ec4",
          "display": "Katy Johnston"
        },
        "effectiveDateTime": "2025-04-20T09:58:49Z"
      }
    },
    {
      "fullUrl": "urn:uuid:5d31df16-0157-4887-b2d3-830e60f67d2a",
      "resource": {
        "resourceType": "Observation",
        "id": "5d31df16-0157-4887-b2d3-830e60f67d2a",
        "meta": {
          "profile": [
            "http://hl7.eu/fhir/laboratory/StructureDefinition/Observation-resultslab-eu-lab"
          ]
        },
        "performer": [
          {
            "display": "The Central European Lab"
          }
        ],
        "category": [
          {
            "coding": [
              {
                "system": "http://terminology.hl7.org/CodeSystem/observation-category",
                "code": "laboratory"
              }
            ]
          }
        ],
        "code": {
          "coding": [
            {
              "code": "32623-1",
              "system": "http://loinc.org",
              "display": "Platelet mean volume [Entitic volume] in Blood by Automated count"
            }
          ],
          "text": "Platelet mean volume [Entitic volume] in Blood by Automated count"
        },
        "valueQuantity": {
          "system": "http://unitsofmeasure.org",
          "value": 9.5,
          "unit": "fL",
          "code": "fL"
        },
        "referenceRange": [
          {
            "low": {
              "value": 9.4,
              "code": "fL",
              "system": "http://unitsofmeasure.org"
            }
          },
          {
            "high": {
              "value": 14,
              "code": "fL",
              "system": "http://unitsofmeasure.org"
            }
          }
        ],
        "text": {
          "status": "generated",
          "div": "<div xmlns=\"http://www.w3.org/1999/xhtml\"><table class=\"hl7__eu__lab__report\"><tr><th>Test</th><th>20-Apr-2025</th><th>Reference&#xA0;Range</th><th>Unit</th></tr><tr><td>Platelet mean volume [Entitic volume] in Blood by Automated count</td><td>9.5</td><td>9.4 - 14</td><td></td><td>fL</td></tr></table></div>"
        },
        "status": "final",
        "subject": {
          "reference": "urn:uuid:c5de0a53-e757-4182-9880-a8f6c0107ec4",
          "display": "Katy Johnston"
        },
        "effectiveDateTime": "2025-04-20T09:58:49Z"
      }
    },
    {
      "fullUrl": "urn:uuid:46bc0702-574e-469f-8495-9f4168fafed6",
      "resource": {
        "resourceType": "DeviceUseStatement",
        "id": "46bc0702-574e-469f-8495-9f4168fafed6",
        "meta": {
          "profile": [
            "http://hl7.eu/fhir/eps/StructureDefinition/deviceUseStatement-eu-eps"
          ]
        },
        "timingPeriod": {
          "start": "2019-03-17"
        },
        "text": {
          "status": "generated",
          "div": "<div xmlns=\"http://www.w3.org/1999/xhtml\"><table class=\"hl7__ips\"><tr><td>Blood glucose meter (physical object)</td><td><span class=\"nb\">17-Mar-2019</span></td></tr></table></div>"
        },
        "status": "active",
        "device": {
          "reference": "urn:uuid:72ad0939-b683-41a8-b9c3-e30336f87833",
          "display": "Blood glucose meter (physical object)"
        },
        "subject": {
          "reference": "urn:uuid:c5de0a53-e757-4182-9880-a8f6c0107ec4",
          "display": "Katy Johnston"
        }
      }
    },
    {
      "fullUrl": "urn:uuid:72ad0939-b683-41a8-b9c3-e30336f87833",
      "resource": {
        "resourceType": "Device",
        "id": "72ad0939-b683-41a8-b9c3-e30336f87833",
        "meta": {
          "profile": [
            "http://hl7.eu/fhir/eps/StructureDefinition/device-eu-eps"
          ]
        },
        "udiCarrier": [
          {
            "id": "(01)33756287036383(11)190224(17)440310(10)3723212037368(21)261460038094382017"
          }
        ],
        "status": "active",
        "patient": {
          "reference": "urn:uuid:c5de0a53-e757-4182-9880-a8f6c0107ec4",
          "display": "Katy Johnston"
        },
        "type": {
          "coding": [
            {
              "code": "337414009",
              "system": "http://snomed.info/sct",
              "display": "Blood glucose meter (physical object)"
            }
          ]
        }
      }
    },
    {
      "fullUrl": "urn:uuid:0e25b814-e5fe-42c5-8edb-b04da137b96e",
      "resource": {
        "resourceType": "Device",
        "id": "0e25b814-e5fe-42c5-8edb-b04da137b96e",
        "deviceName": [
          {
            "name": "SYNDERAI Synthetic Generator",
            "type": "manufacturer-name"
          }
        ],
        "version": [
          {
            "value": "5.0"
          }
        ],
        "text": {
          "status": "generated",
          "div": "<div xmlns=\"http://www.w3.org/1999/xhtml\">SYNDERAI Synthetic Generator v5.0</div>"
        },
        "status": "active\"",
        "distinctIdentifier": "synderai-generator-50",
        "manufacturer": "SYNDERAI Project"
      }
    },
    {
      "fullUrl": "urn:uuid:222da392-0a2b-4aaa-a172-d38ff022ebb4",
      "resource": {
        "resourceType": "Provenance",
        "id": "222da392-0a2b-4aaa-a172-d38ff022ebb4",
        "target": [
          {
            "reference": "Patient/c5de0a53-e757-4182-9880-a8f6c0107ec4"
          },
          {
            "reference": "Bundle/b6309857-9df6-4408-b8e0-8f237a410f3b"
          },
          {
            "reference": "Composition/279b6d45-d66c-461f-96f9-142a6b864d43"
          },
          {
            "reference": "PractitionerRole/c7ccb4e2-155f-439c-bed6-424c224a7558"
          },
          {
            "reference": "Organization/3731d42f-3517-4d6a-8321-242174b28653"
          },
          {
            "reference": "Practitioner/90ba03e9-9322-48a2-a10b-fb41bc953d60"
          }
        ],
        "activity": {
          "text": "Synthetic Example Data Generation"
        },
        "policy": [
          "https://synderai.net/synderai-synthetic-data-policy"
        ],
        "agent": [
          {
            "type": {
              "text": "author"
            },
            "who": {
              "reference": "Device/0e25b814-e5fe-42c5-8edb-b04da137b96e"
            }
          }
        ],
        "reason": [
          {
            "text": "Interoperability Testing and Training (non-clinical use)"
          }
        ],
        "text": {
          "status": "generated",
          "div": "<div xmlns=\"http://www.w3.org/1999/xhtml\">Provenance for SYNDERAI Synthetic Example Data Resource</div>"
        },
        "recorded": "2025-04-20T09:58:49Z"
      }
    }
  ],
  "type": "document",
  "timestamp": "2025-04-20T09:58:49Z"
}
