<Bundle xmlns="http://hl7.org/fhir">
   <id value="966c1135-058f-43b1-9de2-d7d3c2e486ab"/>
   <meta>
      <profile value="http://hl7.eu/fhir/eps/StructureDefinition/bundle-eu-eps"/>
   </meta>
   <identifier>
      <system value="urn:oid:2.16.840.1.113883.2.51.999"/>
      <value value="38feed95-fd2b-4b8a-a1a0-1dd2e7d00d84"/>
      <assigner>
         <display value="HL7 Europe"/>
      </assigner>
   </identifier>
   <type value="document"/>
   <timestamp value="2024-08-17T21:33:04Z"/>
   <entry>
      <fullUrl value="urn:uuid:2174c262-cbd5-4677-96a8-e5f2218573d0"/>
      <resource>
         <Composition>
            <id value="2174c262-cbd5-4677-96a8-e5f2218573d0"/>
            <meta>
               <profile value="http://hl7.eu/fhir/eps/StructureDefinition/composition-eu-eps"/>
               <security>
                  <system value="http://terminology.hl7.org/CodeSystem/v3-ActReason"/>
                  <code value="HTEST"/>
               </security>
               <security>
                  <system value="http://terminology.hl7.org/CodeSystem/v3-ActReason"/>
                  <code value="TRAIN"/>
               </security>
               <tag>
                  <system value="https://synderai.net/fhir/CodeSystem/tags"/>
                  <code value="synthetic"/>
                  <display value="SYNDERAI Synthetic data"/>
               </tag>
            </meta>
            <identifier>
               <system value="urn:oid:2.16.840.1.113883.2.51.999"/>
               <value value="0b684535-521c-4509-8c41-7df730551805"/>
               <assigner>
                  <display value="HL7 Europe"/>
               </assigner>
            </identifier>
            <status value="final"/>
            <type>
               <coding>
                  <system value="http://loinc.org"/>
                  <code value="60591-5"/>
                  <display value="Patient summary Document"/>
               </coding>
               <text value="Patient summary Document"/>
            </type>
            <subject>
               <reference value="urn:uuid:bb0da509-ecca-4fc7-8780-563bab3717f0"/>
               <display value="Andrzej Frydrychowicz"/>
            </subject>
            <date value="2024-08-17"/>
            <author>
               <reference value="urn:uuid:9b8efac9-6231-45ea-a244-982a2796e2d4"/>
            </author>
            <title value="European Patient Summary"/>
            <confidentiality value="N"/>
            <custodian>
               <reference value="urn:uuid:216a1394-ed04-48ff-a3b0-249e8d9de0e5"/>
            </custodian>
            <section>
               <title value="Problem list"/>
               <code>
                  <coding>
                     <system value="http://loinc.org"/>
                     <code value="11450-4"/>
                     <display value="Problem list - Reported"/>
                  </coding>
               </code>
               <text>
                  <status value="generated"/>
                  <div xmlns="http://www.w3.org/1999/xhtml">
                     <table class="hl7__ips">
                        <tr>
                           <th>Condition</th>
                           <th>Onset Date</th>
                           <th>Status</th>
                        </tr>
                        <tr>
                           <td>Ischemic heart disease</td>
                           <td>
                              <span class="nb">06-Aug-2022</span>
                           </td>
                           <td>active</td>
                        </tr>
                        <tr>
                           <td>Osteoarthritis of knee</td>
                           <td>
                              <span class="nb">24-Oct-2021</span>
                           </td>
                           <td>active</td>
                        </tr>
                        <tr>
                           <td>Prediabetes</td>
                           <td>
                              <span class="nb">20-Aug-2005</span>
                           </td>
                           <td>active</td>
                        </tr>
                        <tr>
                           <td>Anemia</td>
                           <td>
                              <span class="nb">20-Aug-2005</span>
                           </td>
                           <td>active</td>
                        </tr>
                     </table>
                  </div>
               </text>
               <entry>
                  <reference value="urn:uuid:e5c53f0e-190c-4a88-9434-e698a8c9b901"/>
               </entry>
               <entry>
                  <reference value="urn:uuid:12a89d10-7774-486d-9185-3c78513345f5"/>
               </entry>
               <entry>
                  <reference value="urn:uuid:87625d82-3b78-4bb2-994c-7fa310417723"/>
               </entry>
               <entry>
                  <reference value="urn:uuid:c7eeaf9c-d10f-4d5d-af0f-48ce0a6090a6"/>
               </entry>
            </section>
            <section>
               <title value="Medication list"/>
               <code>
                  <coding>
                     <system value="http://loinc.org"/>
                     <code value="10160-0"/>
                     <display value="History of Medication use Narrative"/>
                  </coding>
               </code>
               <text>
                  <status value="generated"/>
                  <div xmlns="http://www.w3.org/1999/xhtml">
                     <table class="hl7__ips">
                        <tr>
                           <th>Medication</th>
                           <th>Since</th>
                           <th>Form</th>
                           <th>Dosage</th>
                           <th>Reason</th>
                        </tr>
                        <tr>
                           <td>Acetaminophen 325 mg oral tablet</td>
                           <td>
                              <span class="nb">2024-08-17</span>
                           </td>
                           <td>-</td>
                           <td>1 tablet (325 mg) by mouth every 4 to 6 hours as needed</td>
                           <td>-</td>
                        </tr>
                        <tr>
                           <td>Clopidogrel (as clopidogrel bisulfate) 75 mg oral tablet</td>
                           <td>
                              <span class="nb">2022-08-13</span>
                           </td>
                           <td>-</td>
                           <td>1 tablet (75 mg) once daily</td>
                           <td>-</td>
                        </tr>
                        <tr>
                           <td>Simvastatin 20 mg oral tablet</td>
                           <td>
                              <span class="nb">2022-08-13</span>
                           </td>
                           <td>-</td>
                           <td>1 tablet (20 mg) by mouth once daily</td>
                           <td>-</td>
                        </tr>
                        <tr>
                           <td>Nitroglycerin 400 microgram/actuation sublingual spray</td>
                           <td>
                              <span class="nb">2022-08-13</span>
                           </td>
                           <td>-</td>
                           <td>400 micrograms (1 spray) under the tongue as needed for chest pain, repeat every 5 minutes if needed, up to 3 sprays in 15 minutes</td>
                           <td>-</td>
                        </tr>
                        <tr>
                           <td>Metoprolol tartrate (as metoprolol succinate) 100 mg prolonged-release oral tablet</td>
                           <td>
                              <span class="nb">2022-08-13</span>
                           </td>
                           <td>-</td>
                           <td>1 tablet (100 mg) once daily</td>
                           <td>-</td>
                        </tr>
                        <tr>
                           <td>Naproxen sodium 220 mg oral capsule</td>
                           <td>
                              <span class="nb">2021-10-24</span>
                           </td>
                           <td>-</td>
                           <td>1 tablet (220 mg) by mouth every 12 hours as needed</td>
                           <td>Osteoarthritis of knee</td>
                        </tr>
                     </table>
                  </div>
               </text>
               <entry>
                  <reference value="urn:uuid:01a45b72-41e6-4c8f-a834-4f539b58da0b"/>
               </entry>
               <entry>
                  <reference value="urn:uuid:d9cea2d8-70f9-4ecd-b743-1e34a2a771a1"/>
               </entry>
               <entry>
                  <reference value="urn:uuid:994ba7eb-1178-4cd9-8069-93b44fdd4d09"/>
               </entry>
               <entry>
                  <reference value="urn:uuid:4737fc1d-8528-4573-92e1-eb00dfeffa74"/>
               </entry>
               <entry>
                  <reference value="urn:uuid:82c4966e-3518-4fc4-8045-bdfca8d71761"/>
               </entry>
               <entry>
                  <reference value="urn:uuid:22524493-28c2-4d06-9f93-a28104ff9802"/>
               </entry>
            </section>
            <section>
               <title value="Immunizations list"/>
               <code>
                  <coding>
                     <system value="http://loinc.org"/>
                     <code value="11369-6"/>
                     <display value="History of Immunization note"/>
                  </coding>
               </code>
               <text>
                  <status value="generated"/>
                  <div xmlns="http://www.w3.org/1999/xhtml">
                     <table class="hl7__ips">
                        <tr>
                           <th>Vaccine</th>
                           <th>Date</th>
                        </tr>
                        <tr>
                           <td>Influenza virus antigen only vaccine product</td>
                           <td>
                              <span class="nb">17-Aug-2024</span>
                           </td>
                        </tr>
                        <tr>
                           <td>Clostridium tetani toxoid antigen adsorbed only vaccine product</td>
                           <td>
                              <span class="nb">06-Aug-2022</span>
                           </td>
                        </tr>
                        <tr>
                           <td>Live attenuated Human alphaherpesvirus 3 only vaccine product</td>
                           <td>
                              <span class="nb">06-Aug-2022</span>
                           </td>
                        </tr>
                        <tr>
                           <td>SARS-CoV-2 mRNA vaccine</td>
                           <td>
                              <span class="nb">10-Apr-2021</span>
                           </td>
                        </tr>
                     </table>
                  </div>
               </text>
               <entry>
                  <reference value="urn:uuid:3d13d0d9-62e8-4054-8fd5-4c4ce4f5b7cc"/>
               </entry>
               <entry>
                  <reference value="urn:uuid:f5c7f1ee-ffb6-45cd-a316-3d56cd8c00c4"/>
               </entry>
               <entry>
                  <reference value="urn:uuid:4f8df2df-655f-46ce-ac18-81acf04f650b"/>
               </entry>
               <entry>
                  <reference value="urn:uuid:c101cff2-2ff4-4b03-8fc6-05024f3db1de"/>
               </entry>
            </section>
            <section>
               <title value="Procedure History list"/>
               <code>
                  <coding>
                     <system value="http://loinc.org"/>
                     <code value="47519-4"/>
                     <display value="History of Procedures Document"/>
                  </coding>
               </code>
               <text>
                  <status value="generated"/>
                  <div xmlns="http://www.w3.org/1999/xhtml">
                     <table class="hl7__ips">
                        <tr>
                           <th>Procedure</th>
                           <th>Date</th>
                           <th>Reason</th>
                        </tr>
                        <tr>
                           <td>Medication reconciliation</td>
                           <td>
                              <span class="nb">16-Mar-2019</span>
                           </td>
                           <td>-</td>
                        </tr>
                        <tr>
                           <td>Assessment of health and social care needs</td>
                           <td>
                              <span class="nb">16-Mar-2019</span>
                           </td>
                           <td>-</td>
                        </tr>
                     </table>
                  </div>
               </text>
               <entry>
                  <reference value="urn:uuid:68b68c7f-8dc8-472c-bdb9-fe5e0541d04d"/>
               </entry>
               <entry>
                  <reference value="urn:uuid:a46e035e-3f42-4080-a5c8-d6113541578e"/>
               </entry>
            </section>
            <section>
               <title value="Allergies and Intolerances"/>
               <code>
                  <coding>
                     <system value="http://loinc.org"/>
                     <code value="48765-2"/>
                     <display value="Allergies and adverse reactions Document"/>
                  </coding>
               </code>
               <text>
                  <status value="generated"/>
                  <div xmlns="http://www.w3.org/1999/xhtml">
                     <table class="hl7__ips">
                        <tr>
                           <th>Allergy/Intolerance</th>
                           <th>Onset Date</th>
                           <th>Status</th>
                           <th>Type</th>
                           <th>Reaction</th>
                        </tr>
                        <tr>
                           <td/>
                           <td>?</td>
                           <td>active</td>
                           <td>?</td>
                           <td/>
                        </tr>
                     </table>
                  </div>
               </text>
               <entry>
                  <reference value="urn:uuid:552e2817-50c0-40f2-b1f7-acdc05fbc09f"/>
               </entry>
            </section>
            <section>
               <title value="Care Plan"/>
               <code>
                  <coding>
                     <system value="http://loinc.org"/>
                     <code value="18776-5"/>
                     <display value="Plan of care note"/>
                  </coding>
               </code>
               <text>
                  <status value="generated"/>
                  <div xmlns="http://www.w3.org/1999/xhtml">
                     <table class="hl7__ips">
                        <tr>
                           <th>Active Planned Care / Goals</th>
                           <th>Start Date</th>
                           <th>Reason</th>
                        </tr>
                        <tr>
                           <td>Musculoskeletal care</td>
                           <td>
                              <span class="nb">24-Oct-2021</span>
                           </td>
                           <td>Osteoarthritis of knee</td>
                        </tr>
                        <tr>
                           <td>
                              <ul>
                                 <li>Reduce knee pain severity to a tolerable level to improve function and quality of life.</li>
                                 <li>Increase ability to walk and perform daily activities without significant limitation from knee osteoarthritis.</li>
                                 <li>Decrease swelling and inflammation in the affected knee to improve comfort and mobility.</li>
                              </ul>
                           </td>
                           <td/>
                           <td/>
                        </tr>
                        <tr>
                           <td>Diabetes self management plan</td>
                           <td>
                              <span class="nb">20-Aug-2005</span>
                           </td>
                           <td>Prediabetes</td>
                        </tr>
                        <tr>
                           <td>
                              <ul>
                                 <li>Achieve and maintain HbA1c below 6.5% through lifestyle modification and self-management.</li>
                                 <li>Reduce body weight to support improved glucose metabolism.</li>
                                 <li>Engage in at least 150 minutes of moderate-intensity physical activity per week.</li>
                                 <li>Maintain blood pressure below 130/80 mmHg to reduce cardiovascular risk.</li>
                              </ul>
                           </td>
                           <td/>
                           <td/>
                        </tr>
                     </table>
                  </div>
               </text>
               <entry>
                  <reference value="urn:uuid:c7d5e8d9-4481-4ab8-b0f7-206c07c9902b"/>
               </entry>
               <entry>
                  <reference value="urn:uuid:4afe9197-c596-4376-a5b7-2b0595f10080"/>
               </entry>
            </section>
            <section>
               <title value="Vital Signs"/>
               <code>
                  <coding>
                     <system value="http://loinc.org"/>
                     <code value="8716-3"/>
                     <display value="Vital signs note"/>
                  </coding>
               </code>
               <text>
                  <status value="generated"/>
                  <div xmlns="http://www.w3.org/1999/xhtml">
                     <table class="hl7__ips">
                        <tr>
                           <th>Vital Signs</th>
                           <th>2024-08-17</th>
                           <th>2023-08-12</th>
                        </tr>
                        <tr>
                           <td>Body Height</td>
                           <td>190.2 cm</td>
                           <td>190.2 cm</td>
                        </tr>
                        <tr>
                           <td>Pain severity - 0-10 verbal numeric rating [Score] - Reported</td>
                           <td>4 {score}</td>
                           <td>4 {score}</td>
                        </tr>
                        <tr>
                           <td>Body Weight</td>
                           <td>109.7 kg</td>
                           <td>109.7 kg</td>
                        </tr>
                        <tr>
                           <td>Body mass index (BMI) [Ratio]</td>
                           <td>30.3 kg/m2</td>
                           <td>30.3 kg/m2</td>
                        </tr>
                        <tr>
                           <td>Diastolic Blood Pressure</td>
                           <td>51 mm[Hg]</td>
                           <td>44 mm[Hg]</td>
                        </tr>
                        <tr>
                           <td>Systolic Blood Pressure</td>
                           <td>95 mm[Hg]</td>
                           <td>85 mm[Hg]</td>
                        </tr>
                        <tr>
                           <td>Heart rate</td>
                           <td>75 /min</td>
                           <td>96 /min</td>
                        </tr>
                        <tr>
                           <td>Respiratory rate</td>
                           <td>15 /min</td>
                           <td>16 /min</td>
                        </tr>
                     </table>
                  </div>
               </text>
               <entry>
                  <reference value="urn:uuid:5c9c0554-f517-4b4c-9947-0fb2e82cff6c"/>
               </entry>
               <entry>
                  <reference value="urn:uuid:3fc00c75-8a1d-4412-b5de-2ce59d338f80"/>
               </entry>
               <entry>
                  <reference value="urn:uuid:75d3ea90-91de-4c61-bd5d-783494c187ea"/>
               </entry>
               <entry>
                  <reference value="urn:uuid:19d3fa7f-6125-4809-ae6e-3383b4b20195"/>
               </entry>
               <entry>
                  <reference value="urn:uuid:9bef544f-7420-47f3-b99d-da4a09957d17"/>
               </entry>
               <entry>
                  <reference value="urn:uuid:03cc9f51-dc93-4351-a708-725a3c8eb110"/>
               </entry>
               <entry>
                  <reference value="urn:uuid:01048201-692d-431c-af2c-3fd3cbc89eae"/>
               </entry>
               <entry>
                  <reference value="urn:uuid:f5da5c00-ba1e-4d5e-8ac7-da87d3838e50"/>
               </entry>
               <entry>
                  <reference value="urn:uuid:afbbab43-b534-40a6-acc6-cefd35c7b66b"/>
               </entry>
               <entry>
                  <reference value="urn:uuid:14c9b6ad-82b8-4cbb-bc7c-0f764a81e428"/>
               </entry>
               <entry>
                  <reference value="urn:uuid:b4583449-e891-46a3-b65e-0586d545f6b6"/>
               </entry>
               <entry>
                  <reference value="urn:uuid:89fabc2c-b5f8-4f3d-a3e6-aaa30c030000"/>
               </entry>
               <entry>
                  <reference value="urn:uuid:f0239942-c974-4018-86b0-c2cc93979b44"/>
               </entry>
               <entry>
                  <reference value="urn:uuid:2ede6b19-c3aa-4b88-bca4-4523cd2792a6"/>
               </entry>
               <entry>
                  <reference value="urn:uuid:46a642f1-eb4d-4be9-a7a4-d400ae7393d2"/>
               </entry>
               <entry>
                  <reference value="urn:uuid:7fb40d77-bf61-4bb4-9250-2e76c6047247"/>
               </entry>
            </section>
            <section>
               <title value="Relevant diagnostic tests/laboratory data"/>
               <code>
                  <coding>
                     <system value="http://loinc.org"/>
                     <code value="30954-2"/>
                     <display value="Relevant diagnostic tests/laboratory data note"/>
                  </coding>
               </code>
               <text>
                  <status value="generated"/>
                  <div xmlns="http://www.w3.org/1999/xhtml">
                     <table class="hl7__ips">
                        <table class="hl7__ips">
                           <thead>
                              <tr>
                                 <th>Recent Lab Observations</th>
                                 <th>17-AUG-2024</th>
                                 <th>Reference Range</th>
                                 <th>Unit</th>
                              </tr>
                           </thead>
                           <tbody>
                              <tr>
                                 <td>Hemoglobin A1c/Hemoglobin.total in Blood</td>
                                 <td>5.9</td>
                                 <td>4.3 - 6.4</td>
                                 <td>%</td>
                              </tr>
                              <tr>
                                 <td>Glucose [Mass/volume] in Blood</td>
                                 <td>90.3</td>
                                 <td>70 - 140</td>
                                 <td>mg/dL</td>
                              </tr>
                              <tr>
                                 <td>Urea nitrogen [Mass/volume] in Blood</td>
                                 <td>7.2</td>
                                 <td>7 - 20</td>
                                 <td>mg/dL</td>
                              </tr>
                              <tr>
                                 <td>Creatinine [Mass/volume] in Blood</td>
                                 <td>
                                    <strong>1.4 H</strong>
                                 </td>
                                 <td>0.6 - 1.3</td>
                                 <td>mg/dL</td>
                              </tr>
                              <tr>
                                 <td>Calcium [Mass/volume] in Blood</td>
                                 <td>9.0</td>
                                 <td>8.5 - 10.5</td>
                                 <td>mg/dL</td>
                              </tr>
                              <tr>
                                 <td>Sodium [Moles/volume] in Blood</td>
                                 <td>136.6</td>
                                 <td>135 - 145</td>
                                 <td>mmol/L</td>
                              </tr>
                              <tr>
                                 <td>Potassium [Moles/volume] in Blood</td>
                                 <td>5.1</td>
                                 <td>3.5 - 5.3</td>
                                 <td>mmol/L</td>
                              </tr>
                              <tr>
                                 <td>Chloride [Moles/volume] in Blood</td>
                                 <td>110.0</td>
                                 <td>98 - 110</td>
                                 <td>mmol/L</td>
                              </tr>
                              <tr>
                                 <td>Carbon dioxide, total [Moles/volume] in Blood</td>
                                 <td>28.8</td>
                                 <td>22 - 29</td>
                                 <td>mmol/L</td>
                              </tr>
                           </tbody>
                        </table>
                     </table>
                  </div>
               </text>
               <entry>
                  <reference value="urn:uuid:61afdcf0-485e-4118-aa61-8d96cb1dde56"/>
               </entry>
               <entry>
                  <reference value="urn:uuid:ddeca941-13b6-492d-a116-4f077503e743"/>
               </entry>
               <entry>
                  <reference value="urn:uuid:ec8312e6-8b60-42de-88a4-a7ca237772be"/>
               </entry>
               <entry>
                  <reference value="urn:uuid:01cd8a96-afe5-46a2-a553-c114956e832e"/>
               </entry>
               <entry>
                  <reference value="urn:uuid:57d722d2-abbc-428e-a817-3b9459f402db"/>
               </entry>
               <entry>
                  <reference value="urn:uuid:113240d1-787b-4634-acfc-0d4826e5793f"/>
               </entry>
               <entry>
                  <reference value="urn:uuid:f26cf333-34a2-4b23-809d-0d3461c15caf"/>
               </entry>
               <entry>
                  <reference value="urn:uuid:b34a394f-7022-497f-9cfb-59826a4e6e99"/>
               </entry>
               <entry>
                  <reference value="urn:uuid:809d5adc-0cd2-4ca1-93b6-fbeccbcaac44"/>
               </entry>
            </section>
            <section>
               <title value="Device Use"/>
               <code>
                  <coding>
                     <system value="http://loinc.org"/>
                     <code value="46264-8"/>
                     <display value="History of medical device use"/>
                  </coding>
               </code>
               <text>
                  <status value="generated"/>
                  <div xmlns="http://www.w3.org/1999/xhtml">
                     <table class="hl7__ips">
                        <tr>
                           <th>Device</th>
                           <th>Date (since)</th>
                        </tr>
                        <tr>
                           <td>Wheelchair accessory (physical object)</td>
                           <td>
                              <span class="nb">24-Oct-2021</span>
                           </td>
                        </tr>
                        <tr>
                           <td>Power-assisted wheelchair (physical object)</td>
                           <td>
                              <span class="nb">24-Oct-2021</span>
                           </td>
                        </tr>
                        <tr>
                           <td>Blood glucose meter (physical object)</td>
                           <td>
                              <span class="nb">20-Aug-2005</span>
                           </td>
                        </tr>
                     </table>
                  </div>
               </text>
               <entry>
                  <reference value="urn:uuid:be292361-dd54-4156-8bce-497964d0318a"/>
               </entry>
               <entry>
                  <reference value="urn:uuid:7851e28c-cdd0-4b2c-9104-4013ac1a2d81"/>
               </entry>
               <entry>
                  <reference value="urn:uuid:21683fa6-0c60-48f9-8878-883ef15b31ee"/>
               </entry>
            </section>
         </Composition>
      </resource>
   </entry>
   <entry>
      <fullUrl value="urn:uuid:bb0da509-ecca-4fc7-8780-563bab3717f0"/>
      <resource>
         <Patient>
            <id value="bb0da509-ecca-4fc7-8780-563bab3717f0"/>
            <meta>
               <profile value="http://hl7.eu/fhir/eps/StructureDefinition/patient-eu-eps"/>
               <security>
                  <system value="http://terminology.hl7.org/CodeSystem/v3-ActReason"/>
                  <code value="HTEST"/>
               </security>
               <security>
                  <system value="http://terminology.hl7.org/CodeSystem/v3-ActReason"/>
                  <code value="TRAIN"/>
               </security>
               <tag>
                  <system value="https://synderai.net/fhir/CodeSystem/tags"/>
                  <code value="synthetic"/>
                  <display value="SYNDERAI Synthetic data"/>
               </tag>
            </meta>
            <text>
               <status value="generated"/>
               <div xmlns="http://www.w3.org/1999/xhtml">
                  <table class="hl7__ips">
                     <tr>
                        <td>Andrzej Frydrychowicz</td>
                        <td>male</td>
                        <td>12-Apr-1974</td>
                     </tr>
                  </table>
               </div>
            </text>
            <extension url="http://hl7.org/fhir/StructureDefinition/patient-nationality">
               <valueCodeableConcept>
                  <coding>
                     <system value="http://hl7.org/fhir/ValueSet/country"/>
                     <code value="PL"/>
                  </coding>
               </valueCodeableConcept>
            </extension>
            <identifier>
               <type>
                  <coding>
                     <system value="http://terminology.hl7.org/CodeSystem/v2-0203"/>
                     <code value="PT"/>
                  </coding>
               </type>
               <system value="http://ec.europa.eu/identifier/eci"/>
               <value value="7036-931598-4"/>
            </identifier>
            <identifier>
               <type>
                  <coding>
                     <system value="http://terminology.hl7.org/CodeSystem/v2-0203"/>
                     <code value="MR"/>
                  </coding>
               </type>
               <system value="http://local.setting.eu/identifier"/>
               <value value="c84bd820-cdcf-9bc1-d9ba-aa083a5eb400"/>
            </identifier>
            <name>
               <family value="Frydrychowicz"/>
            </name>
            <name>
               <given value="Andrzej"/>
            </name>
            <name>
               <text value="Andrzej Frydrychowicz"/>
            </name>
            <telecom>
               <system value="phone"/>
               <value value="516 092 560"/>
            </telecom>
            <gender value="male"/>
            <birthDate value="1974-04-12"/>
            <address>
               <use value="home"/>
               <type value="physical"/>
               <line value="aleja Tulipanowa 94"/>
               <city value="Świdnik"/>
               <postalCode value="21-040"/>
               <country value="Poland"/>
            </address>
         </Patient>
      </resource>
   </entry>
   <entry>
      <fullUrl value="urn:uuid:9b8efac9-6231-45ea-a244-982a2796e2d4"/>
      <resource>
         <PractitionerRole>
            <id value="9b8efac9-6231-45ea-a244-982a2796e2d4"/>
            <meta>
               <profile value="http://hl7.eu/fhir/base/StructureDefinition/practitionerRole-eu"/>
            </meta>
            <text>
               <status value="generated"/>
               <div xmlns="http://www.w3.org/1999/xhtml">
                  <table class="hl7__ips">Provider Role Id 9b8efac9-6231-45ea-a244-982a2796e2d4</table>
               </div>
            </text>
            <practitioner>
               <reference value="urn:uuid:aca8bed2-ba82-4f00-afa9-c013901ab202"/>
            </practitioner>
            <organization>
               <reference value="urn:uuid:216a1394-ed04-48ff-a3b0-249e8d9de0e5"/>
            </organization>
         </PractitionerRole>
      </resource>
   </entry>
   <entry>
      <fullUrl value="urn:uuid:aca8bed2-ba82-4f00-afa9-c013901ab202"/>
      <resource>
         <Practitioner>
            <id value="aca8bed2-ba82-4f00-afa9-c013901ab202"/>
            <meta>
               <profile value="http://hl7.eu/fhir/base/StructureDefinition/practitioner-eu"/>
            </meta>
            <text>
               <status value="generated"/>
               <div xmlns="http://www.w3.org/1999/xhtml">
                  <table class="hl7__ips">Dr. Hel Ping</table>
               </div>
            </text>
            <name>
               <family value="Ping"/>
               <given value="Hel"/>
               <prefix value="Dr."/>
            </name>
         </Practitioner>
      </resource>
   </entry>
   <entry>
      <fullUrl value="urn:uuid:216a1394-ed04-48ff-a3b0-249e8d9de0e5"/>
      <resource>
         <Organization>
            <id value="216a1394-ed04-48ff-a3b0-249e8d9de0e5"/>
            <meta>
               <profile value="http://hl7.eu/fhir/base/StructureDefinition/organization-eu"/>
            </meta>
            <text>
               <status value="generated"/>
               <div xmlns="http://www.w3.org/1999/xhtml">
                  <table class="hl7__ips">Lubelskie Centrum Diagnostyczne</table>
               </div>
            </text>
            <identifier>
               <system value="urn:oid:2.16.840.1.113883.2.51.999"/>
               <value value="6b41a270-99cd-464d-ba60-68975c1a6293"/>
               <assigner>
                  <display value="HL7 Europe"/>
               </assigner>
            </identifier>
            <name value="Lubelskie Centrum Diagnostyczne"/>
            <address>
               <line value="Aleja Lotników Polskich 82"/>
               <city value="Świdnik"/>
               <postalCode value="21-040"/>
               <country value="Poland"/>
            </address>
         </Organization>
      </resource>
   </entry>
   <entry>
      <fullUrl value="urn:uuid:e5c53f0e-190c-4a88-9434-e698a8c9b901"/>
      <resource>
         <Condition>
            <id value="e5c53f0e-190c-4a88-9434-e698a8c9b901"/>
            <meta>
               <profile value="http://hl7.org/fhir/uv/ips/StructureDefinition/Condition-uv-ips"/>
            </meta>
            <text>
               <status value="generated"/>
               <div xmlns="http://www.w3.org/1999/xhtml">
                  <table class="hl7__ips">
                     <tr>
                        <td>Ischemic heart disease</td>
                        <td>
                           <span class="nb">06-Aug-2022</span>
                        </td>
                        <td>active</td>
                     </tr>
                  </table>
               </div>
            </text>
            <category>
               <coding>
                  <system value="http://terminology.hl7.org/CodeSystem/condition-category"/>
                  <code value="problem-list-item"/>
                  <display value="Problem List Item"/>
               </coding>
            </category>
            <code>
               <coding>
                  <system value="http://snomed.info/sct"/>
                  <code value="414545008"/>
                  <display value="Ischemic heart disease (disorder)"/>
               </coding>
               <text value="Ischemic heart disease"/>
            </code>
            <subject>
               <reference value="urn:uuid:"/>
               <display value="Andrzej Frydrychowicz"/>
            </subject>
            <onsetDateTime value="2022-08-06"/>
            <asserter>
               <reference value="urn:uuid:"/>
               <display value="Lubelskie Centrum Diagnostyczne"/>
            </asserter>
         </Condition>
      </resource>
   </entry>
   <entry>
      <fullUrl value="urn:uuid:12a89d10-7774-486d-9185-3c78513345f5"/>
      <resource>
         <Condition>
            <id value="12a89d10-7774-486d-9185-3c78513345f5"/>
            <meta>
               <profile value="http://hl7.org/fhir/uv/ips/StructureDefinition/Condition-uv-ips"/>
            </meta>
            <text>
               <status value="generated"/>
               <div xmlns="http://www.w3.org/1999/xhtml">
                  <table class="hl7__ips">
                     <tr>
                        <td>Osteoarthritis of knee</td>
                        <td>
                           <span class="nb">24-Oct-2021</span>
                        </td>
                        <td>active</td>
                     </tr>
                  </table>
               </div>
            </text>
            <category>
               <coding>
                  <system value="http://terminology.hl7.org/CodeSystem/condition-category"/>
                  <code value="problem-list-item"/>
                  <display value="Problem List Item"/>
               </coding>
            </category>
            <code>
               <coding>
                  <system value="http://snomed.info/sct"/>
                  <code value="239873007"/>
                  <display value="Osteoarthritis of knee (disorder)"/>
               </coding>
               <text value="Osteoarthritis of knee"/>
            </code>
            <subject>
               <reference value="urn:uuid:"/>
               <display value="Andrzej Frydrychowicz"/>
            </subject>
            <onsetDateTime value="2021-10-24"/>
            <asserter>
               <reference value="urn:uuid:"/>
               <display value="Lubelskie Centrum Diagnostyczne"/>
            </asserter>
         </Condition>
      </resource>
   </entry>
   <entry>
      <fullUrl value="urn:uuid:87625d82-3b78-4bb2-994c-7fa310417723"/>
      <resource>
         <Condition>
            <id value="87625d82-3b78-4bb2-994c-7fa310417723"/>
            <meta>
               <profile value="http://hl7.org/fhir/uv/ips/StructureDefinition/Condition-uv-ips"/>
            </meta>
            <text>
               <status value="generated"/>
               <div xmlns="http://www.w3.org/1999/xhtml">
                  <table class="hl7__ips">
                     <tr>
                        <td>Prediabetes</td>
                        <td>
                           <span class="nb">20-Aug-2005</span>
                        </td>
                        <td>active</td>
                     </tr>
                  </table>
               </div>
            </text>
            <category>
               <coding>
                  <system value="http://terminology.hl7.org/CodeSystem/condition-category"/>
                  <code value="problem-list-item"/>
                  <display value="Problem List Item"/>
               </coding>
            </category>
            <code>
               <coding>
                  <system value="http://snomed.info/sct"/>
                  <code value="15777000"/>
                  <display value="Prediabetes (disorder)"/>
               </coding>
               <text value="Prediabetes"/>
            </code>
            <subject>
               <reference value="urn:uuid:"/>
               <display value="Andrzej Frydrychowicz"/>
            </subject>
            <onsetDateTime value="2005-08-20"/>
            <asserter>
               <reference value="urn:uuid:"/>
               <display value="Lubelskie Centrum Diagnostyczne"/>
            </asserter>
         </Condition>
      </resource>
   </entry>
   <entry>
      <fullUrl value="urn:uuid:c7eeaf9c-d10f-4d5d-af0f-48ce0a6090a6"/>
      <resource>
         <Condition>
            <id value="c7eeaf9c-d10f-4d5d-af0f-48ce0a6090a6"/>
            <meta>
               <profile value="http://hl7.org/fhir/uv/ips/StructureDefinition/Condition-uv-ips"/>
            </meta>
            <text>
               <status value="generated"/>
               <div xmlns="http://www.w3.org/1999/xhtml">
                  <table class="hl7__ips">
                     <tr>
                        <td>Anemia</td>
                        <td>
                           <span class="nb">20-Aug-2005</span>
                        </td>
                        <td>active</td>
                     </tr>
                  </table>
               </div>
            </text>
            <category>
               <coding>
                  <system value="http://terminology.hl7.org/CodeSystem/condition-category"/>
                  <code value="problem-list-item"/>
                  <display value="Problem List Item"/>
               </coding>
            </category>
            <code>
               <coding>
                  <system value="http://snomed.info/sct"/>
                  <code value="271737000"/>
                  <display value="Anemia (disorder)"/>
               </coding>
               <text value="Anemia"/>
            </code>
            <subject>
               <reference value="urn:uuid:"/>
               <display value="Andrzej Frydrychowicz"/>
            </subject>
            <onsetDateTime value="2005-08-20"/>
            <asserter>
               <reference value="urn:uuid:"/>
               <display value="Lubelskie Centrum Diagnostyczne"/>
            </asserter>
         </Condition>
      </resource>
   </entry>
   <entry>
      <fullUrl value="urn:uuid:07c204c3-7214-46c5-91b5-9a7e37e4ce60"/>
      <resource>
         <Condition>
            <id value="07c204c3-7214-46c5-91b5-9a7e37e4ce60"/>
            <meta>
               <profile value="http://hl7.org/fhir/uv/ips/StructureDefinition/Condition-uv-ips"/>
            </meta>
            <text>
               <status value="generated"/>
               <div xmlns="http://www.w3.org/1999/xhtml">
                  <table class="hl7__ips">
                     <tr>
                        <td>
                           <span class="grayedout">Acute viral pharyngitis</span>
                        </td>
                        <td>
                           <span class="nb">19-Apr-2022 - 28-Apr-2022</span>
                        </td>
                        <td>
                           <span class="grayedout">inactive</span>
                        </td>
                     </tr>
                  </table>
               </div>
            </text>
            <category>
               <coding>
                  <system value="http://terminology.hl7.org/CodeSystem/condition-category"/>
                  <code value="problem-list-item"/>
                  <display value="Problem List Item"/>
               </coding>
            </category>
            <code>
               <coding>
                  <system value="http://snomed.info/sct"/>
                  <code value="195662009"/>
                  <display value="Acute viral pharyngitis (disorder)"/>
               </coding>
               <text value="Acute viral pharyngitis"/>
            </code>
            <subject>
               <reference value="urn:uuid:"/>
               <display value="Andrzej Frydrychowicz"/>
            </subject>
            <onsetDateTime value="2022-04-19"/>
            <abatementDateTime value="2022-04-28"/>
            <asserter>
               <reference value="urn:uuid:"/>
               <display value="Lubelskie Centrum Diagnostyczne"/>
            </asserter>
         </Condition>
      </resource>
   </entry>
   <entry>
      <fullUrl value="urn:uuid:9b4b9a2d-b659-4a47-a440-5f6b649aa661"/>
      <resource>
         <Condition>
            <id value="9b4b9a2d-b659-4a47-a440-5f6b649aa661"/>
            <meta>
               <profile value="http://hl7.org/fhir/uv/ips/StructureDefinition/Condition-uv-ips"/>
            </meta>
            <text>
               <status value="generated"/>
               <div xmlns="http://www.w3.org/1999/xhtml">
                  <table class="hl7__ips">
                     <tr>
                        <td>
                           <span class="grayedout">Acute viral pharyngitis</span>
                        </td>
                        <td>
                           <span class="nb">07-Aug-2021 - 19-Aug-2021</span>
                        </td>
                        <td>
                           <span class="grayedout">inactive</span>
                        </td>
                     </tr>
                  </table>
               </div>
            </text>
            <category>
               <coding>
                  <system value="http://terminology.hl7.org/CodeSystem/condition-category"/>
                  <code value="problem-list-item"/>
                  <display value="Problem List Item"/>
               </coding>
            </category>
            <code>
               <coding>
                  <system value="http://snomed.info/sct"/>
                  <code value="195662009"/>
                  <display value="Acute viral pharyngitis (disorder)"/>
               </coding>
               <text value="Acute viral pharyngitis"/>
            </code>
            <subject>
               <reference value="urn:uuid:"/>
               <display value="Andrzej Frydrychowicz"/>
            </subject>
            <onsetDateTime value="2021-08-07"/>
            <abatementDateTime value="2021-08-19"/>
            <asserter>
               <reference value="urn:uuid:"/>
               <display value="Lubelskie Centrum Diagnostyczne"/>
            </asserter>
         </Condition>
      </resource>
   </entry>
   <entry>
      <fullUrl value="urn:uuid:d9b7dffe-195c-4789-8483-889cdddd6395"/>
      <resource>
         <Condition>
            <id value="d9b7dffe-195c-4789-8483-889cdddd6395"/>
            <meta>
               <profile value="http://hl7.org/fhir/uv/ips/StructureDefinition/Condition-uv-ips"/>
            </meta>
            <text>
               <status value="generated"/>
               <div xmlns="http://www.w3.org/1999/xhtml">
                  <table class="hl7__ips">
                     <tr>
                        <td>
                           <span class="grayedout">Acute bronchitis</span>
                        </td>
                        <td>
                           <span class="nb">30-Mar-2019 - 18-Apr-2019</span>
                        </td>
                        <td>
                           <span class="grayedout">inactive</span>
                        </td>
                     </tr>
                  </table>
               </div>
            </text>
            <category>
               <coding>
                  <system value="http://terminology.hl7.org/CodeSystem/condition-category"/>
                  <code value="problem-list-item"/>
                  <display value="Problem List Item"/>
               </coding>
            </category>
            <code>
               <coding>
                  <system value="http://snomed.info/sct"/>
                  <code value="10509002"/>
                  <display value="Acute bronchitis (disorder)"/>
               </coding>
               <text value="Acute bronchitis"/>
            </code>
            <subject>
               <reference value="urn:uuid:"/>
               <display value="Andrzej Frydrychowicz"/>
            </subject>
            <onsetDateTime value="2019-03-30"/>
            <abatementDateTime value="2019-04-18"/>
            <asserter>
               <reference value="urn:uuid:"/>
               <display value="Lubelskie Centrum Diagnostyczne"/>
            </asserter>
         </Condition>
      </resource>
   </entry>
   <entry>
      <fullUrl value="urn:uuid:fd15f8ed-1ecb-4d62-b270-ce5d3d5bb2e5"/>
      <resource>
         <Medication>
            <id value="fd15f8ed-1ecb-4d62-b270-ce5d3d5bb2e5"/>
            <meta>
               <profile value="http://hl7.eu/fhir/eps/StructureDefinition/Medication-eu-eps"/>
            </meta>
            <text>
               <status value="generated"/>
               <div xmlns="http://www.w3.org/1999/xhtml">Acetaminophen 325 mg oral tablet</div>
            </text>
            <code>
               <coding>
                  <system value="http://snomed.info/sct"/>
                  <code value="370150001"/>
                  <display value="Acetaminophen 325 mg oral tablet"/>
               </coding>
               <text value="Acetaminophen 325 mg oral tablet"/>
            </code>
         </Medication>
      </resource>
   </entry>
   <entry>
      <fullUrl value="urn:uuid:01a45b72-41e6-4c8f-a834-4f539b58da0b"/>
      <resource>
         <MedicationStatement>
            <id value="01a45b72-41e6-4c8f-a834-4f539b58da0b"/>
            <meta>
               <profile value="http://hl7.eu/fhir/eps/StructureDefinition/MedicationStatement-eu-eps"/>
            </meta>
            <text>
               <status value="generated"/>
               <div xmlns="http://www.w3.org/1999/xhtml">
                  <table class="hl7__ips first25">
                     <tr>
                        <th>Medication</th>
                        <th>Since</th>
                        <th>Form</th>
                        <th>Dosage</th>
                        <th>Reason</th>
                     </tr>
                     <tr>
                        <td>Acetaminophen 325 mg oral tablet</td>
                        <td>
                           <span class="nb">2024-08-17</span>
                        </td>
                        <td>-</td>
                        <td>1 tablet (325 mg) by mouth every 4 to 6 hours as needed</td>
                        <td>-</td>
                     </tr>
                  </table>
               </div>
            </text>
            <status value="active"/>
            <medicationReference>
               <reference value="urn:uuid:fd15f8ed-1ecb-4d62-b270-ce5d3d5bb2e5"/>
               <display value="Acetaminophen 325 mg oral tablet"/>
            </medicationReference>
            <subject>
               <reference value="urn:uuid:bb0da509-ecca-4fc7-8780-563bab3717f0"/>
               <display value="Andrzej Frydrychowicz"/>
            </subject>
            <effectivePeriod>
               <start value="2024-08-17"/>
            </effectivePeriod>
            <dosage>
               <text value="1 tablet (325 mg) by mouth every 4 to 6 hours as needed"/>
               <timing>
                  <repeat>
                     <frequency value="6"/>
                     <period value="1"/>
                     <periodUnit value="d"/>
                  </repeat>
               </timing>
               <asNeededBoolean value="true"/>
               <doseAndRate>
                  <doseQuantity>
                     <value value="1"/>
                     <unit value="{tbl}"/>
                     <system value="$ucum"/>
                     <code value="{tbl}"/>
                  </doseQuantity>
               </doseAndRate>
            </dosage>
         </MedicationStatement>
      </resource>
   </entry>
   <entry>
      <fullUrl value="urn:uuid:33d2891d-e5fa-46ad-861b-4d959b6272b9"/>
      <resource>
         <Medication>
            <id value="33d2891d-e5fa-46ad-861b-4d959b6272b9"/>
            <meta>
               <profile value="http://hl7.eu/fhir/eps/StructureDefinition/Medication-eu-eps"/>
            </meta>
            <text>
               <status value="generated"/>
               <div xmlns="http://www.w3.org/1999/xhtml">Clopidogrel (as clopidogrel bisulfate) 75 mg oral tablet</div>
            </text>
            <code>
               <coding>
                  <system value="http://snomed.info/sct"/>
                  <code value="783586007"/>
                  <display value="Clopidogrel (as clopidogrel bisulfate) 75 mg oral tablet"/>
               </coding>
               <text value="Clopidogrel (as clopidogrel bisulfate) 75 mg oral tablet"/>
            </code>
         </Medication>
      </resource>
   </entry>
   <entry>
      <fullUrl value="urn:uuid:d9cea2d8-70f9-4ecd-b743-1e34a2a771a1"/>
      <resource>
         <MedicationStatement>
            <id value="d9cea2d8-70f9-4ecd-b743-1e34a2a771a1"/>
            <meta>
               <profile value="http://hl7.eu/fhir/eps/StructureDefinition/MedicationStatement-eu-eps"/>
            </meta>
            <text>
               <status value="generated"/>
               <div xmlns="http://www.w3.org/1999/xhtml">
                  <table class="hl7__ips first25">
                     <tr>
                        <th>Medication</th>
                        <th>Since</th>
                        <th>Form</th>
                        <th>Dosage</th>
                        <th>Reason</th>
                     </tr>
                     <tr>
                        <td>Clopidogrel (as clopidogrel bisulfate) 75 mg oral tablet</td>
                        <td>
                           <span class="nb">2022-08-13</span>
                        </td>
                        <td>-</td>
                        <td>1 tablet (75 mg) once daily</td>
                        <td>-</td>
                     </tr>
                  </table>
               </div>
            </text>
            <status value="active"/>
            <medicationReference>
               <reference value="urn:uuid:33d2891d-e5fa-46ad-861b-4d959b6272b9"/>
               <display value="Clopidogrel (as clopidogrel bisulfate) 75 mg oral tablet"/>
            </medicationReference>
            <subject>
               <reference value="urn:uuid:bb0da509-ecca-4fc7-8780-563bab3717f0"/>
               <display value="Andrzej Frydrychowicz"/>
            </subject>
            <effectivePeriod>
               <start value="2022-08-13"/>
            </effectivePeriod>
            <dosage>
               <text value="1 tablet (75 mg) once daily"/>
               <timing>
                  <repeat>
                     <frequency value="1"/>
                     <period value="1"/>
                     <periodUnit value="d"/>
                  </repeat>
               </timing>
               <asNeededBoolean value="false"/>
               <doseAndRate>
                  <doseQuantity>
                     <value value="1"/>
                     <unit value="{tbl}"/>
                     <system value="$ucum"/>
                     <code value="{tbl}"/>
                  </doseQuantity>
               </doseAndRate>
            </dosage>
         </MedicationStatement>
      </resource>
   </entry>
   <entry>
      <fullUrl value="urn:uuid:96a26ea2-ccc2-4dd7-b4a2-14e5a05502fd"/>
      <resource>
         <Medication>
            <id value="96a26ea2-ccc2-4dd7-b4a2-14e5a05502fd"/>
            <meta>
               <profile value="http://hl7.eu/fhir/eps/StructureDefinition/Medication-eu-eps"/>
            </meta>
            <text>
               <status value="generated"/>
               <div xmlns="http://www.w3.org/1999/xhtml">Simvastatin 20 mg oral tablet</div>
            </text>
            <code>
               <coding>
                  <system value="http://snomed.info/sct"/>
                  <code value="319997009"/>
                  <display value="Simvastatin 20 mg oral tablet"/>
               </coding>
               <text value="Simvastatin 20 mg oral tablet"/>
            </code>
         </Medication>
      </resource>
   </entry>
   <entry>
      <fullUrl value="urn:uuid:994ba7eb-1178-4cd9-8069-93b44fdd4d09"/>
      <resource>
         <MedicationStatement>
            <id value="994ba7eb-1178-4cd9-8069-93b44fdd4d09"/>
            <meta>
               <profile value="http://hl7.eu/fhir/eps/StructureDefinition/MedicationStatement-eu-eps"/>
            </meta>
            <text>
               <status value="generated"/>
               <div xmlns="http://www.w3.org/1999/xhtml">
                  <table class="hl7__ips first25">
                     <tr>
                        <th>Medication</th>
                        <th>Since</th>
                        <th>Form</th>
                        <th>Dosage</th>
                        <th>Reason</th>
                     </tr>
                     <tr>
                        <td>Simvastatin 20 mg oral tablet</td>
                        <td>
                           <span class="nb">2022-08-13</span>
                        </td>
                        <td>-</td>
                        <td>1 tablet (20 mg) by mouth once daily</td>
                        <td>-</td>
                     </tr>
                  </table>
               </div>
            </text>
            <status value="active"/>
            <medicationReference>
               <reference value="urn:uuid:96a26ea2-ccc2-4dd7-b4a2-14e5a05502fd"/>
               <display value="Simvastatin 20 mg oral tablet"/>
            </medicationReference>
            <subject>
               <reference value="urn:uuid:bb0da509-ecca-4fc7-8780-563bab3717f0"/>
               <display value="Andrzej Frydrychowicz"/>
            </subject>
            <effectivePeriod>
               <start value="2022-08-13"/>
            </effectivePeriod>
            <dosage>
               <text value="1 tablet (20 mg) by mouth once daily"/>
               <timing>
                  <repeat>
                     <frequency value="1"/>
                     <period value="1"/>
                     <periodUnit value="d"/>
                  </repeat>
               </timing>
               <asNeededBoolean value="false"/>
               <doseAndRate>
                  <doseQuantity>
                     <value value="1"/>
                     <unit value="{tbl}"/>
                     <code value="{tbl}"/>
                  </doseQuantity>
               </doseAndRate>
            </dosage>
         </MedicationStatement>
      </resource>
   </entry>
   <entry>
      <fullUrl value="urn:uuid:545c4d85-92a7-4767-95b6-f8d21c573556"/>
      <resource>
         <Medication>
            <id value="545c4d85-92a7-4767-95b6-f8d21c573556"/>
            <meta>
               <profile value="http://hl7.eu/fhir/eps/StructureDefinition/Medication-eu-eps"/>
            </meta>
            <text>
               <status value="generated"/>
               <div xmlns="http://www.w3.org/1999/xhtml">Nitroglycerin 400 microgram/actuation sublingual spray</div>
            </text>
            <code>
               <coding>
                  <system value="http://snomed.info/sct"/>
                  <code value="425176000"/>
                  <display value="Nitroglycerin 400 microgram/actuation sublingual spray"/>
               </coding>
               <text value="Nitroglycerin 400 microgram/actuation sublingual spray"/>
            </code>
         </Medication>
      </resource>
   </entry>
   <entry>
      <fullUrl value="urn:uuid:4737fc1d-8528-4573-92e1-eb00dfeffa74"/>
      <resource>
         <MedicationStatement>
            <id value="4737fc1d-8528-4573-92e1-eb00dfeffa74"/>
            <meta>
               <profile value="http://hl7.eu/fhir/eps/StructureDefinition/MedicationStatement-eu-eps"/>
            </meta>
            <text>
               <status value="generated"/>
               <div xmlns="http://www.w3.org/1999/xhtml">
                  <table class="hl7__ips first25">
                     <tr>
                        <th>Medication</th>
                        <th>Since</th>
                        <th>Form</th>
                        <th>Dosage</th>
                        <th>Reason</th>
                     </tr>
                     <tr>
                        <td>Nitroglycerin 400 microgram/actuation sublingual spray</td>
                        <td>
                           <span class="nb">2022-08-13</span>
                        </td>
                        <td>-</td>
                        <td>400 micrograms (1 spray) under the tongue as needed for chest pain, repeat every 5 minutes if needed, up to 3 sprays in 15 minutes</td>
                        <td>-</td>
                     </tr>
                  </table>
               </div>
            </text>
            <status value="active"/>
            <medicationReference>
               <reference value="urn:uuid:545c4d85-92a7-4767-95b6-f8d21c573556"/>
               <display value="Nitroglycerin 400 microgram/actuation sublingual spray"/>
            </medicationReference>
            <subject>
               <reference value="urn:uuid:bb0da509-ecca-4fc7-8780-563bab3717f0"/>
               <display value="Andrzej Frydrychowicz"/>
            </subject>
            <effectivePeriod>
               <start value="2022-08-13"/>
            </effectivePeriod>
            <dosage>
               <text value="400 micrograms (1 spray) under the tongue as needed for chest pain, repeat every 5 minutes if needed, up to 3 sprays in 15 minutes"/>
               <timing>
                  <repeat>
                     <frequency value="1"/>
                     <period value="5"/>
                     <periodUnit value="min"/>
                  </repeat>
               </timing>
               <asNeededBoolean value="true"/>
               <doseAndRate>
                  <doseQuantity>
                     <value value="400"/>
                     <unit value="mcg"/>
                     <system value="$ucum"/>
                     <code value="mcg"/>
                  </doseQuantity>
               </doseAndRate>
            </dosage>
         </MedicationStatement>
      </resource>
   </entry>
   <entry>
      <fullUrl value="urn:uuid:f8a34b9c-d9e3-406d-a523-27e7b7ccc774"/>
      <resource>
         <Medication>
            <id value="f8a34b9c-d9e3-406d-a523-27e7b7ccc774"/>
            <meta>
               <profile value="http://hl7.eu/fhir/eps/StructureDefinition/Medication-eu-eps"/>
            </meta>
            <text>
               <status value="generated"/>
               <div xmlns="http://www.w3.org/1999/xhtml">Metoprolol tartrate (as metoprolol succinate) 100 mg prolonged-release oral tablet</div>
            </text>
            <code>
               <coding>
                  <system value="http://snomed.info/sct"/>
                  <code value="879980009"/>
                  <display value="Metoprolol tartrate (as metoprolol succinate) 100 mg prolonged-release oral tablet"/>
               </coding>
               <text value="Metoprolol tartrate (as metoprolol succinate) 100 mg prolonged-release oral tablet"/>
            </code>
         </Medication>
      </resource>
   </entry>
   <entry>
      <fullUrl value="urn:uuid:82c4966e-3518-4fc4-8045-bdfca8d71761"/>
      <resource>
         <MedicationStatement>
            <id value="82c4966e-3518-4fc4-8045-bdfca8d71761"/>
            <meta>
               <profile value="http://hl7.eu/fhir/eps/StructureDefinition/MedicationStatement-eu-eps"/>
            </meta>
            <text>
               <status value="generated"/>
               <div xmlns="http://www.w3.org/1999/xhtml">
                  <table class="hl7__ips first25">
                     <tr>
                        <th>Medication</th>
                        <th>Since</th>
                        <th>Form</th>
                        <th>Dosage</th>
                        <th>Reason</th>
                     </tr>
                     <tr>
                        <td>Metoprolol tartrate (as metoprolol succinate) 100 mg prolonged-release oral tablet</td>
                        <td>
                           <span class="nb">2022-08-13</span>
                        </td>
                        <td>-</td>
                        <td>1 tablet (100 mg) once daily</td>
                        <td>-</td>
                     </tr>
                  </table>
               </div>
            </text>
            <status value="active"/>
            <medicationReference>
               <reference value="urn:uuid:f8a34b9c-d9e3-406d-a523-27e7b7ccc774"/>
               <display value="Metoprolol tartrate (as metoprolol succinate) 100 mg prolonged-release oral tablet"/>
            </medicationReference>
            <subject>
               <reference value="urn:uuid:bb0da509-ecca-4fc7-8780-563bab3717f0"/>
               <display value="Andrzej Frydrychowicz"/>
            </subject>
            <effectivePeriod>
               <start value="2022-08-13"/>
            </effectivePeriod>
            <dosage>
               <text value="1 tablet (100 mg) once daily"/>
               <timing>
                  <repeat>
                     <frequency value="1"/>
                     <period value="1"/>
                     <periodUnit value="d"/>
                  </repeat>
               </timing>
               <asNeededBoolean value="false"/>
               <doseAndRate>
                  <doseQuantity>
                     <value value="1"/>
                     <unit value="{tbl}"/>
                     <system value="$ucum"/>
                     <code value="{tbl}"/>
                  </doseQuantity>
               </doseAndRate>
            </dosage>
         </MedicationStatement>
      </resource>
   </entry>
   <entry>
      <fullUrl value="urn:uuid:2eaa3044-4a19-400c-a0c6-40861ad7bcae"/>
      <resource>
         <Medication>
            <id value="2eaa3044-4a19-400c-a0c6-40861ad7bcae"/>
            <meta>
               <profile value="http://hl7.eu/fhir/eps/StructureDefinition/Medication-eu-eps"/>
            </meta>
            <text>
               <status value="generated"/>
               <div xmlns="http://www.w3.org/1999/xhtml">Naproxen sodium 220 mg oral capsule</div>
            </text>
            <code>
               <coding>
                  <system value="http://snomed.info/sct"/>
                  <code value="420276008"/>
                  <display value="Naproxen sodium 220 mg oral capsule"/>
               </coding>
               <text value="Naproxen sodium 220 mg oral capsule"/>
            </code>
         </Medication>
      </resource>
   </entry>
   <entry>
      <fullUrl value="urn:uuid:22524493-28c2-4d06-9f93-a28104ff9802"/>
      <resource>
         <MedicationStatement>
            <id value="22524493-28c2-4d06-9f93-a28104ff9802"/>
            <meta>
               <profile value="http://hl7.eu/fhir/eps/StructureDefinition/MedicationStatement-eu-eps"/>
            </meta>
            <text>
               <status value="generated"/>
               <div xmlns="http://www.w3.org/1999/xhtml">
                  <table class="hl7__ips first25">
                     <tr>
                        <th>Medication</th>
                        <th>Since</th>
                        <th>Form</th>
                        <th>Dosage</th>
                        <th>Reason</th>
                     </tr>
                     <tr>
                        <td>Naproxen sodium 220 mg oral capsule</td>
                        <td>
                           <span class="nb">2021-10-24</span>
                        </td>
                        <td>-</td>
                        <td>1 tablet (220 mg) by mouth every 12 hours as needed</td>
                        <td>Osteoarthritis of knee</td>
                     </tr>
                  </table>
               </div>
            </text>
            <status value="active"/>
            <medicationReference>
               <reference value="urn:uuid:2eaa3044-4a19-400c-a0c6-40861ad7bcae"/>
               <display value="Naproxen sodium 220 mg oral capsule"/>
            </medicationReference>
            <subject>
               <reference value="urn:uuid:bb0da509-ecca-4fc7-8780-563bab3717f0"/>
               <display value="Andrzej Frydrychowicz"/>
            </subject>
            <effectivePeriod>
               <start value="2021-10-24"/>
            </effectivePeriod>
            <reasonCode>
               <coding>
                  <system value="http://snomed.info/sct"/>
                  <code value="239873007"/>
                  <display value="Osteoarthritis of knee"/>
               </coding>
            </reasonCode>
            <dosage>
               <text value="1 tablet (220 mg) by mouth every 12 hours as needed"/>
               <timing>
                  <repeat>
                     <frequency value="2"/>
                     <period value="1"/>
                     <periodUnit value="d"/>
                  </repeat>
               </timing>
               <asNeededBoolean value="true"/>
               <doseAndRate>
                  <doseQuantity>
                     <value value="1"/>
                     <unit value="{tbl}"/>
                     <system value="$ucum"/>
                     <code value="{tbl}"/>
                  </doseQuantity>
               </doseAndRate>
            </dosage>
         </MedicationStatement>
      </resource>
   </entry>
   <entry>
      <fullUrl value="urn:uuid:3d13d0d9-62e8-4054-8fd5-4c4ce4f5b7cc"/>
      <resource>
         <Immunization>
            <id value="3d13d0d9-62e8-4054-8fd5-4c4ce4f5b7cc"/>
            <meta>
               <profile value="http://hl7.org/fhir/uv/ips/StructureDefinition/Immunization-uv-ips"/>
            </meta>
            <text>
               <status value="generated"/>
               <div xmlns="http://www.w3.org/1999/xhtml">
                  <table class="hl7__ips">
                     <tr>
                        <td>Influenza virus antigen only vaccine product</td>
                        <td>
                           <span class="nb">17-Aug-2024</span>
                        </td>
                     </tr>
                  </table>
               </div>
            </text>
            <status value="completed"/>
            <vaccineCode>
               <coding>
                  <system value="http://snomed.info/sct"/>
                  <code value="1181000221105"/>
                  <display value="Vaccine product containing Influenza virus antigen"/>
               </coding>
               <coding>
                  <system value="http://www.whocc.no/atc"/>
                  <code value="J07BB02"/>
                  <display value="Influenza, inactivated, split virus"/>
               </coding>
               <text value="Influenza virus antigen only vaccine product"/>
            </vaccineCode>
            <patient>
               <reference value="urn:uuid:bb0da509-ecca-4fc7-8780-563bab3717f0"/>
               <display value="Andrzej Frydrychowicz"/>
            </patient>
            <occurrenceDateTime value="2024-08-17"/>
            <lotNumber value="HY-fHuMv"/>
            <expirationDate value="2024-11-21"/>
            <site>
               <coding>
                  <system value="http://snomed.info/sct"/>
                  <code value="244979005"/>
                  <display value="Entire muscle of upper arm"/>
               </coding>
               <text value="Entire muscle of upper arm"/>
            </site>
            <route>
               <coding>
                  <system value="http://snomed.info/sct"/>
                  <code value="78421000"/>
                  <display value="Intramuscular route"/>
               </coding>
               <text value="Intramuscular route"/>
            </route>
         </Immunization>
      </resource>
   </entry>
   <entry>
      <fullUrl value="urn:uuid:f5c7f1ee-ffb6-45cd-a316-3d56cd8c00c4"/>
      <resource>
         <Immunization>
            <id value="f5c7f1ee-ffb6-45cd-a316-3d56cd8c00c4"/>
            <meta>
               <profile value="http://hl7.org/fhir/uv/ips/StructureDefinition/Immunization-uv-ips"/>
            </meta>
            <text>
               <status value="generated"/>
               <div xmlns="http://www.w3.org/1999/xhtml">
                  <table class="hl7__ips">
                     <tr>
                        <td>Clostridium tetani toxoid antigen adsorbed only vaccine product</td>
                        <td>
                           <span class="nb">06-Aug-2022</span>
                        </td>
                     </tr>
                  </table>
               </div>
            </text>
            <status value="completed"/>
            <vaccineCode>
               <coding>
                  <system value="http://snomed.info/sct"/>
                  <code value="777725002"/>
                  <display value="Vaccine product containing only Clostridium tetani toxoid antigen adsorbed"/>
               </coding>
               <coding>
                  <system value="http://www.whocc.no/atc"/>
                  <code value="J07AM51"/>
                  <display value="Diphtheria-tetanus vaccines, adult type"/>
               </coding>
               <text value="Clostridium tetani toxoid antigen adsorbed only vaccine product"/>
            </vaccineCode>
            <patient>
               <reference value="urn:uuid:bb0da509-ecca-4fc7-8780-563bab3717f0"/>
               <display value="Andrzej Frydrychowicz"/>
            </patient>
            <occurrenceDateTime value="2022-08-06"/>
            <lotNumber value="OD-T63cjmHp"/>
            <expirationDate value="2023-03-11"/>
            <site>
               <coding>
                  <system value="http://snomed.info/sct"/>
                  <code value="244979005"/>
                  <display value="Entire muscle of upper arm"/>
               </coding>
               <text value="Entire muscle of upper arm"/>
            </site>
            <route>
               <coding>
                  <system value="http://snomed.info/sct"/>
                  <code value="78421000"/>
                  <display value="Intramuscular route"/>
               </coding>
               <text value="Intramuscular route"/>
            </route>
         </Immunization>
      </resource>
   </entry>
   <entry>
      <fullUrl value="urn:uuid:4f8df2df-655f-46ce-ac18-81acf04f650b"/>
      <resource>
         <Immunization>
            <id value="4f8df2df-655f-46ce-ac18-81acf04f650b"/>
            <meta>
               <profile value="http://hl7.org/fhir/uv/ips/StructureDefinition/Immunization-uv-ips"/>
            </meta>
            <text>
               <status value="generated"/>
               <div xmlns="http://www.w3.org/1999/xhtml">
                  <table class="hl7__ips">
                     <tr>
                        <td>Live attenuated Human alphaherpesvirus 3 only vaccine product</td>
                        <td>
                           <span class="nb">06-Aug-2022</span>
                        </td>
                     </tr>
                  </table>
               </div>
            </text>
            <status value="completed"/>
            <vaccineCode>
               <coding>
                  <system value="http://snomed.info/sct"/>
                  <code value="2221000221107"/>
                  <display value="Live attenuated Varicella-zoster vaccine"/>
               </coding>
               <coding>
                  <system value="http://www.whocc.no/atc"/>
                  <code value="J07BK02"/>
                  <display value="Varicella-zoster vaccines"/>
               </coding>
               <text value="Live attenuated Human alphaherpesvirus 3 only vaccine product"/>
            </vaccineCode>
            <patient>
               <reference value="urn:uuid:bb0da509-ecca-4fc7-8780-563bab3717f0"/>
               <display value="Andrzej Frydrychowicz"/>
            </patient>
            <occurrenceDateTime value="2022-08-06"/>
            <lotNumber value="LA-cYhzr"/>
            <expirationDate value="2022-11-09"/>
            <site>
               <coding>
                  <system value="http://snomed.info/sct"/>
                  <code value="368208006"/>
                  <display value="Left upper arm structure"/>
               </coding>
               <text value="Left upper arm structure"/>
            </site>
            <route>
               <coding>
                  <system value="http://snomed.info/sct"/>
                  <code value="34206005"/>
                  <display value="Subcutaneous route"/>
               </coding>
               <text value="Subcutaneous route"/>
            </route>
         </Immunization>
      </resource>
   </entry>
   <entry>
      <fullUrl value="urn:uuid:c101cff2-2ff4-4b03-8fc6-05024f3db1de"/>
      <resource>
         <Immunization>
            <id value="c101cff2-2ff4-4b03-8fc6-05024f3db1de"/>
            <meta>
               <profile value="http://hl7.org/fhir/uv/ips/StructureDefinition/Immunization-uv-ips"/>
            </meta>
            <text>
               <status value="generated"/>
               <div xmlns="http://www.w3.org/1999/xhtml">
                  <table class="hl7__ips">
                     <tr>
                        <td>SARS-CoV-2 mRNA vaccine</td>
                        <td>
                           <span class="nb">10-Apr-2021</span>
                        </td>
                     </tr>
                  </table>
               </div>
            </text>
            <status value="completed"/>
            <vaccineCode>
               <coding>
                  <system value="http://snomed.info/sct"/>
                  <code value="1119349007"/>
                  <display value="Vaccine product containing SARS-CoV-2 mRNA"/>
               </coding>
               <coding>
                  <system value="http://www.whocc.no/atc"/>
                  <code value="J07BX03"/>
                  <display value="COVID-19 mRNA vaccines"/>
               </coding>
               <text value="SARS-CoV-2 mRNA vaccine"/>
            </vaccineCode>
            <patient>
               <reference value="urn:uuid:bb0da509-ecca-4fc7-8780-563bab3717f0"/>
               <display value="Andrzej Frydrychowicz"/>
            </patient>
            <occurrenceDateTime value="2021-04-10"/>
            <lotNumber value="ET-dJ07ByJ"/>
            <expirationDate value="2021-06-23"/>
            <site>
               <coding>
                  <system value="http://snomed.info/sct"/>
                  <code value="244979005"/>
                  <display value="Entire muscle of upper arm"/>
               </coding>
               <text value="Entire muscle of upper arm"/>
            </site>
            <route>
               <coding>
                  <system value="http://snomed.info/sct"/>
                  <code value="78421000"/>
                  <display value="Intramuscular route"/>
               </coding>
               <text value="Intramuscular route"/>
            </route>
         </Immunization>
      </resource>
   </entry>
   <entry>
      <fullUrl value="urn:uuid:68b68c7f-8dc8-472c-bdb9-fe5e0541d04d"/>
      <resource>
         <Procedure>
            <id value="68b68c7f-8dc8-472c-bdb9-fe5e0541d04d"/>
            <meta>
               <profile value="http://hl7.org/fhir/uv/ips/StructureDefinition/Procedure-uv-ips"/>
            </meta>
            <text>
               <status value="generated"/>
               <div xmlns="http://www.w3.org/1999/xhtml">
                  <table class="hl7__ips">
                     <tr>
                        <td>Medication reconciliation</td>
                        <td>
                           <span class="nb">16-Mar-2019</span>
                        </td>
                        <td>-</td>
                     </tr>
                  </table>
               </div>
            </text>
            <status value="completed"/>
            <code>
               <coding>
                  <system value="http://snomed.info/sct"/>
                  <code value="430193006"/>
                  <display value="Medication Reconciliation (procedure)"/>
               </coding>
               <text value="Medication reconciliation"/>
            </code>
            <subject>
               <reference value="urn:uuid:"/>
               <display value="Andrzej Frydrychowicz"/>
            </subject>
            <performedDateTime value="2019-03-16"/>
         </Procedure>
      </resource>
   </entry>
   <entry>
      <fullUrl value="urn:uuid:a46e035e-3f42-4080-a5c8-d6113541578e"/>
      <resource>
         <Procedure>
            <id value="a46e035e-3f42-4080-a5c8-d6113541578e"/>
            <meta>
               <profile value="http://hl7.org/fhir/uv/ips/StructureDefinition/Procedure-uv-ips"/>
            </meta>
            <text>
               <status value="generated"/>
               <div xmlns="http://www.w3.org/1999/xhtml">
                  <table class="hl7__ips">
                     <tr>
                        <td>Assessment of health and social care needs</td>
                        <td>
                           <span class="nb">16-Mar-2019</span>
                        </td>
                        <td>-</td>
                     </tr>
                  </table>
               </div>
            </text>
            <status value="completed"/>
            <code>
               <coding>
                  <system value="http://snomed.info/sct"/>
                  <code value="710824005"/>
                  <display value="Assessment of health and social care needs (procedure)"/>
               </coding>
               <text value="Assessment of health and social care needs"/>
            </code>
            <subject>
               <reference value="urn:uuid:"/>
               <display value="Andrzej Frydrychowicz"/>
            </subject>
            <performedDateTime value="2019-03-16"/>
         </Procedure>
      </resource>
   </entry>
   <entry>
      <fullUrl value="urn:uuid:552e2817-50c0-40f2-b1f7-acdc05fbc09f"/>
      <resource>
         <AllergyIntolerance>
            <id value="552e2817-50c0-40f2-b1f7-acdc05fbc09f"/>
            <meta>
               <profile value="http://hl7.eu/fhir/eps/StructureDefinition/allergyIntolerance-eu-eps"/>
            </meta>
            <text>
               <status value="generated"/>
               <div xmlns="http://www.w3.org/1999/xhtml">
                  <table class="hl7__ips">
                     <tr>
                        <th>Allergy/Intolerance</th>
                        <th>Onset Date</th>
                        <th>Status</th>
                        <th>Type</th>
                        <th>Reaction</th>
                     </tr>
                     <tr>
                        <td/>
                        <td>?</td>
                        <td>active</td>
                        <td>?</td>
                        <td/>
                     </tr>
                  </table>
               </div>
            </text>
            <clinicalStatus>
               <coding>
                  <system value="http://terminology.hl7.org/CodeSystem/allergyintolerance-clinical"/>
                  <code value="active"/>
               </coding>
            </clinicalStatus>
            <verificationStatus>
               <coding>
                  <system value="http://terminology.hl7.org/CodeSystem/allergyintolerance-verification"/>
                  <code value="confirmed"/>
               </coding>
            </verificationStatus>
            <code>
               <text/>
            </code>
            <patient>
               <reference value="urn:uuid:bb0da509-ecca-4fc7-8780-563bab3717f0"/>
               <display value="Andrzej Frydrychowicz"/>
            </patient>
            <onsetDateTime>
               <extension url="http://hl7.org/fhir/StructureDefinition/data-absent-reason">
                  <valueCode value="unknown"/>
               </extension>
            </onsetDateTime>
         </AllergyIntolerance>
      </resource>
   </entry>
   <entry>
      <fullUrl value="urn:uuid:c7d5e8d9-4481-4ab8-b0f7-206c07c9902b"/>
      <resource>
         <CarePlan>
            <id value="c7d5e8d9-4481-4ab8-b0f7-206c07c9902b"/>
            <text>
               <status value="generated"/>
               <div xmlns="http://www.w3.org/1999/xhtml">
                  <table class="hl7__ips first25">
                     <tr>
                        <th>Active Planned Care / Goals</th>
                        <th>Start Date</th>
                        <th>Reason</th>
                     </tr>
                     <tr>
                        <td>Musculoskeletal care</td>
                        <td>
                           <span class="nb">24-Oct-2021</span>
                        </td>
                        <td>Osteoarthritis of knee</td>
                     </tr>
                     <tr>
                        <td>
                           <ul>
                              <li>Reduce knee pain severity to a tolerable level to improve function and quality of life.</li>
                              <li>Increase ability to walk and perform daily activities without significant limitation from knee osteoarthritis.</li>
                              <li>Decrease swelling and inflammation in the affected knee to improve comfort and mobility.</li>
                           </ul>
                        </td>
                        <td/>
                        <td/>
                     </tr>
                  </table>
               </div>
            </text>
            <status value="active"/>
            <intent value="plan"/>
            <category>
               <coding>
                  <system value="http://terminology.hl7.org/CodeSystem/care-plan-category"/>
                  <code value="assess-plan"/>
                  <display value="Assessment and Plan"/>
               </coding>
            </category>
            <subject>
               <reference value="urn:uuid:bb0da509-ecca-4fc7-8780-563bab3717f0"/>
               <display value="Andrzej Frydrychowicz"/>
            </subject>
            <period>
               <start value="2021-10-24"/>
            </period>
            <goal>
               <reference value="urn:uuid:cef96f81-11bd-48fc-bfcc-c22a10fe5b62"/>
            </goal>
            <goal>
               <reference value="urn:uuid:a65cae0e-cc34-429f-bee4-26af5460ad0e"/>
            </goal>
            <goal>
               <reference value="urn:uuid:ccbc7f8a-ed1c-4849-aa54-45279fa709e7"/>
            </goal>
            <activity>
               <detail>
                  <kind value="Appointment"/>
                  <code>
                     <coding>
                        <system value="http://snomed.info/sct"/>
                        <code value="408869004"/>
                        <display value="Musculoskeletal care (regime/therapy)"/>
                     </coding>
                  </code>
                  <reasonCode>
                     <coding>
                        <system value="http://snomed.info/sct"/>
                        <code value="239873007"/>
                        <display value="Osteoarthritis of knee"/>
                     </coding>
                  </reasonCode>
                  <status value="unknown"/>
                  <description value="Musculoskeletal care"/>
               </detail>
            </activity>
         </CarePlan>
      </resource>
   </entry>
   <entry>
      <fullUrl value="urn:uuid:4afe9197-c596-4376-a5b7-2b0595f10080"/>
      <resource>
         <CarePlan>
            <id value="4afe9197-c596-4376-a5b7-2b0595f10080"/>
            <text>
               <status value="generated"/>
               <div xmlns="http://www.w3.org/1999/xhtml">
                  <table class="hl7__ips first25">
                     <tr>
                        <th>Active Planned Care / Goals</th>
                        <th>Start Date</th>
                        <th>Reason</th>
                     </tr>
                     <tr>
                        <td>Diabetes self management plan</td>
                        <td>
                           <span class="nb">20-Aug-2005</span>
                        </td>
                        <td>Prediabetes</td>
                     </tr>
                     <tr>
                        <td>
                           <ul>
                              <li>Achieve and maintain HbA1c below 6.5% through lifestyle modification and self-management.</li>
                              <li>Reduce body weight to support improved glucose metabolism.</li>
                              <li>Engage in at least 150 minutes of moderate-intensity physical activity per week.</li>
                              <li>Maintain blood pressure below 130/80 mmHg to reduce cardiovascular risk.</li>
                           </ul>
                        </td>
                        <td/>
                        <td/>
                     </tr>
                  </table>
               </div>
            </text>
            <status value="active"/>
            <intent value="plan"/>
            <category>
               <coding>
                  <system value="http://terminology.hl7.org/CodeSystem/care-plan-category"/>
                  <code value="assess-plan"/>
                  <display value="Assessment and Plan"/>
               </coding>
            </category>
            <subject>
               <reference value="urn:uuid:bb0da509-ecca-4fc7-8780-563bab3717f0"/>
               <display value="Andrzej Frydrychowicz"/>
            </subject>
            <period>
               <start value="2005-08-20"/>
            </period>
            <goal>
               <reference value="urn:uuid:ccb8267d-8c29-41ef-a464-1ba847e02428"/>
            </goal>
            <goal>
               <reference value="urn:uuid:f9a07884-b2e3-4db3-ac3a-cc9cd62b0e33"/>
            </goal>
            <goal>
               <reference value="urn:uuid:b80b56ee-44dc-4120-bfa0-8d8fdfe12aeb"/>
            </goal>
            <goal>
               <reference value="urn:uuid:9ecf3e7c-3666-4d56-9357-5a86c77468ee"/>
            </goal>
            <activity>
               <detail>
                  <kind value="Appointment"/>
                  <code>
                     <coding>
                        <system value="http://snomed.info/sct"/>
                        <code value="698360004"/>
                        <display value="Diabetes self management plan (qualifier value)"/>
                     </coding>
                  </code>
                  <reasonCode>
                     <coding>
                        <system value="http://snomed.info/sct"/>
                        <code value="15777000"/>
                        <display value="Prediabetes"/>
                     </coding>
                  </reasonCode>
                  <status value="unknown"/>
                  <description value="Diabetes self management plan"/>
               </detail>
            </activity>
         </CarePlan>
      </resource>
   </entry>
   <entry>
      <fullUrl value="urn:uuid:5c9c0554-f517-4b4c-9947-0fb2e82cff6c"/>
      <resource>
         <Observation>
            <id value="5c9c0554-f517-4b4c-9947-0fb2e82cff6c"/>
            <meta>
               <profile value="http://hl7.org/fhir/StructureDefinition/vitalsigns"/>
            </meta>
            <text>
               <status value="generated"/>
               <div xmlns="http://www.w3.org/1999/xhtml">
                  <table class="hl7__ips">
                     <tr>
                        <th>Vital Sign</th>
                        <th>Date</th>
                        <th>Measurement</th>
                     </tr>
                     <tr>
                        <td>Body Height</td>
                        <td>17-Aug-2024</td>
                        <td>190.2 cm</td>
                     </tr>
                  </table>
               </div>
            </text>
            <status value="final"/>
            <category>
               <coding>
                  <system value="http://terminology.hl7.org/CodeSystem/observation-category"/>
                  <code value="vital-signs"/>
                  <display value="Vital Signs"/>
               </coding>
            </category>
            <code>
               <coding>
                  <system value="http://loinc.org"/>
                  <code value="$8302-2"/>
                  <display value="Body Height"/>
               </coding>
            </code>
            <subject>
               <reference value="urn:uuid:bb0da509-ecca-4fc7-8780-563bab3717f0"/>
               <display value="Andrzej Frydrychowicz"/>
            </subject>
            <effectiveDateTime value="2024-08-17"/>
            <valueQuantity>
               <value value="190.2"/>
               <unit value="cm"/>
               <code value="cm"/>
            </valueQuantity>
         </Observation>
      </resource>
   </entry>
   <entry>
      <fullUrl value="urn:uuid:3fc00c75-8a1d-4412-b5de-2ce59d338f80"/>
      <resource>
         <Observation>
            <id value="3fc00c75-8a1d-4412-b5de-2ce59d338f80"/>
            <meta>
               <profile value="http://hl7.org/fhir/StructureDefinition/vitalsigns"/>
            </meta>
            <text>
               <status value="generated"/>
               <div xmlns="http://www.w3.org/1999/xhtml">
                  <table class="hl7__ips">
                     <tr>
                        <th>Vital Sign</th>
                        <th>Date</th>
                        <th>Measurement</th>
                     </tr>
                     <tr>
                        <td>Pain severity - 0-10 verbal numeric rating [Score] - Reported</td>
                        <td>17-Aug-2024</td>
                        <td>4 {score}</td>
                     </tr>
                  </table>
               </div>
            </text>
            <status value="final"/>
            <category>
               <coding>
                  <system value="http://terminology.hl7.org/CodeSystem/observation-category"/>
                  <code value="vital-signs"/>
                  <display value="Vital Signs"/>
               </coding>
            </category>
            <code>
               <coding>
                  <system value="http://loinc.org"/>
                  <code value="$72514-3"/>
                  <display value="Pain severity - 0-10 verbal numeric rating [Score] - Reported"/>
               </coding>
            </code>
            <subject>
               <reference value="urn:uuid:bb0da509-ecca-4fc7-8780-563bab3717f0"/>
               <display value="Andrzej Frydrychowicz"/>
            </subject>
            <effectiveDateTime value="2024-08-17"/>
            <valueQuantity>
               <value value="4"/>
               <unit value="{score}"/>
               <code value="{score}"/>
            </valueQuantity>
         </Observation>
      </resource>
   </entry>
   <entry>
      <fullUrl value="urn:uuid:75d3ea90-91de-4c61-bd5d-783494c187ea"/>
      <resource>
         <Observation>
            <id value="75d3ea90-91de-4c61-bd5d-783494c187ea"/>
            <meta>
               <profile value="http://hl7.org/fhir/StructureDefinition/vitalsigns"/>
            </meta>
            <text>
               <status value="generated"/>
               <div xmlns="http://www.w3.org/1999/xhtml">
                  <table class="hl7__ips">
                     <tr>
                        <th>Vital Sign</th>
                        <th>Date</th>
                        <th>Measurement</th>
                     </tr>
                     <tr>
                        <td>Body Weight</td>
                        <td>17-Aug-2024</td>
                        <td>109.7 kg</td>
                     </tr>
                  </table>
               </div>
            </text>
            <status value="final"/>
            <category>
               <coding>
                  <system value="http://terminology.hl7.org/CodeSystem/observation-category"/>
                  <code value="vital-signs"/>
                  <display value="Vital Signs"/>
               </coding>
            </category>
            <code>
               <coding>
                  <system value="http://loinc.org"/>
                  <code value="$29463-7"/>
                  <display value="Body Weight"/>
               </coding>
            </code>
            <subject>
               <reference value="urn:uuid:bb0da509-ecca-4fc7-8780-563bab3717f0"/>
               <display value="Andrzej Frydrychowicz"/>
            </subject>
            <effectiveDateTime value="2024-08-17"/>
            <valueQuantity>
               <value value="109.7"/>
               <unit value="kg"/>
               <code value="kg"/>
            </valueQuantity>
         </Observation>
      </resource>
   </entry>
   <entry>
      <fullUrl value="urn:uuid:19d3fa7f-6125-4809-ae6e-3383b4b20195"/>
      <resource>
         <Observation>
            <id value="19d3fa7f-6125-4809-ae6e-3383b4b20195"/>
            <meta>
               <profile value="http://hl7.org/fhir/StructureDefinition/vitalsigns"/>
            </meta>
            <text>
               <status value="generated"/>
               <div xmlns="http://www.w3.org/1999/xhtml">
                  <table class="hl7__ips">
                     <tr>
                        <th>Vital Sign</th>
                        <th>Date</th>
                        <th>Measurement</th>
                     </tr>
                     <tr>
                        <td>Body mass index (BMI) [Ratio]</td>
                        <td>17-Aug-2024</td>
                        <td>30.3 kg/m2</td>
                     </tr>
                  </table>
               </div>
            </text>
            <status value="final"/>
            <category>
               <coding>
                  <system value="http://terminology.hl7.org/CodeSystem/observation-category"/>
                  <code value="vital-signs"/>
                  <display value="Vital Signs"/>
               </coding>
            </category>
            <code>
               <coding>
                  <system value="http://loinc.org"/>
                  <code value="$39156-5"/>
                  <display value="Body mass index (BMI) [Ratio]"/>
               </coding>
            </code>
            <subject>
               <reference value="urn:uuid:bb0da509-ecca-4fc7-8780-563bab3717f0"/>
               <display value="Andrzej Frydrychowicz"/>
            </subject>
            <effectiveDateTime value="2024-08-17"/>
            <valueQuantity>
               <value value="30.3"/>
               <unit value="kg/m2"/>
               <code value="kg/m2"/>
            </valueQuantity>
         </Observation>
      </resource>
   </entry>
   <entry>
      <fullUrl value="urn:uuid:9bef544f-7420-47f3-b99d-da4a09957d17"/>
      <resource>
         <Observation>
            <id value="9bef544f-7420-47f3-b99d-da4a09957d17"/>
            <meta>
               <profile value="http://hl7.org/fhir/StructureDefinition/vitalsigns"/>
            </meta>
            <text>
               <status value="generated"/>
               <div xmlns="http://www.w3.org/1999/xhtml">
                  <table class="hl7__ips">
                     <tr>
                        <th>Vital Sign</th>
                        <th>Date</th>
                        <th>Measurement</th>
                     </tr>
                     <tr>
                        <td>Diastolic Blood Pressure</td>
                        <td>17-Aug-2024</td>
                        <td>51 mm[Hg]</td>
                     </tr>
                  </table>
               </div>
            </text>
            <status value="final"/>
            <category>
               <coding>
                  <system value="http://terminology.hl7.org/CodeSystem/observation-category"/>
                  <code value="vital-signs"/>
                  <display value="Vital Signs"/>
               </coding>
            </category>
            <code>
               <coding>
                  <system value="http://loinc.org"/>
                  <code value="$8462-4"/>
                  <display value="Diastolic Blood Pressure"/>
               </coding>
            </code>
            <subject>
               <reference value="urn:uuid:bb0da509-ecca-4fc7-8780-563bab3717f0"/>
               <display value="Andrzej Frydrychowicz"/>
            </subject>
            <effectiveDateTime value="2024-08-17"/>
            <valueQuantity>
               <value value="51"/>
               <unit value="mm[Hg]"/>
               <code value="mm[Hg]"/>
            </valueQuantity>
         </Observation>
      </resource>
   </entry>
   <entry>
      <fullUrl value="urn:uuid:03cc9f51-dc93-4351-a708-725a3c8eb110"/>
      <resource>
         <Observation>
            <id value="03cc9f51-dc93-4351-a708-725a3c8eb110"/>
            <meta>
               <profile value="http://hl7.org/fhir/StructureDefinition/vitalsigns"/>
            </meta>
            <text>
               <status value="generated"/>
               <div xmlns="http://www.w3.org/1999/xhtml">
                  <table class="hl7__ips">
                     <tr>
                        <th>Vital Sign</th>
                        <th>Date</th>
                        <th>Measurement</th>
                     </tr>
                     <tr>
                        <td>Systolic Blood Pressure</td>
                        <td>17-Aug-2024</td>
                        <td>95 mm[Hg]</td>
                     </tr>
                  </table>
               </div>
            </text>
            <status value="final"/>
            <category>
               <coding>
                  <system value="http://terminology.hl7.org/CodeSystem/observation-category"/>
                  <code value="vital-signs"/>
                  <display value="Vital Signs"/>
               </coding>
            </category>
            <code>
               <coding>
                  <system value="http://loinc.org"/>
                  <code value="$8480-6"/>
                  <display value="Systolic Blood Pressure"/>
               </coding>
            </code>
            <subject>
               <reference value="urn:uuid:bb0da509-ecca-4fc7-8780-563bab3717f0"/>
               <display value="Andrzej Frydrychowicz"/>
            </subject>
            <effectiveDateTime value="2024-08-17"/>
            <valueQuantity>
               <value value="95"/>
               <unit value="mm[Hg]"/>
               <code value="mm[Hg]"/>
            </valueQuantity>
         </Observation>
      </resource>
   </entry>
   <entry>
      <fullUrl value="urn:uuid:01048201-692d-431c-af2c-3fd3cbc89eae"/>
      <resource>
         <Observation>
            <id value="01048201-692d-431c-af2c-3fd3cbc89eae"/>
            <meta>
               <profile value="http://hl7.org/fhir/StructureDefinition/vitalsigns"/>
            </meta>
            <text>
               <status value="generated"/>
               <div xmlns="http://www.w3.org/1999/xhtml">
                  <table class="hl7__ips">
                     <tr>
                        <th>Vital Sign</th>
                        <th>Date</th>
                        <th>Measurement</th>
                     </tr>
                     <tr>
                        <td>Heart rate</td>
                        <td>17-Aug-2024</td>
                        <td>75 /min</td>
                     </tr>
                  </table>
               </div>
            </text>
            <status value="final"/>
            <category>
               <coding>
                  <system value="http://terminology.hl7.org/CodeSystem/observation-category"/>
                  <code value="vital-signs"/>
                  <display value="Vital Signs"/>
               </coding>
            </category>
            <code>
               <coding>
                  <system value="http://loinc.org"/>
                  <code value="$8867-4"/>
                  <display value="Heart rate"/>
               </coding>
            </code>
            <subject>
               <reference value="urn:uuid:bb0da509-ecca-4fc7-8780-563bab3717f0"/>
               <display value="Andrzej Frydrychowicz"/>
            </subject>
            <effectiveDateTime value="2024-08-17"/>
            <valueQuantity>
               <value value="75"/>
               <unit value="/min"/>
               <code value="/min"/>
            </valueQuantity>
         </Observation>
      </resource>
   </entry>
   <entry>
      <fullUrl value="urn:uuid:f5da5c00-ba1e-4d5e-8ac7-da87d3838e50"/>
      <resource>
         <Observation>
            <id value="f5da5c00-ba1e-4d5e-8ac7-da87d3838e50"/>
            <meta>
               <profile value="http://hl7.org/fhir/StructureDefinition/vitalsigns"/>
            </meta>
            <text>
               <status value="generated"/>
               <div xmlns="http://www.w3.org/1999/xhtml">
                  <table class="hl7__ips">
                     <tr>
                        <th>Vital Sign</th>
                        <th>Date</th>
                        <th>Measurement</th>
                     </tr>
                     <tr>
                        <td>Respiratory rate</td>
                        <td>17-Aug-2024</td>
                        <td>15 /min</td>
                     </tr>
                  </table>
               </div>
            </text>
            <status value="final"/>
            <category>
               <coding>
                  <system value="http://terminology.hl7.org/CodeSystem/observation-category"/>
                  <code value="vital-signs"/>
                  <display value="Vital Signs"/>
               </coding>
            </category>
            <code>
               <coding>
                  <system value="http://loinc.org"/>
                  <code value="$9279-1"/>
                  <display value="Respiratory rate"/>
               </coding>
            </code>
            <subject>
               <reference value="urn:uuid:bb0da509-ecca-4fc7-8780-563bab3717f0"/>
               <display value="Andrzej Frydrychowicz"/>
            </subject>
            <effectiveDateTime value="2024-08-17"/>
            <valueQuantity>
               <value value="15"/>
               <unit value="/min"/>
               <code value="/min"/>
            </valueQuantity>
         </Observation>
      </resource>
   </entry>
   <entry>
      <fullUrl value="urn:uuid:afbbab43-b534-40a6-acc6-cefd35c7b66b"/>
      <resource>
         <Observation>
            <id value="afbbab43-b534-40a6-acc6-cefd35c7b66b"/>
            <meta>
               <profile value="http://hl7.org/fhir/StructureDefinition/vitalsigns"/>
            </meta>
            <text>
               <status value="generated"/>
               <div xmlns="http://www.w3.org/1999/xhtml">
                  <table class="hl7__ips">
                     <tr>
                        <th>Vital Sign</th>
                        <th>Date</th>
                        <th>Measurement</th>
                     </tr>
                     <tr>
                        <td>Body Height</td>
                        <td>12-Aug-2023</td>
                        <td>190.2 cm</td>
                     </tr>
                  </table>
               </div>
            </text>
            <status value="final"/>
            <category>
               <coding>
                  <system value="http://terminology.hl7.org/CodeSystem/observation-category"/>
                  <code value="vital-signs"/>
                  <display value="Vital Signs"/>
               </coding>
            </category>
            <code>
               <coding>
                  <system value="http://loinc.org"/>
                  <code value="$8302-2"/>
                  <display value="Body Height"/>
               </coding>
            </code>
            <subject>
               <reference value="urn:uuid:bb0da509-ecca-4fc7-8780-563bab3717f0"/>
               <display value="Andrzej Frydrychowicz"/>
            </subject>
            <effectiveDateTime value="2023-08-12"/>
            <valueQuantity>
               <value value="190.2"/>
               <unit value="cm"/>
               <code value="cm"/>
            </valueQuantity>
         </Observation>
      </resource>
   </entry>
   <entry>
      <fullUrl value="urn:uuid:14c9b6ad-82b8-4cbb-bc7c-0f764a81e428"/>
      <resource>
         <Observation>
            <id value="14c9b6ad-82b8-4cbb-bc7c-0f764a81e428"/>
            <meta>
               <profile value="http://hl7.org/fhir/StructureDefinition/vitalsigns"/>
            </meta>
            <text>
               <status value="generated"/>
               <div xmlns="http://www.w3.org/1999/xhtml">
                  <table class="hl7__ips">
                     <tr>
                        <th>Vital Sign</th>
                        <th>Date</th>
                        <th>Measurement</th>
                     </tr>
                     <tr>
                        <td>Pain severity - 0-10 verbal numeric rating [Score] - Reported</td>
                        <td>12-Aug-2023</td>
                        <td>4 {score}</td>
                     </tr>
                  </table>
               </div>
            </text>
            <status value="final"/>
            <category>
               <coding>
                  <system value="http://terminology.hl7.org/CodeSystem/observation-category"/>
                  <code value="vital-signs"/>
                  <display value="Vital Signs"/>
               </coding>
            </category>
            <code>
               <coding>
                  <system value="http://loinc.org"/>
                  <code value="$72514-3"/>
                  <display value="Pain severity - 0-10 verbal numeric rating [Score] - Reported"/>
               </coding>
            </code>
            <subject>
               <reference value="urn:uuid:bb0da509-ecca-4fc7-8780-563bab3717f0"/>
               <display value="Andrzej Frydrychowicz"/>
            </subject>
            <effectiveDateTime value="2023-08-12"/>
            <valueQuantity>
               <value value="4"/>
               <unit value="{score}"/>
               <code value="{score}"/>
            </valueQuantity>
         </Observation>
      </resource>
   </entry>
   <entry>
      <fullUrl value="urn:uuid:b4583449-e891-46a3-b65e-0586d545f6b6"/>
      <resource>
         <Observation>
            <id value="b4583449-e891-46a3-b65e-0586d545f6b6"/>
            <meta>
               <profile value="http://hl7.org/fhir/StructureDefinition/vitalsigns"/>
            </meta>
            <text>
               <status value="generated"/>
               <div xmlns="http://www.w3.org/1999/xhtml">
                  <table class="hl7__ips">
                     <tr>
                        <th>Vital Sign</th>
                        <th>Date</th>
                        <th>Measurement</th>
                     </tr>
                     <tr>
                        <td>Body Weight</td>
                        <td>12-Aug-2023</td>
                        <td>109.7 kg</td>
                     </tr>
                  </table>
               </div>
            </text>
            <status value="final"/>
            <category>
               <coding>
                  <system value="http://terminology.hl7.org/CodeSystem/observation-category"/>
                  <code value="vital-signs"/>
                  <display value="Vital Signs"/>
               </coding>
            </category>
            <code>
               <coding>
                  <system value="http://loinc.org"/>
                  <code value="$29463-7"/>
                  <display value="Body Weight"/>
               </coding>
            </code>
            <subject>
               <reference value="urn:uuid:bb0da509-ecca-4fc7-8780-563bab3717f0"/>
               <display value="Andrzej Frydrychowicz"/>
            </subject>
            <effectiveDateTime value="2023-08-12"/>
            <valueQuantity>
               <value value="109.7"/>
               <unit value="kg"/>
               <code value="kg"/>
            </valueQuantity>
         </Observation>
      </resource>
   </entry>
   <entry>
      <fullUrl value="urn:uuid:89fabc2c-b5f8-4f3d-a3e6-aaa30c030000"/>
      <resource>
         <Observation>
            <id value="89fabc2c-b5f8-4f3d-a3e6-aaa30c030000"/>
            <meta>
               <profile value="http://hl7.org/fhir/StructureDefinition/vitalsigns"/>
            </meta>
            <text>
               <status value="generated"/>
               <div xmlns="http://www.w3.org/1999/xhtml">
                  <table class="hl7__ips">
                     <tr>
                        <th>Vital Sign</th>
                        <th>Date</th>
                        <th>Measurement</th>
                     </tr>
                     <tr>
                        <td>Body mass index (BMI) [Ratio]</td>
                        <td>12-Aug-2023</td>
                        <td>30.3 kg/m2</td>
                     </tr>
                  </table>
               </div>
            </text>
            <status value="final"/>
            <category>
               <coding>
                  <system value="http://terminology.hl7.org/CodeSystem/observation-category"/>
                  <code value="vital-signs"/>
                  <display value="Vital Signs"/>
               </coding>
            </category>
            <code>
               <coding>
                  <system value="http://loinc.org"/>
                  <code value="$39156-5"/>
                  <display value="Body mass index (BMI) [Ratio]"/>
               </coding>
            </code>
            <subject>
               <reference value="urn:uuid:bb0da509-ecca-4fc7-8780-563bab3717f0"/>
               <display value="Andrzej Frydrychowicz"/>
            </subject>
            <effectiveDateTime value="2023-08-12"/>
            <valueQuantity>
               <value value="30.3"/>
               <unit value="kg/m2"/>
               <code value="kg/m2"/>
            </valueQuantity>
         </Observation>
      </resource>
   </entry>
   <entry>
      <fullUrl value="urn:uuid:f0239942-c974-4018-86b0-c2cc93979b44"/>
      <resource>
         <Observation>
            <id value="f0239942-c974-4018-86b0-c2cc93979b44"/>
            <meta>
               <profile value="http://hl7.org/fhir/StructureDefinition/vitalsigns"/>
            </meta>
            <text>
               <status value="generated"/>
               <div xmlns="http://www.w3.org/1999/xhtml">
                  <table class="hl7__ips">
                     <tr>
                        <th>Vital Sign</th>
                        <th>Date</th>
                        <th>Measurement</th>
                     </tr>
                     <tr>
                        <td>Diastolic Blood Pressure</td>
                        <td>12-Aug-2023</td>
                        <td>44 mm[Hg]</td>
                     </tr>
                  </table>
               </div>
            </text>
            <status value="final"/>
            <category>
               <coding>
                  <system value="http://terminology.hl7.org/CodeSystem/observation-category"/>
                  <code value="vital-signs"/>
                  <display value="Vital Signs"/>
               </coding>
            </category>
            <code>
               <coding>
                  <system value="http://loinc.org"/>
                  <code value="$8462-4"/>
                  <display value="Diastolic Blood Pressure"/>
               </coding>
            </code>
            <subject>
               <reference value="urn:uuid:bb0da509-ecca-4fc7-8780-563bab3717f0"/>
               <display value="Andrzej Frydrychowicz"/>
            </subject>
            <effectiveDateTime value="2023-08-12"/>
            <valueQuantity>
               <value value="44"/>
               <unit value="mm[Hg]"/>
               <code value="mm[Hg]"/>
            </valueQuantity>
         </Observation>
      </resource>
   </entry>
   <entry>
      <fullUrl value="urn:uuid:2ede6b19-c3aa-4b88-bca4-4523cd2792a6"/>
      <resource>
         <Observation>
            <id value="2ede6b19-c3aa-4b88-bca4-4523cd2792a6"/>
            <meta>
               <profile value="http://hl7.org/fhir/StructureDefinition/vitalsigns"/>
            </meta>
            <text>
               <status value="generated"/>
               <div xmlns="http://www.w3.org/1999/xhtml">
                  <table class="hl7__ips">
                     <tr>
                        <th>Vital Sign</th>
                        <th>Date</th>
                        <th>Measurement</th>
                     </tr>
                     <tr>
                        <td>Systolic Blood Pressure</td>
                        <td>12-Aug-2023</td>
                        <td>85 mm[Hg]</td>
                     </tr>
                  </table>
               </div>
            </text>
            <status value="final"/>
            <category>
               <coding>
                  <system value="http://terminology.hl7.org/CodeSystem/observation-category"/>
                  <code value="vital-signs"/>
                  <display value="Vital Signs"/>
               </coding>
            </category>
            <code>
               <coding>
                  <system value="http://loinc.org"/>
                  <code value="$8480-6"/>
                  <display value="Systolic Blood Pressure"/>
               </coding>
            </code>
            <subject>
               <reference value="urn:uuid:bb0da509-ecca-4fc7-8780-563bab3717f0"/>
               <display value="Andrzej Frydrychowicz"/>
            </subject>
            <effectiveDateTime value="2023-08-12"/>
            <valueQuantity>
               <value value="85"/>
               <unit value="mm[Hg]"/>
               <code value="mm[Hg]"/>
            </valueQuantity>
         </Observation>
      </resource>
   </entry>
   <entry>
      <fullUrl value="urn:uuid:46a642f1-eb4d-4be9-a7a4-d400ae7393d2"/>
      <resource>
         <Observation>
            <id value="46a642f1-eb4d-4be9-a7a4-d400ae7393d2"/>
            <meta>
               <profile value="http://hl7.org/fhir/StructureDefinition/vitalsigns"/>
            </meta>
            <text>
               <status value="generated"/>
               <div xmlns="http://www.w3.org/1999/xhtml">
                  <table class="hl7__ips">
                     <tr>
                        <th>Vital Sign</th>
                        <th>Date</th>
                        <th>Measurement</th>
                     </tr>
                     <tr>
                        <td>Heart rate</td>
                        <td>12-Aug-2023</td>
                        <td>96 /min</td>
                     </tr>
                  </table>
               </div>
            </text>
            <status value="final"/>
            <category>
               <coding>
                  <system value="http://terminology.hl7.org/CodeSystem/observation-category"/>
                  <code value="vital-signs"/>
                  <display value="Vital Signs"/>
               </coding>
            </category>
            <code>
               <coding>
                  <system value="http://loinc.org"/>
                  <code value="$8867-4"/>
                  <display value="Heart rate"/>
               </coding>
            </code>
            <subject>
               <reference value="urn:uuid:bb0da509-ecca-4fc7-8780-563bab3717f0"/>
               <display value="Andrzej Frydrychowicz"/>
            </subject>
            <effectiveDateTime value="2023-08-12"/>
            <valueQuantity>
               <value value="96"/>
               <unit value="/min"/>
               <code value="/min"/>
            </valueQuantity>
         </Observation>
      </resource>
   </entry>
   <entry>
      <fullUrl value="urn:uuid:7fb40d77-bf61-4bb4-9250-2e76c6047247"/>
      <resource>
         <Observation>
            <id value="7fb40d77-bf61-4bb4-9250-2e76c6047247"/>
            <meta>
               <profile value="http://hl7.org/fhir/StructureDefinition/vitalsigns"/>
            </meta>
            <text>
               <status value="generated"/>
               <div xmlns="http://www.w3.org/1999/xhtml">
                  <table class="hl7__ips">
                     <tr>
                        <th>Vital Sign</th>
                        <th>Date</th>
                        <th>Measurement</th>
                     </tr>
                     <tr>
                        <td>Respiratory rate</td>
                        <td>12-Aug-2023</td>
                        <td>16 /min</td>
                     </tr>
                  </table>
               </div>
            </text>
            <status value="final"/>
            <category>
               <coding>
                  <system value="http://terminology.hl7.org/CodeSystem/observation-category"/>
                  <code value="vital-signs"/>
                  <display value="Vital Signs"/>
               </coding>
            </category>
            <code>
               <coding>
                  <system value="http://loinc.org"/>
                  <code value="$9279-1"/>
                  <display value="Respiratory rate"/>
               </coding>
            </code>
            <subject>
               <reference value="urn:uuid:bb0da509-ecca-4fc7-8780-563bab3717f0"/>
               <display value="Andrzej Frydrychowicz"/>
            </subject>
            <effectiveDateTime value="2023-08-12"/>
            <valueQuantity>
               <value value="16"/>
               <unit value="/min"/>
               <code value="/min"/>
            </valueQuantity>
         </Observation>
      </resource>
   </entry>
   <entry>
      <fullUrl value="urn:uuid:61afdcf0-485e-4118-aa61-8d96cb1dde56"/>
      <resource>
         <Observation>
            <id value="61afdcf0-485e-4118-aa61-8d96cb1dde56"/>
            <meta>
               <profile value="http://hl7.eu/fhir/laboratory/StructureDefinition/Observation-resultslab-eu-lab"/>
            </meta>
            <text>
               <status value="generated"/>
               <div xmlns="http://www.w3.org/1999/xhtml">
                  <table class="hl7__eu__lab__report">
                     <tr>
                        <th>Test</th>
                        <th>17-Aug-2024</th>
                        <th>Reference Range</th>
                        <th>Unit</th>
                     </tr>
                     <tr>
                        <td>Hemoglobin A1c/Hemoglobin.total in Blood</td>
                        <td>5.9</td>
                        <td>4.3 - 6.4</td>
                        <td/>
                        <td>%</td>
                     </tr>
                  </table>
               </div>
            </text>
            <status value="final"/>
            <category>
               <coding>
                  <system value="http://terminology.hl7.org/CodeSystem/observation-category"/>
                  <code value="laboratory"/>
               </coding>
            </category>
            <code>
               <coding>
                  <system value="http://loinc.org"/>
                  <code value="4548-4"/>
                  <display value="Hemoglobin A1c/Hemoglobin.total in Blood"/>
               </coding>
               <text value="Hemoglobin A1c/Hemoglobin.total in Blood"/>
            </code>
            <subject>
               <reference value="urn:uuid:bb0da509-ecca-4fc7-8780-563bab3717f0"/>
               <display value="Andrzej Frydrychowicz"/>
            </subject>
            <effectiveDateTime value="2024-08-17T21:33:04Z"/>
            <performer>
               <display value="The Central European Lab"/>
            </performer>
            <valueQuantity>
               <value value="5.9"/>
               <unit value="%"/>
               <system value="http://unitsofmeasure.org"/>
               <code value="%"/>
            </valueQuantity>
            <referenceRange>
               <low>
                  <value value="4.3"/>
                  <system value="http://unitsofmeasure.org"/>
                  <code value="%"/>
               </low>
            </referenceRange>
            <referenceRange>
               <high>
                  <value value="6.4"/>
                  <system value="http://unitsofmeasure.org"/>
                  <code value="%"/>
               </high>
            </referenceRange>
         </Observation>
      </resource>
   </entry>
   <entry>
      <fullUrl value="urn:uuid:ddeca941-13b6-492d-a116-4f077503e743"/>
      <resource>
         <Observation>
            <id value="ddeca941-13b6-492d-a116-4f077503e743"/>
            <meta>
               <profile value="http://hl7.eu/fhir/laboratory/StructureDefinition/Observation-resultslab-eu-lab"/>
            </meta>
            <text>
               <status value="generated"/>
               <div xmlns="http://www.w3.org/1999/xhtml">
                  <table class="hl7__eu__lab__report">
                     <tr>
                        <th>Test</th>
                        <th>17-Aug-2024</th>
                        <th>Reference Range</th>
                        <th>Unit</th>
                     </tr>
                     <tr>
                        <td>Glucose [Mass/volume] in Blood</td>
                        <td>90.3</td>
                        <td>70 - 140</td>
                        <td/>
                        <td>mg/dL</td>
                     </tr>
                  </table>
               </div>
            </text>
            <status value="final"/>
            <category>
               <coding>
                  <system value="http://terminology.hl7.org/CodeSystem/observation-category"/>
                  <code value="laboratory"/>
               </coding>
            </category>
            <code>
               <coding>
                  <system value="http://loinc.org"/>
                  <code value="2339-0"/>
                  <display value="Glucose [Mass/volume] in Blood"/>
               </coding>
               <text value="Glucose [Mass/volume] in Blood"/>
            </code>
            <subject>
               <reference value="urn:uuid:bb0da509-ecca-4fc7-8780-563bab3717f0"/>
               <display value="Andrzej Frydrychowicz"/>
            </subject>
            <effectiveDateTime value="2024-08-17T21:33:04Z"/>
            <performer>
               <display value="The Central European Lab"/>
            </performer>
            <valueQuantity>
               <value value="90.3"/>
               <unit value="mg/dL"/>
               <system value="http://unitsofmeasure.org"/>
               <code value="mg/dL"/>
            </valueQuantity>
            <referenceRange>
               <low>
                  <value value="70"/>
                  <system value="http://unitsofmeasure.org"/>
                  <code value="mg/dL"/>
               </low>
            </referenceRange>
            <referenceRange>
               <high>
                  <value value="140"/>
                  <system value="http://unitsofmeasure.org"/>
                  <code value="mg/dL"/>
               </high>
            </referenceRange>
         </Observation>
      </resource>
   </entry>
   <entry>
      <fullUrl value="urn:uuid:ec8312e6-8b60-42de-88a4-a7ca237772be"/>
      <resource>
         <Observation>
            <id value="ec8312e6-8b60-42de-88a4-a7ca237772be"/>
            <meta>
               <profile value="http://hl7.eu/fhir/laboratory/StructureDefinition/Observation-resultslab-eu-lab"/>
            </meta>
            <text>
               <status value="generated"/>
               <div xmlns="http://www.w3.org/1999/xhtml">
                  <table class="hl7__eu__lab__report">
                     <tr>
                        <th>Test</th>
                        <th>17-Aug-2024</th>
                        <th>Reference Range</th>
                        <th>Unit</th>
                     </tr>
                     <tr>
                        <td>Urea nitrogen [Mass/volume] in Blood</td>
                        <td>7.2</td>
                        <td>7 - 20</td>
                        <td/>
                        <td>mg/dL</td>
                     </tr>
                  </table>
               </div>
            </text>
            <status value="final"/>
            <category>
               <coding>
                  <system value="http://terminology.hl7.org/CodeSystem/observation-category"/>
                  <code value="laboratory"/>
               </coding>
            </category>
            <code>
               <coding>
                  <system value="http://loinc.org"/>
                  <code value="6299-2"/>
                  <display value="Urea nitrogen [Mass/volume] in Blood"/>
               </coding>
               <text value="Urea nitrogen [Mass/volume] in Blood"/>
            </code>
            <subject>
               <reference value="urn:uuid:bb0da509-ecca-4fc7-8780-563bab3717f0"/>
               <display value="Andrzej Frydrychowicz"/>
            </subject>
            <effectiveDateTime value="2024-08-17T21:33:04Z"/>
            <performer>
               <display value="The Central European Lab"/>
            </performer>
            <valueQuantity>
               <value value="7.2"/>
               <unit value="mg/dL"/>
               <system value="http://unitsofmeasure.org"/>
               <code value="mg/dL"/>
            </valueQuantity>
            <referenceRange>
               <low>
                  <value value="7"/>
                  <system value="http://unitsofmeasure.org"/>
                  <code value="mg/dL"/>
               </low>
            </referenceRange>
            <referenceRange>
               <high>
                  <value value="20"/>
                  <system value="http://unitsofmeasure.org"/>
                  <code value="mg/dL"/>
               </high>
            </referenceRange>
         </Observation>
      </resource>
   </entry>
   <entry>
      <fullUrl value="urn:uuid:01cd8a96-afe5-46a2-a553-c114956e832e"/>
      <resource>
         <Observation>
            <id value="01cd8a96-afe5-46a2-a553-c114956e832e"/>
            <meta>
               <profile value="http://hl7.eu/fhir/laboratory/StructureDefinition/Observation-resultslab-eu-lab"/>
            </meta>
            <text>
               <status value="generated"/>
               <div xmlns="http://www.w3.org/1999/xhtml">
                  <table class="hl7__eu__lab__report">
                     <tr>
                        <th>Test</th>
                        <th>17-Aug-2024</th>
                        <th>Reference Range</th>
                        <th>Unit</th>
                     </tr>
                     <tr>
                        <td>Creatinine [Mass/volume] in Blood</td>
                        <td>1.4</td>
                        <td>0.6 - 1.3</td>
                        <td>H</td>
                        <td>mg/dL</td>
                     </tr>
                  </table>
               </div>
            </text>
            <status value="final"/>
            <category>
               <coding>
                  <system value="http://terminology.hl7.org/CodeSystem/observation-category"/>
                  <code value="laboratory"/>
               </coding>
            </category>
            <code>
               <coding>
                  <system value="http://loinc.org"/>
                  <code value="38483-4"/>
                  <display value="Creatinine [Mass/volume] in Blood"/>
               </coding>
               <text value="Creatinine [Mass/volume] in Blood"/>
            </code>
            <subject>
               <reference value="urn:uuid:bb0da509-ecca-4fc7-8780-563bab3717f0"/>
               <display value="Andrzej Frydrychowicz"/>
            </subject>
            <effectiveDateTime value="2024-08-17T21:33:04Z"/>
            <performer>
               <display value="The Central European Lab"/>
            </performer>
            <valueQuantity>
               <value value="1.4"/>
               <unit value="mg/dL"/>
               <system value="http://unitsofmeasure.org"/>
               <code value="mg/dL"/>
            </valueQuantity>
            <interpretation>
               <coding>
                  <system value="http://terminology.hl7.org/CodeSystem/v3-ObservationInterpretation"/>
                  <code value="H"/>
                  <display value="High"/>
               </coding>
            </interpretation>
            <referenceRange>
               <low>
                  <value value="0.6"/>
                  <system value="http://unitsofmeasure.org"/>
                  <code value="mg/dL"/>
               </low>
            </referenceRange>
            <referenceRange>
               <high>
                  <value value="1.3"/>
                  <system value="http://unitsofmeasure.org"/>
                  <code value="mg/dL"/>
               </high>
            </referenceRange>
         </Observation>
      </resource>
   </entry>
   <entry>
      <fullUrl value="urn:uuid:57d722d2-abbc-428e-a817-3b9459f402db"/>
      <resource>
         <Observation>
            <id value="57d722d2-abbc-428e-a817-3b9459f402db"/>
            <meta>
               <profile value="http://hl7.eu/fhir/laboratory/StructureDefinition/Observation-resultslab-eu-lab"/>
            </meta>
            <text>
               <status value="generated"/>
               <div xmlns="http://www.w3.org/1999/xhtml">
                  <table class="hl7__eu__lab__report">
                     <tr>
                        <th>Test</th>
                        <th>17-Aug-2024</th>
                        <th>Reference Range</th>
                        <th>Unit</th>
                     </tr>
                     <tr>
                        <td>Calcium [Mass/volume] in Blood</td>
                        <td>9.0</td>
                        <td>8.5 - 10.5</td>
                        <td/>
                        <td>mg/dL</td>
                     </tr>
                  </table>
               </div>
            </text>
            <status value="final"/>
            <category>
               <coding>
                  <system value="http://terminology.hl7.org/CodeSystem/observation-category"/>
                  <code value="laboratory"/>
               </coding>
            </category>
            <code>
               <coding>
                  <system value="http://loinc.org"/>
                  <code value="49765-1"/>
                  <display value="Calcium [Mass/volume] in Blood"/>
               </coding>
               <text value="Calcium [Mass/volume] in Blood"/>
            </code>
            <subject>
               <reference value="urn:uuid:bb0da509-ecca-4fc7-8780-563bab3717f0"/>
               <display value="Andrzej Frydrychowicz"/>
            </subject>
            <effectiveDateTime value="2024-08-17T21:33:04Z"/>
            <performer>
               <display value="The Central European Lab"/>
            </performer>
            <valueQuantity>
               <value value="9"/>
               <unit value="mg/dL"/>
               <system value="http://unitsofmeasure.org"/>
               <code value="mg/dL"/>
            </valueQuantity>
            <referenceRange>
               <low>
                  <value value="8.5"/>
                  <system value="http://unitsofmeasure.org"/>
                  <code value="mg/dL"/>
               </low>
            </referenceRange>
            <referenceRange>
               <high>
                  <value value="10.5"/>
                  <system value="http://unitsofmeasure.org"/>
                  <code value="mg/dL"/>
               </high>
            </referenceRange>
         </Observation>
      </resource>
   </entry>
   <entry>
      <fullUrl value="urn:uuid:113240d1-787b-4634-acfc-0d4826e5793f"/>
      <resource>
         <Observation>
            <id value="113240d1-787b-4634-acfc-0d4826e5793f"/>
            <meta>
               <profile value="http://hl7.eu/fhir/laboratory/StructureDefinition/Observation-resultslab-eu-lab"/>
            </meta>
            <text>
               <status value="generated"/>
               <div xmlns="http://www.w3.org/1999/xhtml">
                  <table class="hl7__eu__lab__report">
                     <tr>
                        <th>Test</th>
                        <th>17-Aug-2024</th>
                        <th>Reference Range</th>
                        <th>Unit</th>
                     </tr>
                     <tr>
                        <td>Sodium [Moles/volume] in Blood</td>
                        <td>136.6</td>
                        <td>135 - 145</td>
                        <td/>
                        <td>mmol/L</td>
                     </tr>
                  </table>
               </div>
            </text>
            <status value="final"/>
            <category>
               <coding>
                  <system value="http://terminology.hl7.org/CodeSystem/observation-category"/>
                  <code value="laboratory"/>
               </coding>
            </category>
            <code>
               <coding>
                  <system value="http://loinc.org"/>
                  <code value="2947-0"/>
                  <display value="Sodium [Moles/volume] in Blood"/>
               </coding>
               <text value="Sodium [Moles/volume] in Blood"/>
            </code>
            <subject>
               <reference value="urn:uuid:bb0da509-ecca-4fc7-8780-563bab3717f0"/>
               <display value="Andrzej Frydrychowicz"/>
            </subject>
            <effectiveDateTime value="2024-08-17T21:33:04Z"/>
            <performer>
               <display value="The Central European Lab"/>
            </performer>
            <valueQuantity>
               <value value="136.6"/>
               <unit value="mmol/L"/>
               <system value="http://unitsofmeasure.org"/>
               <code value="mmol/L"/>
            </valueQuantity>
            <referenceRange>
               <low>
                  <value value="135"/>
                  <system value="http://unitsofmeasure.org"/>
                  <code value="mmol/L"/>
               </low>
            </referenceRange>
            <referenceRange>
               <high>
                  <value value="145"/>
                  <system value="http://unitsofmeasure.org"/>
                  <code value="mmol/L"/>
               </high>
            </referenceRange>
         </Observation>
      </resource>
   </entry>
   <entry>
      <fullUrl value="urn:uuid:f26cf333-34a2-4b23-809d-0d3461c15caf"/>
      <resource>
         <Observation>
            <id value="f26cf333-34a2-4b23-809d-0d3461c15caf"/>
            <meta>
               <profile value="http://hl7.eu/fhir/laboratory/StructureDefinition/Observation-resultslab-eu-lab"/>
            </meta>
            <text>
               <status value="generated"/>
               <div xmlns="http://www.w3.org/1999/xhtml">
                  <table class="hl7__eu__lab__report">
                     <tr>
                        <th>Test</th>
                        <th>17-Aug-2024</th>
                        <th>Reference Range</th>
                        <th>Unit</th>
                     </tr>
                     <tr>
                        <td>Potassium [Moles/volume] in Blood</td>
                        <td>5.1</td>
                        <td>3.5 - 5.3</td>
                        <td/>
                        <td>mmol/L</td>
                     </tr>
                  </table>
               </div>
            </text>
            <status value="final"/>
            <category>
               <coding>
                  <system value="http://terminology.hl7.org/CodeSystem/observation-category"/>
                  <code value="laboratory"/>
               </coding>
            </category>
            <code>
               <coding>
                  <system value="http://loinc.org"/>
                  <code value="6298-4"/>
                  <display value="Potassium [Moles/volume] in Blood"/>
               </coding>
               <text value="Potassium [Moles/volume] in Blood"/>
            </code>
            <subject>
               <reference value="urn:uuid:bb0da509-ecca-4fc7-8780-563bab3717f0"/>
               <display value="Andrzej Frydrychowicz"/>
            </subject>
            <effectiveDateTime value="2024-08-17T21:33:04Z"/>
            <performer>
               <display value="The Central European Lab"/>
            </performer>
            <valueQuantity>
               <value value="5.1"/>
               <unit value="mmol/L"/>
               <system value="http://unitsofmeasure.org"/>
               <code value="mmol/L"/>
            </valueQuantity>
            <referenceRange>
               <low>
                  <value value="3.5"/>
                  <system value="http://unitsofmeasure.org"/>
                  <code value="mmol/L"/>
               </low>
            </referenceRange>
            <referenceRange>
               <high>
                  <value value="5.3"/>
                  <system value="http://unitsofmeasure.org"/>
                  <code value="mmol/L"/>
               </high>
            </referenceRange>
         </Observation>
      </resource>
   </entry>
   <entry>
      <fullUrl value="urn:uuid:b34a394f-7022-497f-9cfb-59826a4e6e99"/>
      <resource>
         <Observation>
            <id value="b34a394f-7022-497f-9cfb-59826a4e6e99"/>
            <meta>
               <profile value="http://hl7.eu/fhir/laboratory/StructureDefinition/Observation-resultslab-eu-lab"/>
            </meta>
            <text>
               <status value="generated"/>
               <div xmlns="http://www.w3.org/1999/xhtml">
                  <table class="hl7__eu__lab__report">
                     <tr>
                        <th>Test</th>
                        <th>17-Aug-2024</th>
                        <th>Reference Range</th>
                        <th>Unit</th>
                     </tr>
                     <tr>
                        <td>Chloride [Moles/volume] in Blood</td>
                        <td>110.0</td>
                        <td>98 - 110</td>
                        <td/>
                        <td>mmol/L</td>
                     </tr>
                  </table>
               </div>
            </text>
            <status value="final"/>
            <category>
               <coding>
                  <system value="http://terminology.hl7.org/CodeSystem/observation-category"/>
                  <code value="laboratory"/>
               </coding>
            </category>
            <code>
               <coding>
                  <system value="http://loinc.org"/>
                  <code value="2069-3"/>
                  <display value="Chloride [Moles/volume] in Blood"/>
               </coding>
               <text value="Chloride [Moles/volume] in Blood"/>
            </code>
            <subject>
               <reference value="urn:uuid:bb0da509-ecca-4fc7-8780-563bab3717f0"/>
               <display value="Andrzej Frydrychowicz"/>
            </subject>
            <effectiveDateTime value="2024-08-17T21:33:04Z"/>
            <performer>
               <display value="The Central European Lab"/>
            </performer>
            <valueQuantity>
               <value value="110"/>
               <unit value="mmol/L"/>
               <system value="http://unitsofmeasure.org"/>
               <code value="mmol/L"/>
            </valueQuantity>
            <referenceRange>
               <low>
                  <value value="98"/>
                  <system value="http://unitsofmeasure.org"/>
                  <code value="mmol/L"/>
               </low>
            </referenceRange>
            <referenceRange>
               <high>
                  <value value="110"/>
                  <system value="http://unitsofmeasure.org"/>
                  <code value="mmol/L"/>
               </high>
            </referenceRange>
         </Observation>
      </resource>
   </entry>
   <entry>
      <fullUrl value="urn:uuid:809d5adc-0cd2-4ca1-93b6-fbeccbcaac44"/>
      <resource>
         <Observation>
            <id value="809d5adc-0cd2-4ca1-93b6-fbeccbcaac44"/>
            <meta>
               <profile value="http://hl7.eu/fhir/laboratory/StructureDefinition/Observation-resultslab-eu-lab"/>
            </meta>
            <text>
               <status value="generated"/>
               <div xmlns="http://www.w3.org/1999/xhtml">
                  <table class="hl7__eu__lab__report">
                     <tr>
                        <th>Test</th>
                        <th>17-Aug-2024</th>
                        <th>Reference Range</th>
                        <th>Unit</th>
                     </tr>
                     <tr>
                        <td>Carbon dioxide, total [Moles/volume] in Blood</td>
                        <td>28.8</td>
                        <td>22 - 29</td>
                        <td/>
                        <td>mmol/L</td>
                     </tr>
                  </table>
               </div>
            </text>
            <status value="final"/>
            <category>
               <coding>
                  <system value="http://terminology.hl7.org/CodeSystem/observation-category"/>
                  <code value="laboratory"/>
               </coding>
            </category>
            <code>
               <coding>
                  <system value="http://loinc.org"/>
                  <code value="20565-8"/>
                  <display value="Carbon dioxide, total [Moles/volume] in Blood"/>
               </coding>
               <text value="Carbon dioxide, total [Moles/volume] in Blood"/>
            </code>
            <subject>
               <reference value="urn:uuid:bb0da509-ecca-4fc7-8780-563bab3717f0"/>
               <display value="Andrzej Frydrychowicz"/>
            </subject>
            <effectiveDateTime value="2024-08-17T21:33:04Z"/>
            <performer>
               <display value="The Central European Lab"/>
            </performer>
            <valueQuantity>
               <value value="28.8"/>
               <unit value="mmol/L"/>
               <system value="http://unitsofmeasure.org"/>
               <code value="mmol/L"/>
            </valueQuantity>
            <referenceRange>
               <low>
                  <value value="22"/>
                  <system value="http://unitsofmeasure.org"/>
                  <code value="mmol/L"/>
               </low>
            </referenceRange>
            <referenceRange>
               <high>
                  <value value="29"/>
                  <system value="http://unitsofmeasure.org"/>
                  <code value="mmol/L"/>
               </high>
            </referenceRange>
         </Observation>
      </resource>
   </entry>
   <entry>
      <fullUrl value="urn:uuid:be292361-dd54-4156-8bce-497964d0318a"/>
      <resource>
         <DeviceUseStatement>
            <id value="be292361-dd54-4156-8bce-497964d0318a"/>
            <meta>
               <profile value="http://hl7.eu/fhir/eps/StructureDefinition/deviceUseStatement-eu-eps"/>
            </meta>
            <text>
               <status value="generated"/>
               <div xmlns="http://www.w3.org/1999/xhtml">
                  <table class="hl7__ips">
                     <tr>
                        <td>Wheelchair accessory (physical object)</td>
                        <td>
                           <span class="nb">24-Oct-2021</span>
                        </td>
                     </tr>
                  </table>
               </div>
            </text>
            <status value="active"/>
            <subject>
               <reference value="urn:uuid:bb0da509-ecca-4fc7-8780-563bab3717f0"/>
               <display value="Andrzej Frydrychowicz"/>
            </subject>
            <timingPeriod>
               <start value="2021-10-24"/>
            </timingPeriod>
            <device>
               <reference value="urn:uuid:7ea78a05-420d-4ec7-9b6a-472f7f06b7ae"/>
               <display value="Wheelchair accessory (physical object)"/>
            </device>
         </DeviceUseStatement>
      </resource>
   </entry>
   <entry>
      <fullUrl value="urn:uuid:7ea78a05-420d-4ec7-9b6a-472f7f06b7ae"/>
      <resource>
         <Device>
            <id value="7ea78a05-420d-4ec7-9b6a-472f7f06b7ae"/>
            <meta>
               <profile value="http://hl7.eu/fhir/eps/StructureDefinition/device-eu-eps"/>
            </meta>
            <udiCarrier id="(01)81265102470879(11)211003(17)461018(10)23969033933(21)2428600875783264"/>
            <status value="active"/>
            <type>
               <coding>
                  <system value="http://snomed.info/sct"/>
                  <code value="705417005"/>
                  <display value="Wheelchair accessory (physical object)"/>
               </coding>
            </type>
            <patient>
               <reference value="urn:uuid:bb0da509-ecca-4fc7-8780-563bab3717f0"/>
               <display value="Andrzej Frydrychowicz"/>
            </patient>
         </Device>
      </resource>
   </entry>
   <entry>
      <fullUrl value="urn:uuid:7851e28c-cdd0-4b2c-9104-4013ac1a2d81"/>
      <resource>
         <DeviceUseStatement>
            <id value="7851e28c-cdd0-4b2c-9104-4013ac1a2d81"/>
            <meta>
               <profile value="http://hl7.eu/fhir/eps/StructureDefinition/deviceUseStatement-eu-eps"/>
            </meta>
            <text>
               <status value="generated"/>
               <div xmlns="http://www.w3.org/1999/xhtml">
                  <table class="hl7__ips">
                     <tr>
                        <td>Power-assisted wheelchair (physical object)</td>
                        <td>
                           <span class="nb">24-Oct-2021</span>
                        </td>
                     </tr>
                  </table>
               </div>
            </text>
            <status value="active"/>
            <subject>
               <reference value="urn:uuid:bb0da509-ecca-4fc7-8780-563bab3717f0"/>
               <display value="Andrzej Frydrychowicz"/>
            </subject>
            <timingPeriod>
               <start value="2021-10-24"/>
            </timingPeriod>
            <device>
               <reference value="urn:uuid:52cec3e3-b462-47f2-9c7c-419064cc76b3"/>
               <display value="Power-assisted wheelchair (physical object)"/>
            </device>
         </DeviceUseStatement>
      </resource>
   </entry>
   <entry>
      <fullUrl value="urn:uuid:52cec3e3-b462-47f2-9c7c-419064cc76b3"/>
      <resource>
         <Device>
            <id value="52cec3e3-b462-47f2-9c7c-419064cc76b3"/>
            <meta>
               <profile value="http://hl7.eu/fhir/eps/StructureDefinition/device-eu-eps"/>
            </meta>
            <udiCarrier id="(01)83104191389405(11)211003(17)461018(10)60647274056(21)23526"/>
            <status value="active"/>
            <type>
               <coding>
                  <system value="http://snomed.info/sct"/>
                  <code value="705427004"/>
                  <display value="Power-assisted wheelchair (physical object)"/>
               </coding>
            </type>
            <patient>
               <reference value="urn:uuid:bb0da509-ecca-4fc7-8780-563bab3717f0"/>
               <display value="Andrzej Frydrychowicz"/>
            </patient>
         </Device>
      </resource>
   </entry>
   <entry>
      <fullUrl value="urn:uuid:21683fa6-0c60-48f9-8878-883ef15b31ee"/>
      <resource>
         <DeviceUseStatement>
            <id value="21683fa6-0c60-48f9-8878-883ef15b31ee"/>
            <meta>
               <profile value="http://hl7.eu/fhir/eps/StructureDefinition/deviceUseStatement-eu-eps"/>
            </meta>
            <text>
               <status value="generated"/>
               <div xmlns="http://www.w3.org/1999/xhtml">
                  <table class="hl7__ips">
                     <tr>
                        <td>Blood glucose meter (physical object)</td>
                        <td>
                           <span class="nb">20-Aug-2005</span>
                        </td>
                     </tr>
                  </table>
               </div>
            </text>
            <status value="active"/>
            <subject>
               <reference value="urn:uuid:bb0da509-ecca-4fc7-8780-563bab3717f0"/>
               <display value="Andrzej Frydrychowicz"/>
            </subject>
            <timingPeriod>
               <start value="2005-08-20"/>
            </timingPeriod>
            <device>
               <reference value="urn:uuid:296df97a-7fef-4cf2-8281-c3681522c401"/>
               <display value="Blood glucose meter (physical object)"/>
            </device>
         </DeviceUseStatement>
      </resource>
   </entry>
   <entry>
      <fullUrl value="urn:uuid:296df97a-7fef-4cf2-8281-c3681522c401"/>
      <resource>
         <Device>
            <id value="296df97a-7fef-4cf2-8281-c3681522c401"/>
            <meta>
               <profile value="http://hl7.eu/fhir/eps/StructureDefinition/device-eu-eps"/>
            </meta>
            <udiCarrier id="(01)64628332550125(11)050730(17)300814(10)25650(21)91846314019"/>
            <status value="active"/>
            <type>
               <coding>
                  <system value="http://snomed.info/sct"/>
                  <code value="337414009"/>
                  <display value="Blood glucose meter (physical object)"/>
               </coding>
            </type>
            <patient>
               <reference value="urn:uuid:bb0da509-ecca-4fc7-8780-563bab3717f0"/>
               <display value="Andrzej Frydrychowicz"/>
            </patient>
         </Device>
      </resource>
   </entry>
   <entry>
      <fullUrl value="urn:uuid:47f66ae9-7dbf-4103-8404-8557ddf431c1"/>
      <resource>
         <Device>
            <id value="47f66ae9-7dbf-4103-8404-8557ddf431c1"/>
            <text>
               <status value="generated"/>
               <div xmlns="http://www.w3.org/1999/xhtml">SYNDERAI Synthetic Generator v5.0</div>
            </text>
            <status value="active&#34;"/>
            <distinctIdentifier value="synderai-generator-50"/>
            <manufacturer value="SYNDERAI Project"/>
            <deviceName>
               <name value="SYNDERAI Synthetic Generator"/>
               <type value="manufacturer-name"/>
            </deviceName>
            <version>
               <value value="5.0"/>
            </version>
         </Device>
      </resource>
   </entry>
   <entry>
      <fullUrl value="urn:uuid:7bc7a774-36fe-4633-a022-14fe4af571e5"/>
      <resource>
         <Provenance>
            <id value="7bc7a774-36fe-4633-a022-14fe4af571e5"/>
            <text>
               <status value="generated"/>
               <div xmlns="http://www.w3.org/1999/xhtml">Provenance for SYNDERAI Synthetic Example Data Resource</div>
            </text>
            <target>
               <reference value="Patient/bb0da509-ecca-4fc7-8780-563bab3717f0"/>
            </target>
            <target>
               <reference value="Bundle/966c1135-058f-43b1-9de2-d7d3c2e486ab"/>
            </target>
            <target>
               <reference value="Composition/2174c262-cbd5-4677-96a8-e5f2218573d0"/>
            </target>
            <target>
               <reference value="PractitionerRole/9b8efac9-6231-45ea-a244-982a2796e2d4"/>
            </target>
            <target>
               <reference value="Organization/216a1394-ed04-48ff-a3b0-249e8d9de0e5"/>
            </target>
            <target>
               <reference value="Practitioner/aca8bed2-ba82-4f00-afa9-c013901ab202"/>
            </target>
            <recorded value="2024-08-17T21:33:04Z"/>
            <policy value="https://synderai.net/synderai-synthetic-data-policy"/>
            <reason>
               <text value="Interoperability Testing and Training (non-clinical use)"/>
            </reason>
            <activity>
               <text value="Synthetic Example Data Generation"/>
            </activity>
            <agent>
               <type>
                  <text value="author"/>
               </type>
               <who>
                  <reference value="Device/47f66ae9-7dbf-4103-8404-8557ddf431c1"/>
               </who>
            </agent>
         </Provenance>
      </resource>
   </entry>
</Bundle>