{
  "resourceType": "Bundle",
  "id": "cd0c7f74-c4bc-43bb-aa27-f1dc3beffcea",
  "meta": {
    "profile": [
      "http://hl7.eu/fhir/eps/StructureDefinition/bundle-eu-eps"
    ]
  },
  "identifier": {
    "assigner": {
      "display": "HL7 Europe"
    },
    "system": "urn:oid:2.16.840.1.113883.2.51.999",
    "value": "eebd7937-cbd0-43b4-a0aa-d0cc7254dadf"
  },
  "entry": [
    {
      "fullUrl": "urn:uuid:0266a7dc-14d8-4fb9-9eb2-781d57fdb605",
      "resource": {
        "resourceType": "Composition",
        "id": "0266a7dc-14d8-4fb9-9eb2-781d57fdb605",
        "meta": {
          "security": [
            {
              "system": "http://terminology.hl7.org/CodeSystem/v3-ActReason",
              "code": "HTEST"
            },
            {
              "system": "http://terminology.hl7.org/CodeSystem/v3-ActReason",
              "code": "TRAIN"
            }
          ],
          "tag": [
            {
              "system": "https://synderai.net/fhir/CodeSystem/tags",
              "code": "synthetic",
              "display": "SYNDERAI Synthetic data"
            }
          ],
          "profile": [
            "http://hl7.eu/fhir/eps/StructureDefinition/composition-eu-eps"
          ]
        },
        "identifier": {
          "assigner": {
            "display": "HL7 Europe"
          },
          "system": "urn:oid:2.16.840.1.113883.2.51.999",
          "value": "07cf3fbf-6218-44da-89c2-62ad030ef8c1"
        },
        "type": {
          "coding": [
            {
              "system": "http://loinc.org",
              "code": "60591-5",
              "display": "Patient summary Document"
            }
          ],
          "text": "Patient summary Document"
        },
        "author": [
          {
            "reference": "urn:uuid:e8232f6b-837d-496a-ac00-efc47d995f78"
          }
        ],
        "section": [
          {
            "text": {
              "status": "generated",
              "div": "<div xmlns=\"http://www.w3.org/1999/xhtml\"><table class=\"hl7__ips\"><tr><th>Condition</th><th>Onset Date</th><th>Status</th></tr><tr><td>Anemia</td><td><span class=\"nb\">30-Dec-2004</span></td><td>active</td></tr><tr><td>Prediabetes</td><td><span class=\"nb\">14-Mar-2002</span></td><td>active</td></tr></table></div>"
            },
            "entry": [
              {
                "reference": "urn:uuid:e8975996-7e68-425c-ad8c-8738013f45ae"
              },
              {
                "reference": "urn:uuid:106c286d-7cc2-4d78-864c-4ae23f16678b"
              }
            ],
            "code": {
              "coding": [
                {
                  "system": "http://loinc.org",
                  "code": "11450-4",
                  "display": "Problem list - Reported"
                }
              ]
            },
            "title": "Problem list"
          },
          {
            "text": {
              "status": "generated",
              "div": "<div xmlns=\"http://www.w3.org/1999/xhtml\"><table class=\"hl7__ips\"><tr><th>Medication</th><th>Since</th><th>Form</th><th>Dosage</th><th>Reason</th></tr><tr><td>Vitamin B12 5 MG/ML Injectable Solution</td><td><span class=\"nb\">2005-01-06</span></td><td>-</td><td>5 mg (1 mL) by intramuscular injection once weekly</td><td>-</td></tr></table></div>"
            },
            "entry": [
              {
                "reference": "urn:uuid:6114adaf-91dd-4765-8def-0b669db6eeed"
              }
            ],
            "code": {
              "coding": [
                {
                  "system": "http://loinc.org",
                  "code": "10160-0",
                  "display": "History of Medication use Narrative"
                }
              ]
            },
            "title": "Medication list"
          },
          {
            "text": {
              "status": "generated",
              "div": "<div xmlns=\"http://www.w3.org/1999/xhtml\"><table class=\"hl7__ips\"><tr><th>Vaccine</th><th>Date</th></tr><tr><td>Influenza virus antigen only vaccine product</td><td><span class=\"nb\">18-Jul-2024</span></td></tr><tr><td>SARS-CoV-2 mRNA vaccine</td><td><span class=\"nb\">15-Apr-2021</span></td></tr><tr><td>Clostridium tetani toxoid antigen adsorbed only vaccine product</td><td><span class=\"nb\">31-Dec-2015</span></td></tr><tr><td>Live attenuated Human alphaherpesvirus 3 only vaccine product</td><td><span class=\"nb\">31-Dec-2015</span></td></tr></table></div>"
            },
            "entry": [
              {
                "reference": "urn:uuid:2cbc85ef-de1b-40cb-b7b2-5aa825aeb96f"
              },
              {
                "reference": "urn:uuid:1c3f6e43-e244-48cd-b833-d1ede5185875"
              },
              {
                "reference": "urn:uuid:4e9f2a64-91dc-4f7d-8785-edf3de3502aa"
              },
              {
                "reference": "urn:uuid:09f857c2-76d3-461a-80b7-dd802e0d8f45"
              }
            ],
            "code": {
              "coding": [
                {
                  "system": "http://loinc.org",
                  "code": "11369-6",
                  "display": "History of Immunization note"
                }
              ]
            },
            "title": "Immunizations list"
          },
          {
            "text": {
              "status": "generated",
              "div": "<div xmlns=\"http://www.w3.org/1999/xhtml\"><table class=\"hl7__ips\"><tr><th>Allergy/Intolerance</th><th>Onset Date</th><th>Status</th><th>Type</th><th>Reaction</th></tr><tr><td>Live attenuated Varicella-zoster vaccine</td><td>?</td><td>active</td><td>?</td><td></td></tr></table></div>"
            },
            "entry": [
              {
                "reference": "urn:uuid:88141bcd-095b-42bb-9fd5-33bb7f26e9fc"
              }
            ],
            "code": {
              "coding": [
                {
                  "system": "http://loinc.org",
                  "code": "48765-2",
                  "display": "Allergies and adverse reactions Document"
                }
              ]
            },
            "title": "Allergies and Intolerances"
          },
          {
            "text": {
              "status": "generated",
              "div": "<div xmlns=\"http://www.w3.org/1999/xhtml\"><table class=\"hl7__ips\"><tr><th>Active Planned Care / Goals</th><th>Start Date</th><th>Reason</th></tr><tr><td>Diabetes self management plan</td><td><span class=\"nb\">14-Mar-2002</span></td><td>Prediabetes</td></tr><tr><td><ul><li>Patient will implement a diabetes self-management plan to reduce risk of progression to diabetes.</li></ul></td><td></td><td></td></tr></table></div>"
            },
            "entry": [
              {
                "reference": "urn:uuid:49fae690-c1f1-45af-b2e9-71175381c7ed"
              }
            ],
            "code": {
              "coding": [
                {
                  "system": "http://loinc.org",
                  "code": "18776-5",
                  "display": "Plan of care note"
                }
              ]
            },
            "title": "Care Plan"
          },
          {
            "text": {
              "status": "generated",
              "div": "<div xmlns=\"http://www.w3.org/1999/xhtml\"><table class=\"hl7__ips\"><tr><th>Vital Signs</th><th>2025-02-20</th><th>2024-07-18</th></tr><tr><td>Body Height</td><td>181 cm</td><td>181 cm</td></tr><tr><td>Pain severity - 0-10 verbal numeric rating [Score] - Reported</td><td>3 {score}</td><td>1 {score}</td></tr><tr><td>Body Weight</td><td>90.2 kg</td><td>90.2 kg</td></tr><tr><td>Body mass index (BMI) [Ratio]</td><td>27.5 kg/m2</td><td>27.5 kg/m2</td></tr><tr><td>Diastolic Blood Pressure</td><td>78 mm[Hg]</td><td>76 mm[Hg]</td></tr><tr><td>Systolic Blood Pressure</td><td>135 mm[Hg]</td><td>128 mm[Hg]</td></tr><tr><td>Heart rate</td><td>61 /min</td><td>92 /min</td></tr><tr><td>Respiratory rate</td><td>15 /min</td><td>16 /min</td></tr></table></div>"
            },
            "entry": [
              {
                "reference": "urn:uuid:fb0c7dec-3eb5-4922-9859-e3caa1bc6a91"
              },
              {
                "reference": "urn:uuid:1e477b1f-aaed-4d53-b049-9087bd3ea7d0"
              },
              {
                "reference": "urn:uuid:2861ab03-b30e-47d1-9ace-e7d71d21f50b"
              },
              {
                "reference": "urn:uuid:2bcd8cab-19da-4287-9716-09a3a58ee427"
              },
              {
                "reference": "urn:uuid:e8dce0d5-0245-41ef-b28a-1c1fbacb70a5"
              },
              {
                "reference": "urn:uuid:4dd0d95f-cc58-410a-9bc5-7959834929c3"
              },
              {
                "reference": "urn:uuid:1cb899b9-7333-4e3e-bb06-01ca4b845862"
              },
              {
                "reference": "urn:uuid:75965ebe-2c62-4734-b7bb-e1862ea2b557"
              },
              {
                "reference": "urn:uuid:b513f217-c41d-4bbb-a1dd-71e3dbc4108c"
              },
              {
                "reference": "urn:uuid:57bedbb7-c8fc-4c50-bb46-4c3949e0e103"
              },
              {
                "reference": "urn:uuid:48c84079-5ff6-4bdb-b975-9e6ba7339c6b"
              },
              {
                "reference": "urn:uuid:5d62897c-3690-4671-932b-bc7a26191e8e"
              },
              {
                "reference": "urn:uuid:5cec5516-a2db-42ac-84f2-e80cc15a9ad0"
              },
              {
                "reference": "urn:uuid:94c696b1-5d85-4e9d-8dc6-8b640534779f"
              },
              {
                "reference": "urn:uuid:d8dd2f92-213e-481e-a546-74c97b84568c"
              },
              {
                "reference": "urn:uuid:9d55a481-08b2-4a4f-a01f-f43f207b2487"
              }
            ],
            "code": {
              "coding": [
                {
                  "system": "http://loinc.org",
                  "code": "8716-3",
                  "display": "Vital signs note"
                }
              ]
            },
            "title": "Vital Signs"
          },
          {
            "text": {
              "status": "generated",
              "div": "<div xmlns=\"http://www.w3.org/1999/xhtml\"><table class=\"hl7__ips\"><table class=\"hl7__ips\"><thead><tr><th>Recent Lab Observations</th><th>20-FEB-2025</th><th>Reference&#xA0;Range</th><th>Unit</th></tr></thead><tbody><tr><td>Hemoglobin A1c/Hemoglobin.total in Blood</td><td>5.8</td><td>4.5 - 6.4</td><td>%</td></tr><tr><td>Glucose [Mass/volume] in Blood</td><td>95.3</td><td>70 - 99</td><td>mg/dL</td></tr><tr><td>Urea nitrogen [Mass/volume] in Blood</td><td>16.2</td><td>7 - 20</td><td>mg/dL</td></tr><tr><td>Creatinine [Mass/volume] in Blood</td><td>1.3</td><td>0.7 - 1.3</td><td>mg/dL</td></tr><tr><td>Calcium [Mass/volume] in Blood</td><td>9.3</td><td>8.5 - 10.5</td><td>mg/dL</td></tr><tr><td>Sodium [Moles/volume] in Blood</td><td>142.8</td><td>135 - 145</td><td>mmol/L</td></tr><tr><td>Potassium [Moles/volume] in Blood</td><td>4.0</td><td>3.5 - 5.3</td><td>mmol/L</td></tr><tr><td>Chloride [Moles/volume] in Blood</td><td>110.0</td><td>98 - 110</td><td>mmol/L</td></tr><tr><td>Carbon dioxide, total [Moles/volume] in Blood</td><td>25.6</td><td>22 - 29</td><td>mmol/L</td></tr></tbody></table></table></div>"
            },
            "entry": [
              {
                "reference": "urn:uuid:9977130c-bd6f-4436-8ca9-71ddd309807e"
              },
              {
                "reference": "urn:uuid:921cd4eb-7bf9-41bc-a777-12ed3f04cd85"
              },
              {
                "reference": "urn:uuid:c029d5a8-bb9c-4daa-849a-01e5f286595b"
              },
              {
                "reference": "urn:uuid:d317873e-42fe-48ac-906d-d79733a9194c"
              },
              {
                "reference": "urn:uuid:e2b8af6b-21d7-4990-ac6f-ed7dede68fa6"
              },
              {
                "reference": "urn:uuid:554dc51d-c42e-4290-bea0-d0cf41ce3ebf"
              },
              {
                "reference": "urn:uuid:bccb3e5b-61e8-4331-a88e-2d23cd13eae6"
              },
              {
                "reference": "urn:uuid:fbd64935-9599-49fc-8b0d-a63ada40869c"
              },
              {
                "reference": "urn:uuid:b4699bb1-a94a-40b2-abef-5249aea38d23"
              }
            ],
            "code": {
              "coding": [
                {
                  "system": "http://loinc.org",
                  "code": "30954-2",
                  "display": "Relevant diagnostic tests/laboratory data note"
                }
              ]
            },
            "title": "Relevant diagnostic tests/laboratory data"
          },
          {
            "text": {
              "status": "generated",
              "div": "<div xmlns=\"http://www.w3.org/1999/xhtml\"><table class=\"hl7__ips\"><tr><th>Device</th><th>Date (since)</th></tr><tr><td>Blood glucose meter (physical object)</td><td><span class=\"nb\">14-Mar-2002</span></td></tr></table></div>"
            },
            "entry": [
              {
                "reference": "urn:uuid:96e3a339-bf65-459a-9463-dcafcf9016e7"
              }
            ],
            "code": {
              "coding": [
                {
                  "system": "http://loinc.org",
                  "code": "46264-8",
                  "display": "History of medical device use"
                }
              ]
            },
            "title": "Device Use"
          }
        ],
        "title": "European Patient Summary",
        "status": "final",
        "subject": {
          "reference": "urn:uuid:d0bda50a-9828-40f3-b4e1-a8256b908e2f",
          "display": "Alfred Rémy"
        },
        "custodian": {
          "reference": "urn:uuid:45edbf36-42ed-47b3-99b6-a961d2415318"
        },
        "date": "2025-02-20",
        "confidentiality": "N"
      }
    },
    {
      "fullUrl": "urn:uuid:d0bda50a-9828-40f3-b4e1-a8256b908e2f",
      "resource": {
        "resourceType": "Patient",
        "id": "d0bda50a-9828-40f3-b4e1-a8256b908e2f",
        "meta": {
          "security": [
            {
              "system": "http://terminology.hl7.org/CodeSystem/v3-ActReason",
              "code": "HTEST"
            },
            {
              "system": "http://terminology.hl7.org/CodeSystem/v3-ActReason",
              "code": "TRAIN"
            }
          ],
          "tag": [
            {
              "system": "https://synderai.net/fhir/CodeSystem/tags",
              "code": "synthetic",
              "display": "SYNDERAI Synthetic data"
            }
          ],
          "profile": [
            "http://hl7.eu/fhir/eps/StructureDefinition/patient-eu-eps"
          ]
        },
        "identifier": [
          {
            "type": {
              "coding": [
                {
                  "code": "PT",
                  "system": "http://terminology.hl7.org/CodeSystem/v2-0203"
                }
              ]
            },
            "system": "http://ec.europa.eu/identifier/eci",
            "value": "9962-084919-2"
          },
          {
            "type": {
              "coding": [
                {
                  "code": "MR",
                  "system": "http://terminology.hl7.org/CodeSystem/v2-0203"
                }
              ]
            },
            "system": "http://local.setting.eu/identifier",
            "value": "cc3b7d7f-bed4-5811-99b9-3468e2f4203c"
          }
        ],
        "name": [
          {
            "family": "Rémy"
          },
          {
            "given": [
              "Alfred"
            ]
          },
          {
            "text": "Alfred Rémy"
          }
        ],
        "address": [
          {
            "line": [
              "88, rue de Jacquot"
            ],
            "use": "home",
            "type": "physical",
            "postalCode": "75018",
            "city": "Paris",
            "country": "France"
          }
        ],
        "telecom": [
          {
            "system": "phone",
            "value": "+33 (0)4 73 74 17 67"
          }
        ],
        "extension": [
          {
            "url": "http://hl7.org/fhir/StructureDefinition/patient-nationality",
            "valueCodeableConcept": {
              "coding": [
                {
                  "code": "FR",
                  "system": "http://hl7.org/fhir/ValueSet/country"
                }
              ]
            }
          }
        ],
        "text": {
          "status": "generated",
          "div": "<div xmlns=\"http://www.w3.org/1999/xhtml\"><table class=\"hl7__ips\"><tr><td>Alfred Rémy</td><td>male</td><td>05-Jul-1967</td></tr></table></div>"
        },
        "gender": "male",
        "birthDate": "1967-07-05"
      }
    },
    {
      "fullUrl": "urn:uuid:e8232f6b-837d-496a-ac00-efc47d995f78",
      "resource": {
        "resourceType": "PractitionerRole",
        "id": "e8232f6b-837d-496a-ac00-efc47d995f78",
        "meta": {
          "profile": [
            "http://hl7.eu/fhir/base/StructureDefinition/practitionerRole-eu"
          ]
        },
        "text": {
          "status": "generated",
          "div": "<div xmlns=\"http://www.w3.org/1999/xhtml\"><table class=\"hl7__ips\">Provider Role Id e8232f6b-837d-496a-ac00-efc47d995f78</table></div>"
        },
        "practitioner": {
          "reference": "urn:uuid:245cc87a-0b4e-4c80-931e-51f4f0c49531"
        },
        "organization": {
          "reference": "urn:uuid:45edbf36-42ed-47b3-99b6-a961d2415318"
        }
      }
    },
    {
      "fullUrl": "urn:uuid:245cc87a-0b4e-4c80-931e-51f4f0c49531",
      "resource": {
        "resourceType": "Practitioner",
        "id": "245cc87a-0b4e-4c80-931e-51f4f0c49531",
        "meta": {
          "profile": [
            "http://hl7.eu/fhir/base/StructureDefinition/practitioner-eu"
          ]
        },
        "name": [
          {
            "prefix": [
              "Dr."
            ],
            "given": [
              "Hel"
            ],
            "family": "Ping"
          }
        ],
        "text": {
          "status": "generated",
          "div": "<div xmlns=\"http://www.w3.org/1999/xhtml\"><table class=\"hl7__ips\">Dr. Hel Ping</table></div>"
        }
      }
    },
    {
      "fullUrl": "urn:uuid:45edbf36-42ed-47b3-99b6-a961d2415318",
      "resource": {
        "resourceType": "Organization",
        "id": "45edbf36-42ed-47b3-99b6-a961d2415318",
        "meta": {
          "profile": [
            "http://hl7.eu/fhir/base/StructureDefinition/organization-eu"
          ]
        },
        "identifier": [
          {
            "assigner": {
              "display": "HL7 Europe"
            },
            "system": "urn:oid:2.16.840.1.113883.2.51.999",
            "value": "362ba4fe-d26b-483c-acc8-6e2ab74d758c"
          }
        ],
        "address": [
          {
            "city": "Paris",
            "postalCode": "75005",
            "country": "France"
          }
        ],
        "text": {
          "status": "generated",
          "div": "<div xmlns=\"http://www.w3.org/1999/xhtml\"><table class=\"hl7__ips\">Maison des parents Irène Joliot-Curie</table></div>"
        },
        "name": "Maison des parents Irène Joliot-Curie"
      }
    },
    {
      "fullUrl": "urn:uuid:e8975996-7e68-425c-ad8c-8738013f45ae",
      "resource": {
        "resourceType": "Condition",
        "id": "e8975996-7e68-425c-ad8c-8738013f45ae",
        "meta": {
          "profile": [
            "http://hl7.org/fhir/uv/ips/StructureDefinition/Condition-uv-ips"
          ]
        },
        "category": [
          {
            "coding": [
              {
                "code": "problem-list-item",
                "system": "http://terminology.hl7.org/CodeSystem/condition-category",
                "display": "Problem List Item"
              }
            ]
          }
        ],
        "code": {
          "coding": [
            {
              "code": "271737000",
              "system": "http://snomed.info/sct",
              "display": "Anemia (disorder)"
            }
          ],
          "text": "Anemia"
        },
        "text": {
          "status": "generated",
          "div": "<div xmlns=\"http://www.w3.org/1999/xhtml\"><table class=\"hl7__ips\"><tr><td>Anemia</td><td><span class=\"nb\">30-Dec-2004</span></td><td>active</td></tr></table></div>"
        },
        "onsetDateTime": "2004-12-30",
        "subject": {
          "reference": "urn:uuid:",
          "display": "Alfred Rémy"
        },
        "asserter": {
          "reference": "urn:uuid:",
          "display": "Maison des parents Irène Joliot-Curie"
        }
      }
    },
    {
      "fullUrl": "urn:uuid:106c286d-7cc2-4d78-864c-4ae23f16678b",
      "resource": {
        "resourceType": "Condition",
        "id": "106c286d-7cc2-4d78-864c-4ae23f16678b",
        "meta": {
          "profile": [
            "http://hl7.org/fhir/uv/ips/StructureDefinition/Condition-uv-ips"
          ]
        },
        "category": [
          {
            "coding": [
              {
                "code": "problem-list-item",
                "system": "http://terminology.hl7.org/CodeSystem/condition-category",
                "display": "Problem List Item"
              }
            ]
          }
        ],
        "code": {
          "coding": [
            {
              "code": "15777000",
              "system": "http://snomed.info/sct",
              "display": "Prediabetes (disorder)"
            }
          ],
          "text": "Prediabetes"
        },
        "text": {
          "status": "generated",
          "div": "<div xmlns=\"http://www.w3.org/1999/xhtml\"><table class=\"hl7__ips\"><tr><td>Prediabetes</td><td><span class=\"nb\">14-Mar-2002</span></td><td>active</td></tr></table></div>"
        },
        "onsetDateTime": "2002-03-14",
        "subject": {
          "reference": "urn:uuid:",
          "display": "Alfred Rémy"
        },
        "asserter": {
          "reference": "urn:uuid:",
          "display": "Maison des parents Irène Joliot-Curie"
        }
      }
    },
    {
      "fullUrl": "urn:uuid:c49182ba-5786-4e9e-bc36-7e9e7101b0e5",
      "resource": {
        "resourceType": "Condition",
        "id": "c49182ba-5786-4e9e-bc36-7e9e7101b0e5",
        "meta": {
          "profile": [
            "http://hl7.org/fhir/uv/ips/StructureDefinition/Condition-uv-ips"
          ]
        },
        "category": [
          {
            "coding": [
              {
                "code": "problem-list-item",
                "system": "http://terminology.hl7.org/CodeSystem/condition-category",
                "display": "Problem List Item"
              }
            ]
          }
        ],
        "code": {
          "coding": [
            {
              "code": "10509002",
              "system": "http://snomed.info/sct",
              "display": "Acute bronchitis (disorder)"
            }
          ],
          "text": "Acute bronchitis"
        },
        "text": {
          "status": "generated",
          "div": "<div xmlns=\"http://www.w3.org/1999/xhtml\"><table class=\"hl7__ips\"><tr><td><span class=\"grayedout\">Acute bronchitis</span></td><td><span class=\"nb\">25-Jul-2024 - 06-Aug-2024</span></td><td><span class=\"grayedout\">inactive</span></td></tr></table></div>"
        },
        "onsetDateTime": "2024-07-25",
        "abatementDateTime": "2024-08-06",
        "subject": {
          "reference": "urn:uuid:",
          "display": "Alfred Rémy"
        },
        "asserter": {
          "reference": "urn:uuid:",
          "display": "Maison des parents Irène Joliot-Curie"
        }
      }
    },
    {
      "fullUrl": "urn:uuid:eeacb41f-6b6c-41b5-9936-9129a4071f17",
      "resource": {
        "resourceType": "Condition",
        "id": "eeacb41f-6b6c-41b5-9936-9129a4071f17",
        "meta": {
          "profile": [
            "http://hl7.org/fhir/uv/ips/StructureDefinition/Condition-uv-ips"
          ]
        },
        "category": [
          {
            "coding": [
              {
                "code": "problem-list-item",
                "system": "http://terminology.hl7.org/CodeSystem/condition-category",
                "display": "Problem List Item"
              }
            ]
          }
        ],
        "code": {
          "coding": [
            {
              "code": "68496003",
              "system": "http://snomed.info/sct",
              "display": "Polyp of colon (disorder)"
            }
          ],
          "text": "Polyp of colon"
        },
        "text": {
          "status": "generated",
          "div": "<div xmlns=\"http://www.w3.org/1999/xhtml\"><table class=\"hl7__ips\"><tr><td><span class=\"grayedout\">Polyp of colon</span></td><td><span class=\"nb\">01-Jan-2015 - 29-Feb-2016</span></td><td><span class=\"grayedout\">inactive</span></td></tr></table></div>"
        },
        "onsetDateTime": "2015-01-01",
        "abatementDateTime": "2016-02-29",
        "subject": {
          "reference": "urn:uuid:",
          "display": "Alfred Rémy"
        },
        "asserter": {
          "reference": "urn:uuid:",
          "display": "Maison des parents Irène Joliot-Curie"
        }
      }
    },
    {
      "fullUrl": "urn:uuid:2a790639-d237-4193-b268-c51d71081a3e",
      "resource": {
        "resourceType": "Medication",
        "id": "2a790639-d237-4193-b268-c51d71081a3e",
        "meta": {
          "profile": [
            "http://hl7.eu/fhir/eps/StructureDefinition/Medication-eu-eps"
          ]
        },
        "code": {
          "coding": [
            {
              "code": "2001499",
              "system": "http://www.nlm.nih.gov/research/umls/rxnorm",
              "display": "Vitamin B12 5 MG/ML Injectable Solution"
            }
          ],
          "text": "Vitamin B12 5 MG/ML Injectable Solution"
        },
        "text": {
          "status": "generated",
          "div": "<div xmlns=\"http://www.w3.org/1999/xhtml\">Vitamin B12 5 MG/ML Injectable Solution</div>"
        }
      }
    },
    {
      "fullUrl": "urn:uuid:6114adaf-91dd-4765-8def-0b669db6eeed",
      "resource": {
        "resourceType": "MedicationStatement",
        "id": "6114adaf-91dd-4765-8def-0b669db6eeed",
        "meta": {
          "profile": [
            "http://hl7.eu/fhir/eps/StructureDefinition/MedicationStatement-eu-eps"
          ]
        },
        "effectivePeriod": {
          "start": "2005-01-06"
        },
        "dosage": [
          {
            "doseAndRate": [
              {
                "doseQuantity": {
                  "value": 5,
                  "unit": "mg",
                  "code": "mg"
                }
              }
            ],
            "timing": {
              "repeat": {
                "frequency": 1,
                "period": 1,
                "periodUnit": "wk"
              }
            },
            "text": "5 mg (1 mL) by intramuscular injection once weekly",
            "asNeededBoolean": false
          }
        ],
        "text": {
          "status": "generated",
          "div": "<div xmlns=\"http://www.w3.org/1999/xhtml\"><table class=\"hl7__ips first25\"><tr><th>Medication</th><th>Since</th><th>Form</th><th>Dosage</th><th>Reason</th></tr><tr><td>Vitamin B12 5 MG/ML Injectable Solution</td><td><span class=\"nb\">2005-01-06</span></td><td>-</td><td>5 mg (1 mL) by intramuscular injection once weekly</td><td>-</td></tr></table></div>"
        },
        "status": "active",
        "medicationReference": {
          "reference": "urn:uuid:2a790639-d237-4193-b268-c51d71081a3e",
          "display": "Vitamin B12 5 MG/ML Injectable Solution"
        },
        "subject": {
          "reference": "urn:uuid:d0bda50a-9828-40f3-b4e1-a8256b908e2f",
          "display": "Alfred Rémy"
        }
      }
    },
    {
      "fullUrl": "urn:uuid:2cbc85ef-de1b-40cb-b7b2-5aa825aeb96f",
      "resource": {
        "resourceType": "Immunization",
        "id": "2cbc85ef-de1b-40cb-b7b2-5aa825aeb96f",
        "meta": {
          "profile": [
            "http://hl7.org/fhir/uv/ips/StructureDefinition/Immunization-uv-ips"
          ]
        },
        "vaccineCode": {
          "coding": [
            {
              "code": "1181000221105",
              "system": "http://snomed.info/sct",
              "display": "Vaccine product containing Influenza virus antigen"
            },
            {
              "code": "J07BB02",
              "system": "http://www.whocc.no/atc",
              "display": "Influenza, inactivated, split virus"
            }
          ],
          "text": "Influenza virus antigen only vaccine product"
        },
        "site": {
          "coding": [
            {
              "code": "244979005",
              "system": "http://snomed.info/sct",
              "display": "Entire muscle of upper arm"
            }
          ],
          "text": "Entire muscle of upper arm"
        },
        "route": {
          "coding": [
            {
              "code": "78421000",
              "system": "http://snomed.info/sct",
              "display": "Intramuscular route"
            }
          ],
          "text": "Intramuscular route"
        },
        "text": {
          "status": "generated",
          "div": "<div xmlns=\"http://www.w3.org/1999/xhtml\"><table class=\"hl7__ips\"><tr><td>Influenza virus antigen only vaccine product</td><td><span class=\"nb\">18-Jul-2024</span></td></tr></table></div>"
        },
        "status": "completed",
        "patient": {
          "reference": "urn:uuid:d0bda50a-9828-40f3-b4e1-a8256b908e2f",
          "display": "Alfred Rémy"
        },
        "occurrenceDateTime": "2024-07-18",
        "lotNumber": "LN-AiZ2z62N",
        "expirationDate": "2025-01-29"
      }
    },
    {
      "fullUrl": "urn:uuid:1c3f6e43-e244-48cd-b833-d1ede5185875",
      "resource": {
        "resourceType": "Immunization",
        "id": "1c3f6e43-e244-48cd-b833-d1ede5185875",
        "meta": {
          "profile": [
            "http://hl7.org/fhir/uv/ips/StructureDefinition/Immunization-uv-ips"
          ]
        },
        "vaccineCode": {
          "coding": [
            {
              "code": "1119349007",
              "system": "http://snomed.info/sct",
              "display": "Vaccine product containing SARS-CoV-2 mRNA"
            },
            {
              "code": "J07BX03",
              "system": "http://www.whocc.no/atc",
              "display": "COVID-19 mRNA vaccines"
            }
          ],
          "text": "SARS-CoV-2 mRNA vaccine"
        },
        "site": {
          "coding": [
            {
              "code": "244979005",
              "system": "http://snomed.info/sct",
              "display": "Entire muscle of upper arm"
            }
          ],
          "text": "Entire muscle of upper arm"
        },
        "route": {
          "coding": [
            {
              "code": "78421000",
              "system": "http://snomed.info/sct",
              "display": "Intramuscular route"
            }
          ],
          "text": "Intramuscular route"
        },
        "text": {
          "status": "generated",
          "div": "<div xmlns=\"http://www.w3.org/1999/xhtml\"><table class=\"hl7__ips\"><tr><td>SARS-CoV-2 mRNA vaccine</td><td><span class=\"nb\">15-Apr-2021</span></td></tr></table></div>"
        },
        "status": "completed",
        "patient": {
          "reference": "urn:uuid:d0bda50a-9828-40f3-b4e1-a8256b908e2f",
          "display": "Alfred Rémy"
        },
        "occurrenceDateTime": "2021-04-15",
        "lotNumber": "IS-TUm8hg4",
        "expirationDate": "2022-04-14"
      }
    },
    {
      "fullUrl": "urn:uuid:4e9f2a64-91dc-4f7d-8785-edf3de3502aa",
      "resource": {
        "resourceType": "Immunization",
        "id": "4e9f2a64-91dc-4f7d-8785-edf3de3502aa",
        "meta": {
          "profile": [
            "http://hl7.org/fhir/uv/ips/StructureDefinition/Immunization-uv-ips"
          ]
        },
        "vaccineCode": {
          "coding": [
            {
              "code": "777725002",
              "system": "http://snomed.info/sct",
              "display": "Vaccine product containing only Clostridium tetani toxoid antigen adsorbed"
            },
            {
              "code": "J07AM51",
              "system": "http://www.whocc.no/atc",
              "display": "Diphtheria-tetanus vaccines, adult type"
            }
          ],
          "text": "Clostridium tetani toxoid antigen adsorbed only vaccine product"
        },
        "site": {
          "coding": [
            {
              "code": "244979005",
              "system": "http://snomed.info/sct",
              "display": "Entire muscle of upper arm"
            }
          ],
          "text": "Entire muscle of upper arm"
        },
        "route": {
          "coding": [
            {
              "code": "78421000",
              "system": "http://snomed.info/sct",
              "display": "Intramuscular route"
            }
          ],
          "text": "Intramuscular route"
        },
        "text": {
          "status": "generated",
          "div": "<div xmlns=\"http://www.w3.org/1999/xhtml\"><table class=\"hl7__ips\"><tr><td>Clostridium tetani toxoid antigen adsorbed only vaccine product</td><td><span class=\"nb\">31-Dec-2015</span></td></tr></table></div>"
        },
        "status": "completed",
        "patient": {
          "reference": "urn:uuid:d0bda50a-9828-40f3-b4e1-a8256b908e2f",
          "display": "Alfred Rémy"
        },
        "occurrenceDateTime": "2015-12-31",
        "lotNumber": "TH-ZDJfGgpv",
        "expirationDate": "2016-08-04"
      }
    },
    {
      "fullUrl": "urn:uuid:09f857c2-76d3-461a-80b7-dd802e0d8f45",
      "resource": {
        "resourceType": "Immunization",
        "id": "09f857c2-76d3-461a-80b7-dd802e0d8f45",
        "meta": {
          "profile": [
            "http://hl7.org/fhir/uv/ips/StructureDefinition/Immunization-uv-ips"
          ]
        },
        "vaccineCode": {
          "coding": [
            {
              "code": "2221000221107",
              "system": "http://snomed.info/sct",
              "display": "Live attenuated Varicella-zoster vaccine"
            },
            {
              "code": "J07BK02",
              "system": "http://www.whocc.no/atc",
              "display": "Varicella-zoster vaccines"
            }
          ],
          "text": "Live attenuated Human alphaherpesvirus 3 only vaccine product"
        },
        "site": {
          "coding": [
            {
              "code": "368208006",
              "system": "http://snomed.info/sct",
              "display": "Left upper arm structure"
            }
          ],
          "text": "Left upper arm structure"
        },
        "route": {
          "coding": [
            {
              "code": "34206005",
              "system": "http://snomed.info/sct",
              "display": "Subcutaneous route"
            }
          ],
          "text": "Subcutaneous route"
        },
        "text": {
          "status": "generated",
          "div": "<div xmlns=\"http://www.w3.org/1999/xhtml\"><table class=\"hl7__ips\"><tr><td>Live attenuated Human alphaherpesvirus 3 only vaccine product</td><td><span class=\"nb\">31-Dec-2015</span></td></tr></table></div>"
        },
        "status": "completed",
        "patient": {
          "reference": "urn:uuid:d0bda50a-9828-40f3-b4e1-a8256b908e2f",
          "display": "Alfred Rémy"
        },
        "occurrenceDateTime": "2015-12-31",
        "lotNumber": "RE-4SokP2OrA",
        "expirationDate": "2016-08-18"
      }
    },
    {
      "fullUrl": "urn:uuid:88141bcd-095b-42bb-9fd5-33bb7f26e9fc",
      "resource": {
        "resourceType": "AllergyIntolerance",
        "id": "88141bcd-095b-42bb-9fd5-33bb7f26e9fc",
        "meta": {
          "profile": [
            "http://hl7.eu/fhir/eps/StructureDefinition/allergyIntolerance-eu-eps"
          ]
        },
        "code": {
          "coding": [
            {
              "code": "2221000221107",
              "system": "http://snomed.info/sct",
              "display": "Live attenuated Varicella-zoster vaccine"
            }
          ],
          "text": "Live attenuated Varicella-zoster vaccine"
        },
        "clinicalStatus": {
          "coding": [
            {
              "code": "active",
              "system": "http://terminology.hl7.org/CodeSystem/allergyintolerance-clinical"
            }
          ]
        },
        "text": {
          "status": "generated",
          "div": "<div xmlns=\"http://www.w3.org/1999/xhtml\"><table class=\"hl7__ips\"><tr><th>Allergy/Intolerance</th><th>Onset Date</th><th>Status</th><th>Type</th><th>Reaction</th></tr><tr><td>Live attenuated Varicella-zoster vaccine</td><td>?</td><td>active</td><td>?</td><td></td></tr></table></div>"
        },
        "verificationStatus": {
          "coding": [
            {
              "code": "confirmed",
              "system": "http://terminology.hl7.org/CodeSystem/allergyintolerance-verification"
            }
          ]
        },
        "patient": {
          "reference": "urn:uuid:d0bda50a-9828-40f3-b4e1-a8256b908e2f",
          "display": "Alfred Rémy"
        },
        "_onsetDateTime": {
          "extension": [
            {
              "url": "http://hl7.org/fhir/StructureDefinition/data-absent-reason",
              "valueCode": "unknown"
            }
          ]
        }
      }
    },
    {
      "fullUrl": "urn:uuid:49fae690-c1f1-45af-b2e9-71175381c7ed",
      "resource": {
        "resourceType": "CarePlan",
        "id": "49fae690-c1f1-45af-b2e9-71175381c7ed",
        "category": [
          {
            "coding": [
              {
                "code": "assess-plan",
                "system": "http://terminology.hl7.org/CodeSystem/care-plan-category",
                "display": "Assessment and Plan"
              }
            ]
          }
        ],
        "activity": [
          {
            "detail": {
              "code": {
                "coding": [
                  {
                    "code": "698360004",
                    "system": "http://snomed.info/sct",
                    "display": "Diabetes self management plan (qualifier value)"
                  }
                ]
              },
              "reasonCode": [
                {
                  "coding": [
                    {
                      "code": "15777000",
                      "system": "http://snomed.info/sct",
                      "display": "Prediabetes"
                    }
                  ]
                }
              ],
              "status": "unknown",
              "description": "Diabetes self management plan",
              "kind": "Appointment"
            }
          }
        ],
        "period": {
          "start": "2002-03-14"
        },
        "goal": [
          {
            "reference": "urn:uuid:4d3fa726-4a6a-4b42-8cd4-ed7e5020a20f"
          }
        ],
        "text": {
          "status": "generated",
          "div": "<div xmlns=\"http://www.w3.org/1999/xhtml\"><table class=\"hl7__ips first25\"><tr><th>Active Planned Care / Goals</th><th>Start Date</th><th>Reason</th></tr><tr><td>Diabetes self management plan</td><td><span class=\"nb\">14-Mar-2002</span></td><td>Prediabetes</td></tr><tr><td><ul><li>Patient will implement a diabetes self-management plan to reduce risk of progression to diabetes.</li></ul></td><td></td><td></td></tr></table></div>"
        },
        "status": "active",
        "intent": "plan",
        "subject": {
          "reference": "urn:uuid:d0bda50a-9828-40f3-b4e1-a8256b908e2f",
          "display": "Alfred Rémy"
        }
      }
    },
    {
      "fullUrl": "urn:uuid:fb0c7dec-3eb5-4922-9859-e3caa1bc6a91",
      "resource": {
        "resourceType": "Observation",
        "id": "fb0c7dec-3eb5-4922-9859-e3caa1bc6a91",
        "meta": {
          "profile": [
            "http://hl7.org/fhir/StructureDefinition/vitalsigns"
          ]
        },
        "category": [
          {
            "coding": [
              {
                "system": "http://terminology.hl7.org/CodeSystem/observation-category",
                "code": "vital-signs",
                "display": "Vital Signs"
              }
            ]
          }
        ],
        "valueQuantity": {
          "value": 181,
          "code": "cm",
          "unit": "cm"
        },
        "text": {
          "status": "generated",
          "div": "<div xmlns=\"http://www.w3.org/1999/xhtml\"><table class=\"hl7__ips\"><tr><th>Vital Sign</th><th>Date</th><th>Measurement</th></tr><tr><td>Body Height</td><td>20-Feb-2025</td><td>181 cm</td></tr></table></div>"
        },
        "status": "final",
        "code": {
          "coding": [
            {
              "code": "$8302-2",
              "system": "http://loinc.org",
              "display": "Body Height"
            }
          ]
        },
        "subject": {
          "reference": "urn:uuid:d0bda50a-9828-40f3-b4e1-a8256b908e2f",
          "display": "Alfred Rémy"
        },
        "effectiveDateTime": "2025-02-20"
      }
    },
    {
      "fullUrl": "urn:uuid:1e477b1f-aaed-4d53-b049-9087bd3ea7d0",
      "resource": {
        "resourceType": "Observation",
        "id": "1e477b1f-aaed-4d53-b049-9087bd3ea7d0",
        "meta": {
          "profile": [
            "http://hl7.org/fhir/StructureDefinition/vitalsigns"
          ]
        },
        "category": [
          {
            "coding": [
              {
                "system": "http://terminology.hl7.org/CodeSystem/observation-category",
                "code": "vital-signs",
                "display": "Vital Signs"
              }
            ]
          }
        ],
        "valueQuantity": {
          "value": 3,
          "code": "{score}",
          "unit": "{score}"
        },
        "text": {
          "status": "generated",
          "div": "<div xmlns=\"http://www.w3.org/1999/xhtml\"><table class=\"hl7__ips\"><tr><th>Vital Sign</th><th>Date</th><th>Measurement</th></tr><tr><td>Pain severity - 0-10 verbal numeric rating [Score] - Reported</td><td>20-Feb-2025</td><td>3 {score}</td></tr></table></div>"
        },
        "status": "final",
        "code": {
          "coding": [
            {
              "code": "$72514-3",
              "system": "http://loinc.org",
              "display": "Pain severity - 0-10 verbal numeric rating [Score] - Reported"
            }
          ]
        },
        "subject": {
          "reference": "urn:uuid:d0bda50a-9828-40f3-b4e1-a8256b908e2f",
          "display": "Alfred Rémy"
        },
        "effectiveDateTime": "2025-02-20"
      }
    },
    {
      "fullUrl": "urn:uuid:2861ab03-b30e-47d1-9ace-e7d71d21f50b",
      "resource": {
        "resourceType": "Observation",
        "id": "2861ab03-b30e-47d1-9ace-e7d71d21f50b",
        "meta": {
          "profile": [
            "http://hl7.org/fhir/StructureDefinition/vitalsigns"
          ]
        },
        "category": [
          {
            "coding": [
              {
                "system": "http://terminology.hl7.org/CodeSystem/observation-category",
                "code": "vital-signs",
                "display": "Vital Signs"
              }
            ]
          }
        ],
        "valueQuantity": {
          "value": 90.2,
          "code": "kg",
          "unit": "kg"
        },
        "text": {
          "status": "generated",
          "div": "<div xmlns=\"http://www.w3.org/1999/xhtml\"><table class=\"hl7__ips\"><tr><th>Vital Sign</th><th>Date</th><th>Measurement</th></tr><tr><td>Body Weight</td><td>20-Feb-2025</td><td>90.2 kg</td></tr></table></div>"
        },
        "status": "final",
        "code": {
          "coding": [
            {
              "code": "$29463-7",
              "system": "http://loinc.org",
              "display": "Body Weight"
            }
          ]
        },
        "subject": {
          "reference": "urn:uuid:d0bda50a-9828-40f3-b4e1-a8256b908e2f",
          "display": "Alfred Rémy"
        },
        "effectiveDateTime": "2025-02-20"
      }
    },
    {
      "fullUrl": "urn:uuid:2bcd8cab-19da-4287-9716-09a3a58ee427",
      "resource": {
        "resourceType": "Observation",
        "id": "2bcd8cab-19da-4287-9716-09a3a58ee427",
        "meta": {
          "profile": [
            "http://hl7.org/fhir/StructureDefinition/vitalsigns"
          ]
        },
        "category": [
          {
            "coding": [
              {
                "system": "http://terminology.hl7.org/CodeSystem/observation-category",
                "code": "vital-signs",
                "display": "Vital Signs"
              }
            ]
          }
        ],
        "valueQuantity": {
          "value": 27.5,
          "code": "kg/m2",
          "unit": "kg/m2"
        },
        "text": {
          "status": "generated",
          "div": "<div xmlns=\"http://www.w3.org/1999/xhtml\"><table class=\"hl7__ips\"><tr><th>Vital Sign</th><th>Date</th><th>Measurement</th></tr><tr><td>Body mass index (BMI) [Ratio]</td><td>20-Feb-2025</td><td>27.5 kg/m2</td></tr></table></div>"
        },
        "status": "final",
        "code": {
          "coding": [
            {
              "code": "$39156-5",
              "system": "http://loinc.org",
              "display": "Body mass index (BMI) [Ratio]"
            }
          ]
        },
        "subject": {
          "reference": "urn:uuid:d0bda50a-9828-40f3-b4e1-a8256b908e2f",
          "display": "Alfred Rémy"
        },
        "effectiveDateTime": "2025-02-20"
      }
    },
    {
      "fullUrl": "urn:uuid:e8dce0d5-0245-41ef-b28a-1c1fbacb70a5",
      "resource": {
        "resourceType": "Observation",
        "id": "e8dce0d5-0245-41ef-b28a-1c1fbacb70a5",
        "meta": {
          "profile": [
            "http://hl7.org/fhir/StructureDefinition/vitalsigns"
          ]
        },
        "category": [
          {
            "coding": [
              {
                "system": "http://terminology.hl7.org/CodeSystem/observation-category",
                "code": "vital-signs",
                "display": "Vital Signs"
              }
            ]
          }
        ],
        "valueQuantity": {
          "value": 78,
          "code": "mm[Hg]",
          "unit": "mm[Hg]"
        },
        "text": {
          "status": "generated",
          "div": "<div xmlns=\"http://www.w3.org/1999/xhtml\"><table class=\"hl7__ips\"><tr><th>Vital Sign</th><th>Date</th><th>Measurement</th></tr><tr><td>Diastolic Blood Pressure</td><td>20-Feb-2025</td><td>78 mm[Hg]</td></tr></table></div>"
        },
        "status": "final",
        "code": {
          "coding": [
            {
              "code": "$8462-4",
              "system": "http://loinc.org",
              "display": "Diastolic Blood Pressure"
            }
          ]
        },
        "subject": {
          "reference": "urn:uuid:d0bda50a-9828-40f3-b4e1-a8256b908e2f",
          "display": "Alfred Rémy"
        },
        "effectiveDateTime": "2025-02-20"
      }
    },
    {
      "fullUrl": "urn:uuid:4dd0d95f-cc58-410a-9bc5-7959834929c3",
      "resource": {
        "resourceType": "Observation",
        "id": "4dd0d95f-cc58-410a-9bc5-7959834929c3",
        "meta": {
          "profile": [
            "http://hl7.org/fhir/StructureDefinition/vitalsigns"
          ]
        },
        "category": [
          {
            "coding": [
              {
                "system": "http://terminology.hl7.org/CodeSystem/observation-category",
                "code": "vital-signs",
                "display": "Vital Signs"
              }
            ]
          }
        ],
        "valueQuantity": {
          "value": 135,
          "code": "mm[Hg]",
          "unit": "mm[Hg]"
        },
        "text": {
          "status": "generated",
          "div": "<div xmlns=\"http://www.w3.org/1999/xhtml\"><table class=\"hl7__ips\"><tr><th>Vital Sign</th><th>Date</th><th>Measurement</th></tr><tr><td>Systolic Blood Pressure</td><td>20-Feb-2025</td><td>135 mm[Hg]</td></tr></table></div>"
        },
        "status": "final",
        "code": {
          "coding": [
            {
              "code": "$8480-6",
              "system": "http://loinc.org",
              "display": "Systolic Blood Pressure"
            }
          ]
        },
        "subject": {
          "reference": "urn:uuid:d0bda50a-9828-40f3-b4e1-a8256b908e2f",
          "display": "Alfred Rémy"
        },
        "effectiveDateTime": "2025-02-20"
      }
    },
    {
      "fullUrl": "urn:uuid:1cb899b9-7333-4e3e-bb06-01ca4b845862",
      "resource": {
        "resourceType": "Observation",
        "id": "1cb899b9-7333-4e3e-bb06-01ca4b845862",
        "meta": {
          "profile": [
            "http://hl7.org/fhir/StructureDefinition/vitalsigns"
          ]
        },
        "category": [
          {
            "coding": [
              {
                "system": "http://terminology.hl7.org/CodeSystem/observation-category",
                "code": "vital-signs",
                "display": "Vital Signs"
              }
            ]
          }
        ],
        "valueQuantity": {
          "value": 61,
          "code": "/min",
          "unit": "/min"
        },
        "text": {
          "status": "generated",
          "div": "<div xmlns=\"http://www.w3.org/1999/xhtml\"><table class=\"hl7__ips\"><tr><th>Vital Sign</th><th>Date</th><th>Measurement</th></tr><tr><td>Heart rate</td><td>20-Feb-2025</td><td>61 /min</td></tr></table></div>"
        },
        "status": "final",
        "code": {
          "coding": [
            {
              "code": "$8867-4",
              "system": "http://loinc.org",
              "display": "Heart rate"
            }
          ]
        },
        "subject": {
          "reference": "urn:uuid:d0bda50a-9828-40f3-b4e1-a8256b908e2f",
          "display": "Alfred Rémy"
        },
        "effectiveDateTime": "2025-02-20"
      }
    },
    {
      "fullUrl": "urn:uuid:75965ebe-2c62-4734-b7bb-e1862ea2b557",
      "resource": {
        "resourceType": "Observation",
        "id": "75965ebe-2c62-4734-b7bb-e1862ea2b557",
        "meta": {
          "profile": [
            "http://hl7.org/fhir/StructureDefinition/vitalsigns"
          ]
        },
        "category": [
          {
            "coding": [
              {
                "system": "http://terminology.hl7.org/CodeSystem/observation-category",
                "code": "vital-signs",
                "display": "Vital Signs"
              }
            ]
          }
        ],
        "valueQuantity": {
          "value": 15,
          "code": "/min",
          "unit": "/min"
        },
        "text": {
          "status": "generated",
          "div": "<div xmlns=\"http://www.w3.org/1999/xhtml\"><table class=\"hl7__ips\"><tr><th>Vital Sign</th><th>Date</th><th>Measurement</th></tr><tr><td>Respiratory rate</td><td>20-Feb-2025</td><td>15 /min</td></tr></table></div>"
        },
        "status": "final",
        "code": {
          "coding": [
            {
              "code": "$9279-1",
              "system": "http://loinc.org",
              "display": "Respiratory rate"
            }
          ]
        },
        "subject": {
          "reference": "urn:uuid:d0bda50a-9828-40f3-b4e1-a8256b908e2f",
          "display": "Alfred Rémy"
        },
        "effectiveDateTime": "2025-02-20"
      }
    },
    {
      "fullUrl": "urn:uuid:b513f217-c41d-4bbb-a1dd-71e3dbc4108c",
      "resource": {
        "resourceType": "Observation",
        "id": "b513f217-c41d-4bbb-a1dd-71e3dbc4108c",
        "meta": {
          "profile": [
            "http://hl7.org/fhir/StructureDefinition/vitalsigns"
          ]
        },
        "category": [
          {
            "coding": [
              {
                "system": "http://terminology.hl7.org/CodeSystem/observation-category",
                "code": "vital-signs",
                "display": "Vital Signs"
              }
            ]
          }
        ],
        "valueQuantity": {
          "value": 181,
          "code": "cm",
          "unit": "cm"
        },
        "text": {
          "status": "generated",
          "div": "<div xmlns=\"http://www.w3.org/1999/xhtml\"><table class=\"hl7__ips\"><tr><th>Vital Sign</th><th>Date</th><th>Measurement</th></tr><tr><td>Body Height</td><td>18-Jul-2024</td><td>181 cm</td></tr></table></div>"
        },
        "status": "final",
        "code": {
          "coding": [
            {
              "code": "$8302-2",
              "system": "http://loinc.org",
              "display": "Body Height"
            }
          ]
        },
        "subject": {
          "reference": "urn:uuid:d0bda50a-9828-40f3-b4e1-a8256b908e2f",
          "display": "Alfred Rémy"
        },
        "effectiveDateTime": "2024-07-18"
      }
    },
    {
      "fullUrl": "urn:uuid:57bedbb7-c8fc-4c50-bb46-4c3949e0e103",
      "resource": {
        "resourceType": "Observation",
        "id": "57bedbb7-c8fc-4c50-bb46-4c3949e0e103",
        "meta": {
          "profile": [
            "http://hl7.org/fhir/StructureDefinition/vitalsigns"
          ]
        },
        "category": [
          {
            "coding": [
              {
                "system": "http://terminology.hl7.org/CodeSystem/observation-category",
                "code": "vital-signs",
                "display": "Vital Signs"
              }
            ]
          }
        ],
        "valueQuantity": {
          "value": 1,
          "code": "{score}",
          "unit": "{score}"
        },
        "text": {
          "status": "generated",
          "div": "<div xmlns=\"http://www.w3.org/1999/xhtml\"><table class=\"hl7__ips\"><tr><th>Vital Sign</th><th>Date</th><th>Measurement</th></tr><tr><td>Pain severity - 0-10 verbal numeric rating [Score] - Reported</td><td>18-Jul-2024</td><td>1 {score}</td></tr></table></div>"
        },
        "status": "final",
        "code": {
          "coding": [
            {
              "code": "$72514-3",
              "system": "http://loinc.org",
              "display": "Pain severity - 0-10 verbal numeric rating [Score] - Reported"
            }
          ]
        },
        "subject": {
          "reference": "urn:uuid:d0bda50a-9828-40f3-b4e1-a8256b908e2f",
          "display": "Alfred Rémy"
        },
        "effectiveDateTime": "2024-07-18"
      }
    },
    {
      "fullUrl": "urn:uuid:48c84079-5ff6-4bdb-b975-9e6ba7339c6b",
      "resource": {
        "resourceType": "Observation",
        "id": "48c84079-5ff6-4bdb-b975-9e6ba7339c6b",
        "meta": {
          "profile": [
            "http://hl7.org/fhir/StructureDefinition/vitalsigns"
          ]
        },
        "category": [
          {
            "coding": [
              {
                "system": "http://terminology.hl7.org/CodeSystem/observation-category",
                "code": "vital-signs",
                "display": "Vital Signs"
              }
            ]
          }
        ],
        "valueQuantity": {
          "value": 90.2,
          "code": "kg",
          "unit": "kg"
        },
        "text": {
          "status": "generated",
          "div": "<div xmlns=\"http://www.w3.org/1999/xhtml\"><table class=\"hl7__ips\"><tr><th>Vital Sign</th><th>Date</th><th>Measurement</th></tr><tr><td>Body Weight</td><td>18-Jul-2024</td><td>90.2 kg</td></tr></table></div>"
        },
        "status": "final",
        "code": {
          "coding": [
            {
              "code": "$29463-7",
              "system": "http://loinc.org",
              "display": "Body Weight"
            }
          ]
        },
        "subject": {
          "reference": "urn:uuid:d0bda50a-9828-40f3-b4e1-a8256b908e2f",
          "display": "Alfred Rémy"
        },
        "effectiveDateTime": "2024-07-18"
      }
    },
    {
      "fullUrl": "urn:uuid:5d62897c-3690-4671-932b-bc7a26191e8e",
      "resource": {
        "resourceType": "Observation",
        "id": "5d62897c-3690-4671-932b-bc7a26191e8e",
        "meta": {
          "profile": [
            "http://hl7.org/fhir/StructureDefinition/vitalsigns"
          ]
        },
        "category": [
          {
            "coding": [
              {
                "system": "http://terminology.hl7.org/CodeSystem/observation-category",
                "code": "vital-signs",
                "display": "Vital Signs"
              }
            ]
          }
        ],
        "valueQuantity": {
          "value": 27.5,
          "code": "kg/m2",
          "unit": "kg/m2"
        },
        "text": {
          "status": "generated",
          "div": "<div xmlns=\"http://www.w3.org/1999/xhtml\"><table class=\"hl7__ips\"><tr><th>Vital Sign</th><th>Date</th><th>Measurement</th></tr><tr><td>Body mass index (BMI) [Ratio]</td><td>18-Jul-2024</td><td>27.5 kg/m2</td></tr></table></div>"
        },
        "status": "final",
        "code": {
          "coding": [
            {
              "code": "$39156-5",
              "system": "http://loinc.org",
              "display": "Body mass index (BMI) [Ratio]"
            }
          ]
        },
        "subject": {
          "reference": "urn:uuid:d0bda50a-9828-40f3-b4e1-a8256b908e2f",
          "display": "Alfred Rémy"
        },
        "effectiveDateTime": "2024-07-18"
      }
    },
    {
      "fullUrl": "urn:uuid:5cec5516-a2db-42ac-84f2-e80cc15a9ad0",
      "resource": {
        "resourceType": "Observation",
        "id": "5cec5516-a2db-42ac-84f2-e80cc15a9ad0",
        "meta": {
          "profile": [
            "http://hl7.org/fhir/StructureDefinition/vitalsigns"
          ]
        },
        "category": [
          {
            "coding": [
              {
                "system": "http://terminology.hl7.org/CodeSystem/observation-category",
                "code": "vital-signs",
                "display": "Vital Signs"
              }
            ]
          }
        ],
        "valueQuantity": {
          "value": 76,
          "code": "mm[Hg]",
          "unit": "mm[Hg]"
        },
        "text": {
          "status": "generated",
          "div": "<div xmlns=\"http://www.w3.org/1999/xhtml\"><table class=\"hl7__ips\"><tr><th>Vital Sign</th><th>Date</th><th>Measurement</th></tr><tr><td>Diastolic Blood Pressure</td><td>18-Jul-2024</td><td>76 mm[Hg]</td></tr></table></div>"
        },
        "status": "final",
        "code": {
          "coding": [
            {
              "code": "$8462-4",
              "system": "http://loinc.org",
              "display": "Diastolic Blood Pressure"
            }
          ]
        },
        "subject": {
          "reference": "urn:uuid:d0bda50a-9828-40f3-b4e1-a8256b908e2f",
          "display": "Alfred Rémy"
        },
        "effectiveDateTime": "2024-07-18"
      }
    },
    {
      "fullUrl": "urn:uuid:94c696b1-5d85-4e9d-8dc6-8b640534779f",
      "resource": {
        "resourceType": "Observation",
        "id": "94c696b1-5d85-4e9d-8dc6-8b640534779f",
        "meta": {
          "profile": [
            "http://hl7.org/fhir/StructureDefinition/vitalsigns"
          ]
        },
        "category": [
          {
            "coding": [
              {
                "system": "http://terminology.hl7.org/CodeSystem/observation-category",
                "code": "vital-signs",
                "display": "Vital Signs"
              }
            ]
          }
        ],
        "valueQuantity": {
          "value": 128,
          "code": "mm[Hg]",
          "unit": "mm[Hg]"
        },
        "text": {
          "status": "generated",
          "div": "<div xmlns=\"http://www.w3.org/1999/xhtml\"><table class=\"hl7__ips\"><tr><th>Vital Sign</th><th>Date</th><th>Measurement</th></tr><tr><td>Systolic Blood Pressure</td><td>18-Jul-2024</td><td>128 mm[Hg]</td></tr></table></div>"
        },
        "status": "final",
        "code": {
          "coding": [
            {
              "code": "$8480-6",
              "system": "http://loinc.org",
              "display": "Systolic Blood Pressure"
            }
          ]
        },
        "subject": {
          "reference": "urn:uuid:d0bda50a-9828-40f3-b4e1-a8256b908e2f",
          "display": "Alfred Rémy"
        },
        "effectiveDateTime": "2024-07-18"
      }
    },
    {
      "fullUrl": "urn:uuid:d8dd2f92-213e-481e-a546-74c97b84568c",
      "resource": {
        "resourceType": "Observation",
        "id": "d8dd2f92-213e-481e-a546-74c97b84568c",
        "meta": {
          "profile": [
            "http://hl7.org/fhir/StructureDefinition/vitalsigns"
          ]
        },
        "category": [
          {
            "coding": [
              {
                "system": "http://terminology.hl7.org/CodeSystem/observation-category",
                "code": "vital-signs",
                "display": "Vital Signs"
              }
            ]
          }
        ],
        "valueQuantity": {
          "value": 92,
          "code": "/min",
          "unit": "/min"
        },
        "text": {
          "status": "generated",
          "div": "<div xmlns=\"http://www.w3.org/1999/xhtml\"><table class=\"hl7__ips\"><tr><th>Vital Sign</th><th>Date</th><th>Measurement</th></tr><tr><td>Heart rate</td><td>18-Jul-2024</td><td>92 /min</td></tr></table></div>"
        },
        "status": "final",
        "code": {
          "coding": [
            {
              "code": "$8867-4",
              "system": "http://loinc.org",
              "display": "Heart rate"
            }
          ]
        },
        "subject": {
          "reference": "urn:uuid:d0bda50a-9828-40f3-b4e1-a8256b908e2f",
          "display": "Alfred Rémy"
        },
        "effectiveDateTime": "2024-07-18"
      }
    },
    {
      "fullUrl": "urn:uuid:9d55a481-08b2-4a4f-a01f-f43f207b2487",
      "resource": {
        "resourceType": "Observation",
        "id": "9d55a481-08b2-4a4f-a01f-f43f207b2487",
        "meta": {
          "profile": [
            "http://hl7.org/fhir/StructureDefinition/vitalsigns"
          ]
        },
        "category": [
          {
            "coding": [
              {
                "system": "http://terminology.hl7.org/CodeSystem/observation-category",
                "code": "vital-signs",
                "display": "Vital Signs"
              }
            ]
          }
        ],
        "valueQuantity": {
          "value": 16,
          "code": "/min",
          "unit": "/min"
        },
        "text": {
          "status": "generated",
          "div": "<div xmlns=\"http://www.w3.org/1999/xhtml\"><table class=\"hl7__ips\"><tr><th>Vital Sign</th><th>Date</th><th>Measurement</th></tr><tr><td>Respiratory rate</td><td>18-Jul-2024</td><td>16 /min</td></tr></table></div>"
        },
        "status": "final",
        "code": {
          "coding": [
            {
              "code": "$9279-1",
              "system": "http://loinc.org",
              "display": "Respiratory rate"
            }
          ]
        },
        "subject": {
          "reference": "urn:uuid:d0bda50a-9828-40f3-b4e1-a8256b908e2f",
          "display": "Alfred Rémy"
        },
        "effectiveDateTime": "2024-07-18"
      }
    },
    {
      "fullUrl": "urn:uuid:9977130c-bd6f-4436-8ca9-71ddd309807e",
      "resource": {
        "resourceType": "Observation",
        "id": "9977130c-bd6f-4436-8ca9-71ddd309807e",
        "meta": {
          "profile": [
            "http://hl7.eu/fhir/laboratory/StructureDefinition/Observation-resultslab-eu-lab"
          ]
        },
        "performer": [
          {
            "display": "The Central European Lab"
          }
        ],
        "category": [
          {
            "coding": [
              {
                "system": "http://terminology.hl7.org/CodeSystem/observation-category",
                "code": "laboratory"
              }
            ]
          }
        ],
        "code": {
          "coding": [
            {
              "code": "4548-4",
              "system": "http://loinc.org",
              "display": "Hemoglobin A1c/Hemoglobin.total in Blood"
            }
          ],
          "text": "Hemoglobin A1c/Hemoglobin.total in Blood"
        },
        "valueQuantity": {
          "system": "http://unitsofmeasure.org",
          "value": 5.8,
          "unit": "%",
          "code": "%"
        },
        "referenceRange": [
          {
            "low": {
              "value": 4.5,
              "code": "%",
              "system": "http://unitsofmeasure.org"
            }
          },
          {
            "high": {
              "value": 6.4,
              "code": "%",
              "system": "http://unitsofmeasure.org"
            }
          }
        ],
        "text": {
          "status": "generated",
          "div": "<div xmlns=\"http://www.w3.org/1999/xhtml\"><table class=\"hl7__eu__lab__report\"><tr><th>Test</th><th>20-Feb-2025</th><th>Reference&#xA0;Range</th><th>Unit</th></tr><tr><td>Hemoglobin A1c/Hemoglobin.total in Blood</td><td>5.8</td><td>4.5 - 6.4</td><td></td><td>%</td></tr></table></div>"
        },
        "status": "final",
        "subject": {
          "reference": "urn:uuid:d0bda50a-9828-40f3-b4e1-a8256b908e2f",
          "display": "Alfred Rémy"
        },
        "effectiveDateTime": "2025-02-20T06:54:36Z"
      }
    },
    {
      "fullUrl": "urn:uuid:921cd4eb-7bf9-41bc-a777-12ed3f04cd85",
      "resource": {
        "resourceType": "Observation",
        "id": "921cd4eb-7bf9-41bc-a777-12ed3f04cd85",
        "meta": {
          "profile": [
            "http://hl7.eu/fhir/laboratory/StructureDefinition/Observation-resultslab-eu-lab"
          ]
        },
        "performer": [
          {
            "display": "The Central European Lab"
          }
        ],
        "category": [
          {
            "coding": [
              {
                "system": "http://terminology.hl7.org/CodeSystem/observation-category",
                "code": "laboratory"
              }
            ]
          }
        ],
        "code": {
          "coding": [
            {
              "code": "2339-0",
              "system": "http://loinc.org",
              "display": "Glucose [Mass/volume] in Blood"
            }
          ],
          "text": "Glucose [Mass/volume] in Blood"
        },
        "valueQuantity": {
          "system": "http://unitsofmeasure.org",
          "value": 95.3,
          "unit": "mg/dL",
          "code": "mg/dL"
        },
        "referenceRange": [
          {
            "low": {
              "value": 70,
              "code": "mg/dL",
              "system": "http://unitsofmeasure.org"
            }
          },
          {
            "high": {
              "value": 99,
              "code": "mg/dL",
              "system": "http://unitsofmeasure.org"
            }
          }
        ],
        "text": {
          "status": "generated",
          "div": "<div xmlns=\"http://www.w3.org/1999/xhtml\"><table class=\"hl7__eu__lab__report\"><tr><th>Test</th><th>20-Feb-2025</th><th>Reference&#xA0;Range</th><th>Unit</th></tr><tr><td>Glucose [Mass/volume] in Blood</td><td>95.3</td><td>70 - 99</td><td></td><td>mg/dL</td></tr></table></div>"
        },
        "status": "final",
        "subject": {
          "reference": "urn:uuid:d0bda50a-9828-40f3-b4e1-a8256b908e2f",
          "display": "Alfred Rémy"
        },
        "effectiveDateTime": "2025-02-20T06:54:36Z"
      }
    },
    {
      "fullUrl": "urn:uuid:c029d5a8-bb9c-4daa-849a-01e5f286595b",
      "resource": {
        "resourceType": "Observation",
        "id": "c029d5a8-bb9c-4daa-849a-01e5f286595b",
        "meta": {
          "profile": [
            "http://hl7.eu/fhir/laboratory/StructureDefinition/Observation-resultslab-eu-lab"
          ]
        },
        "performer": [
          {
            "display": "The Central European Lab"
          }
        ],
        "category": [
          {
            "coding": [
              {
                "system": "http://terminology.hl7.org/CodeSystem/observation-category",
                "code": "laboratory"
              }
            ]
          }
        ],
        "code": {
          "coding": [
            {
              "code": "6299-2",
              "system": "http://loinc.org",
              "display": "Urea nitrogen [Mass/volume] in Blood"
            }
          ],
          "text": "Urea nitrogen [Mass/volume] in Blood"
        },
        "valueQuantity": {
          "system": "http://unitsofmeasure.org",
          "value": 16.2,
          "unit": "mg/dL",
          "code": "mg/dL"
        },
        "referenceRange": [
          {
            "low": {
              "value": 7,
              "code": "mg/dL",
              "system": "http://unitsofmeasure.org"
            }
          },
          {
            "high": {
              "value": 20,
              "code": "mg/dL",
              "system": "http://unitsofmeasure.org"
            }
          }
        ],
        "text": {
          "status": "generated",
          "div": "<div xmlns=\"http://www.w3.org/1999/xhtml\"><table class=\"hl7__eu__lab__report\"><tr><th>Test</th><th>20-Feb-2025</th><th>Reference&#xA0;Range</th><th>Unit</th></tr><tr><td>Urea nitrogen [Mass/volume] in Blood</td><td>16.2</td><td>7 - 20</td><td></td><td>mg/dL</td></tr></table></div>"
        },
        "status": "final",
        "subject": {
          "reference": "urn:uuid:d0bda50a-9828-40f3-b4e1-a8256b908e2f",
          "display": "Alfred Rémy"
        },
        "effectiveDateTime": "2025-02-20T06:54:36Z"
      }
    },
    {
      "fullUrl": "urn:uuid:d317873e-42fe-48ac-906d-d79733a9194c",
      "resource": {
        "resourceType": "Observation",
        "id": "d317873e-42fe-48ac-906d-d79733a9194c",
        "meta": {
          "profile": [
            "http://hl7.eu/fhir/laboratory/StructureDefinition/Observation-resultslab-eu-lab"
          ]
        },
        "performer": [
          {
            "display": "The Central European Lab"
          }
        ],
        "category": [
          {
            "coding": [
              {
                "system": "http://terminology.hl7.org/CodeSystem/observation-category",
                "code": "laboratory"
              }
            ]
          }
        ],
        "code": {
          "coding": [
            {
              "code": "38483-4",
              "system": "http://loinc.org",
              "display": "Creatinine [Mass/volume] in Blood"
            }
          ],
          "text": "Creatinine [Mass/volume] in Blood"
        },
        "valueQuantity": {
          "system": "http://unitsofmeasure.org",
          "value": 1.3,
          "unit": "mg/dL",
          "code": "mg/dL"
        },
        "referenceRange": [
          {
            "low": {
              "value": 0.7,
              "code": "mg/dL",
              "system": "http://unitsofmeasure.org"
            }
          },
          {
            "high": {
              "value": 1.3,
              "code": "mg/dL",
              "system": "http://unitsofmeasure.org"
            }
          }
        ],
        "text": {
          "status": "generated",
          "div": "<div xmlns=\"http://www.w3.org/1999/xhtml\"><table class=\"hl7__eu__lab__report\"><tr><th>Test</th><th>20-Feb-2025</th><th>Reference&#xA0;Range</th><th>Unit</th></tr><tr><td>Creatinine [Mass/volume] in Blood</td><td>1.3</td><td>0.7 - 1.3</td><td></td><td>mg/dL</td></tr></table></div>"
        },
        "status": "final",
        "subject": {
          "reference": "urn:uuid:d0bda50a-9828-40f3-b4e1-a8256b908e2f",
          "display": "Alfred Rémy"
        },
        "effectiveDateTime": "2025-02-20T06:54:36Z"
      }
    },
    {
      "fullUrl": "urn:uuid:e2b8af6b-21d7-4990-ac6f-ed7dede68fa6",
      "resource": {
        "resourceType": "Observation",
        "id": "e2b8af6b-21d7-4990-ac6f-ed7dede68fa6",
        "meta": {
          "profile": [
            "http://hl7.eu/fhir/laboratory/StructureDefinition/Observation-resultslab-eu-lab"
          ]
        },
        "performer": [
          {
            "display": "The Central European Lab"
          }
        ],
        "category": [
          {
            "coding": [
              {
                "system": "http://terminology.hl7.org/CodeSystem/observation-category",
                "code": "laboratory"
              }
            ]
          }
        ],
        "code": {
          "coding": [
            {
              "code": "49765-1",
              "system": "http://loinc.org",
              "display": "Calcium [Mass/volume] in Blood"
            }
          ],
          "text": "Calcium [Mass/volume] in Blood"
        },
        "valueQuantity": {
          "system": "http://unitsofmeasure.org",
          "value": 9.3,
          "unit": "mg/dL",
          "code": "mg/dL"
        },
        "referenceRange": [
          {
            "low": {
              "value": 8.5,
              "code": "mg/dL",
              "system": "http://unitsofmeasure.org"
            }
          },
          {
            "high": {
              "value": 10.5,
              "code": "mg/dL",
              "system": "http://unitsofmeasure.org"
            }
          }
        ],
        "text": {
          "status": "generated",
          "div": "<div xmlns=\"http://www.w3.org/1999/xhtml\"><table class=\"hl7__eu__lab__report\"><tr><th>Test</th><th>20-Feb-2025</th><th>Reference&#xA0;Range</th><th>Unit</th></tr><tr><td>Calcium [Mass/volume] in Blood</td><td>9.3</td><td>8.5 - 10.5</td><td></td><td>mg/dL</td></tr></table></div>"
        },
        "status": "final",
        "subject": {
          "reference": "urn:uuid:d0bda50a-9828-40f3-b4e1-a8256b908e2f",
          "display": "Alfred Rémy"
        },
        "effectiveDateTime": "2025-02-20T06:54:36Z"
      }
    },
    {
      "fullUrl": "urn:uuid:554dc51d-c42e-4290-bea0-d0cf41ce3ebf",
      "resource": {
        "resourceType": "Observation",
        "id": "554dc51d-c42e-4290-bea0-d0cf41ce3ebf",
        "meta": {
          "profile": [
            "http://hl7.eu/fhir/laboratory/StructureDefinition/Observation-resultslab-eu-lab"
          ]
        },
        "performer": [
          {
            "display": "The Central European Lab"
          }
        ],
        "category": [
          {
            "coding": [
              {
                "system": "http://terminology.hl7.org/CodeSystem/observation-category",
                "code": "laboratory"
              }
            ]
          }
        ],
        "code": {
          "coding": [
            {
              "code": "2947-0",
              "system": "http://loinc.org",
              "display": "Sodium [Moles/volume] in Blood"
            }
          ],
          "text": "Sodium [Moles/volume] in Blood"
        },
        "valueQuantity": {
          "system": "http://unitsofmeasure.org",
          "value": 142.8,
          "unit": "mmol/L",
          "code": "mmol/L"
        },
        "referenceRange": [
          {
            "low": {
              "value": 135,
              "code": "mmol/L",
              "system": "http://unitsofmeasure.org"
            }
          },
          {
            "high": {
              "value": 145,
              "code": "mmol/L",
              "system": "http://unitsofmeasure.org"
            }
          }
        ],
        "text": {
          "status": "generated",
          "div": "<div xmlns=\"http://www.w3.org/1999/xhtml\"><table class=\"hl7__eu__lab__report\"><tr><th>Test</th><th>20-Feb-2025</th><th>Reference&#xA0;Range</th><th>Unit</th></tr><tr><td>Sodium [Moles/volume] in Blood</td><td>142.8</td><td>135 - 145</td><td></td><td>mmol/L</td></tr></table></div>"
        },
        "status": "final",
        "subject": {
          "reference": "urn:uuid:d0bda50a-9828-40f3-b4e1-a8256b908e2f",
          "display": "Alfred Rémy"
        },
        "effectiveDateTime": "2025-02-20T06:54:36Z"
      }
    },
    {
      "fullUrl": "urn:uuid:bccb3e5b-61e8-4331-a88e-2d23cd13eae6",
      "resource": {
        "resourceType": "Observation",
        "id": "bccb3e5b-61e8-4331-a88e-2d23cd13eae6",
        "meta": {
          "profile": [
            "http://hl7.eu/fhir/laboratory/StructureDefinition/Observation-resultslab-eu-lab"
          ]
        },
        "performer": [
          {
            "display": "The Central European Lab"
          }
        ],
        "category": [
          {
            "coding": [
              {
                "system": "http://terminology.hl7.org/CodeSystem/observation-category",
                "code": "laboratory"
              }
            ]
          }
        ],
        "code": {
          "coding": [
            {
              "code": "6298-4",
              "system": "http://loinc.org",
              "display": "Potassium [Moles/volume] in Blood"
            }
          ],
          "text": "Potassium [Moles/volume] in Blood"
        },
        "valueQuantity": {
          "system": "http://unitsofmeasure.org",
          "value": 4,
          "unit": "mmol/L",
          "code": "mmol/L"
        },
        "referenceRange": [
          {
            "low": {
              "value": 3.5,
              "code": "mmol/L",
              "system": "http://unitsofmeasure.org"
            }
          },
          {
            "high": {
              "value": 5.3,
              "code": "mmol/L",
              "system": "http://unitsofmeasure.org"
            }
          }
        ],
        "text": {
          "status": "generated",
          "div": "<div xmlns=\"http://www.w3.org/1999/xhtml\"><table class=\"hl7__eu__lab__report\"><tr><th>Test</th><th>20-Feb-2025</th><th>Reference&#xA0;Range</th><th>Unit</th></tr><tr><td>Potassium [Moles/volume] in Blood</td><td>4.0</td><td>3.5 - 5.3</td><td></td><td>mmol/L</td></tr></table></div>"
        },
        "status": "final",
        "subject": {
          "reference": "urn:uuid:d0bda50a-9828-40f3-b4e1-a8256b908e2f",
          "display": "Alfred Rémy"
        },
        "effectiveDateTime": "2025-02-20T06:54:36Z"
      }
    },
    {
      "fullUrl": "urn:uuid:fbd64935-9599-49fc-8b0d-a63ada40869c",
      "resource": {
        "resourceType": "Observation",
        "id": "fbd64935-9599-49fc-8b0d-a63ada40869c",
        "meta": {
          "profile": [
            "http://hl7.eu/fhir/laboratory/StructureDefinition/Observation-resultslab-eu-lab"
          ]
        },
        "performer": [
          {
            "display": "The Central European Lab"
          }
        ],
        "category": [
          {
            "coding": [
              {
                "system": "http://terminology.hl7.org/CodeSystem/observation-category",
                "code": "laboratory"
              }
            ]
          }
        ],
        "code": {
          "coding": [
            {
              "code": "2069-3",
              "system": "http://loinc.org",
              "display": "Chloride [Moles/volume] in Blood"
            }
          ],
          "text": "Chloride [Moles/volume] in Blood"
        },
        "valueQuantity": {
          "system": "http://unitsofmeasure.org",
          "value": 110,
          "unit": "mmol/L",
          "code": "mmol/L"
        },
        "referenceRange": [
          {
            "low": {
              "value": 98,
              "code": "mmol/L",
              "system": "http://unitsofmeasure.org"
            }
          },
          {
            "high": {
              "value": 110,
              "code": "mmol/L",
              "system": "http://unitsofmeasure.org"
            }
          }
        ],
        "text": {
          "status": "generated",
          "div": "<div xmlns=\"http://www.w3.org/1999/xhtml\"><table class=\"hl7__eu__lab__report\"><tr><th>Test</th><th>20-Feb-2025</th><th>Reference&#xA0;Range</th><th>Unit</th></tr><tr><td>Chloride [Moles/volume] in Blood</td><td>110.0</td><td>98 - 110</td><td></td><td>mmol/L</td></tr></table></div>"
        },
        "status": "final",
        "subject": {
          "reference": "urn:uuid:d0bda50a-9828-40f3-b4e1-a8256b908e2f",
          "display": "Alfred Rémy"
        },
        "effectiveDateTime": "2025-02-20T06:54:36Z"
      }
    },
    {
      "fullUrl": "urn:uuid:b4699bb1-a94a-40b2-abef-5249aea38d23",
      "resource": {
        "resourceType": "Observation",
        "id": "b4699bb1-a94a-40b2-abef-5249aea38d23",
        "meta": {
          "profile": [
            "http://hl7.eu/fhir/laboratory/StructureDefinition/Observation-resultslab-eu-lab"
          ]
        },
        "performer": [
          {
            "display": "The Central European Lab"
          }
        ],
        "category": [
          {
            "coding": [
              {
                "system": "http://terminology.hl7.org/CodeSystem/observation-category",
                "code": "laboratory"
              }
            ]
          }
        ],
        "code": {
          "coding": [
            {
              "code": "20565-8",
              "system": "http://loinc.org",
              "display": "Carbon dioxide, total [Moles/volume] in Blood"
            }
          ],
          "text": "Carbon dioxide, total [Moles/volume] in Blood"
        },
        "valueQuantity": {
          "system": "http://unitsofmeasure.org",
          "value": 25.6,
          "unit": "mmol/L",
          "code": "mmol/L"
        },
        "referenceRange": [
          {
            "low": {
              "value": 22,
              "code": "mmol/L",
              "system": "http://unitsofmeasure.org"
            }
          },
          {
            "high": {
              "value": 29,
              "code": "mmol/L",
              "system": "http://unitsofmeasure.org"
            }
          }
        ],
        "text": {
          "status": "generated",
          "div": "<div xmlns=\"http://www.w3.org/1999/xhtml\"><table class=\"hl7__eu__lab__report\"><tr><th>Test</th><th>20-Feb-2025</th><th>Reference&#xA0;Range</th><th>Unit</th></tr><tr><td>Carbon dioxide, total [Moles/volume] in Blood</td><td>25.6</td><td>22 - 29</td><td></td><td>mmol/L</td></tr></table></div>"
        },
        "status": "final",
        "subject": {
          "reference": "urn:uuid:d0bda50a-9828-40f3-b4e1-a8256b908e2f",
          "display": "Alfred Rémy"
        },
        "effectiveDateTime": "2025-02-20T06:54:36Z"
      }
    },
    {
      "fullUrl": "urn:uuid:96e3a339-bf65-459a-9463-dcafcf9016e7",
      "resource": {
        "resourceType": "DeviceUseStatement",
        "id": "96e3a339-bf65-459a-9463-dcafcf9016e7",
        "meta": {
          "profile": [
            "http://hl7.eu/fhir/eps/StructureDefinition/deviceUseStatement-eu-eps"
          ]
        },
        "timingPeriod": {
          "start": "2002-03-14"
        },
        "text": {
          "status": "generated",
          "div": "<div xmlns=\"http://www.w3.org/1999/xhtml\"><table class=\"hl7__ips\"><tr><td>Blood glucose meter (physical object)</td><td><span class=\"nb\">14-Mar-2002</span></td></tr></table></div>"
        },
        "status": "active",
        "device": {
          "reference": "urn:uuid:90c7b3c1-6054-476b-ae38-916868627f9e",
          "display": "Blood glucose meter (physical object)"
        },
        "subject": {
          "reference": "urn:uuid:d0bda50a-9828-40f3-b4e1-a8256b908e2f",
          "display": "Alfred Rémy"
        }
      }
    },
    {
      "fullUrl": "urn:uuid:90c7b3c1-6054-476b-ae38-916868627f9e",
      "resource": {
        "resourceType": "Device",
        "id": "90c7b3c1-6054-476b-ae38-916868627f9e",
        "meta": {
          "profile": [
            "http://hl7.eu/fhir/eps/StructureDefinition/device-eu-eps"
          ]
        },
        "udiCarrier": [
          {
            "id": "(01)61948583535495(11)020221(17)270308(10)46731164803776098(21)557937631438"
          }
        ],
        "status": "active",
        "patient": {
          "reference": "urn:uuid:d0bda50a-9828-40f3-b4e1-a8256b908e2f",
          "display": "Alfred Rémy"
        },
        "type": {
          "coding": [
            {
              "code": "337414009",
              "system": "http://snomed.info/sct",
              "display": "Blood glucose meter (physical object)"
            }
          ]
        }
      }
    },
    {
      "fullUrl": "urn:uuid:2e196b20-cf11-4ca4-aba5-362d9e2162a0",
      "resource": {
        "resourceType": "Device",
        "id": "2e196b20-cf11-4ca4-aba5-362d9e2162a0",
        "deviceName": [
          {
            "name": "SYNDERAI Synthetic Generator",
            "type": "manufacturer-name"
          }
        ],
        "version": [
          {
            "value": "5.0"
          }
        ],
        "text": {
          "status": "generated",
          "div": "<div xmlns=\"http://www.w3.org/1999/xhtml\">SYNDERAI Synthetic Generator v5.0</div>"
        },
        "status": "active\"",
        "distinctIdentifier": "synderai-generator-50",
        "manufacturer": "SYNDERAI Project"
      }
    },
    {
      "fullUrl": "urn:uuid:fc18e69c-4a05-4e6e-ab56-a55504fd0904",
      "resource": {
        "resourceType": "Provenance",
        "id": "fc18e69c-4a05-4e6e-ab56-a55504fd0904",
        "target": [
          {
            "reference": "Patient/d0bda50a-9828-40f3-b4e1-a8256b908e2f"
          },
          {
            "reference": "Bundle/cd0c7f74-c4bc-43bb-aa27-f1dc3beffcea"
          },
          {
            "reference": "Composition/0266a7dc-14d8-4fb9-9eb2-781d57fdb605"
          },
          {
            "reference": "PractitionerRole/e8232f6b-837d-496a-ac00-efc47d995f78"
          },
          {
            "reference": "Organization/45edbf36-42ed-47b3-99b6-a961d2415318"
          },
          {
            "reference": "Practitioner/245cc87a-0b4e-4c80-931e-51f4f0c49531"
          }
        ],
        "activity": {
          "text": "Synthetic Example Data Generation"
        },
        "policy": [
          "https://synderai.net/synderai-synthetic-data-policy"
        ],
        "agent": [
          {
            "type": {
              "text": "author"
            },
            "who": {
              "reference": "Device/2e196b20-cf11-4ca4-aba5-362d9e2162a0"
            }
          }
        ],
        "reason": [
          {
            "text": "Interoperability Testing and Training (non-clinical use)"
          }
        ],
        "text": {
          "status": "generated",
          "div": "<div xmlns=\"http://www.w3.org/1999/xhtml\">Provenance for SYNDERAI Synthetic Example Data Resource</div>"
        },
        "recorded": "2025-02-20T06:54:36Z"
      }
    }
  ],
  "type": "document",
  "timestamp": "2025-02-20T06:54:36Z"
}
