{
  "resourceType": "Bundle",
  "id": "86f18b46-dd40-4c59-be65-259530efe35e",
  "meta": {
    "profile": [
      "http://hl7.eu/fhir/eps/StructureDefinition/bundle-eu-eps"
    ]
  },
  "identifier": {
    "assigner": {
      "display": "HL7 Europe"
    },
    "system": "urn:oid:2.16.840.1.113883.2.51.999",
    "value": "ef7157c1-b74b-4519-bfef-f3e00dbdaa1e"
  },
  "entry": [
    {
      "fullUrl": "urn:uuid:7451de80-7bb1-4daf-af63-d09b6785717b",
      "resource": {
        "resourceType": "Composition",
        "id": "7451de80-7bb1-4daf-af63-d09b6785717b",
        "meta": {
          "security": [
            {
              "system": "http://terminology.hl7.org/CodeSystem/v3-ActReason",
              "code": "HTEST"
            },
            {
              "system": "http://terminology.hl7.org/CodeSystem/v3-ActReason",
              "code": "TRAIN"
            }
          ],
          "tag": [
            {
              "system": "https://synderai.net/fhir/CodeSystem/tags",
              "code": "synthetic",
              "display": "SYNDERAI Synthetic data"
            }
          ],
          "profile": [
            "http://hl7.eu/fhir/eps/StructureDefinition/composition-eu-eps"
          ]
        },
        "identifier": {
          "assigner": {
            "display": "HL7 Europe"
          },
          "system": "urn:oid:2.16.840.1.113883.2.51.999",
          "value": "6543a206-eb1b-49d4-8784-824c3e2c8b5a"
        },
        "type": {
          "coding": [
            {
              "system": "http://loinc.org",
              "code": "60591-5",
              "display": "Patient summary Document"
            }
          ],
          "text": "Patient summary Document"
        },
        "author": [
          {
            "reference": "urn:uuid:7126e37b-ba73-44c6-80a2-787baca63f05"
          }
        ],
        "section": [
          {
            "text": {
              "status": "generated",
              "div": "<div xmlns=\"http://www.w3.org/1999/xhtml\"><table class=\"hl7__ips\"><tr><th>Condition</th><th>Onset Date</th><th>Status</th></tr><tr><td>Osteoarthritis of knee</td><td><span class=\"nb\">21-Sep-2017</span></td><td>active</td></tr><tr><td>Pulmonary emphysema</td><td><span class=\"nb\">03-May-1992</span></td><td>active</td></tr><tr><td>Anemia</td><td><span class=\"nb\">03-May-1992</span></td><td>active</td></tr><tr><td>Essential hypertension</td><td><span class=\"nb\">10-Jul-1988</span></td><td>active</td></tr></table></div>"
            },
            "entry": [
              {
                "reference": "urn:uuid:3946e813-b87d-4276-8ddb-d388e0f62ed0"
              },
              {
                "reference": "urn:uuid:6fee8a76-2691-40fa-8427-8f3b4ef31036"
              },
              {
                "reference": "urn:uuid:fd88cd97-cee1-4194-a275-70719794b5e2"
              },
              {
                "reference": "urn:uuid:b9bd76ed-f795-4b74-8579-27bd0ce91b1a"
              }
            ],
            "code": {
              "coding": [
                {
                  "system": "http://loinc.org",
                  "code": "11450-4",
                  "display": "Problem list - Reported"
                }
              ]
            },
            "title": "Problem list"
          },
          {
            "text": {
              "status": "generated",
              "div": "<div xmlns=\"http://www.w3.org/1999/xhtml\"><table class=\"hl7__ips\"><tr><th>Medication</th><th>Since</th><th>Form</th><th>Dosage</th><th>Reason</th></tr><tr><td>Albuterol (as albuterol sulfate) 5 mg/mL solution for inhalation</td><td><span class=\"nb\">2025-02-16</span></td><td>-</td><td>2.5 mg (0.5 mL of 5 mg/mL solution) via nebulizer every 4 to 6 hours as needed</td><td>Pulmonary emphysema (disorder)</td></tr><tr><td>Amlodipine (as amlodipine besylate) 2.5 mg oral tablet</td><td><span class=\"nb\">2025-02-16</span></td><td>-</td><td>1 tablet (2.5 mg) by mouth once daily</td><td>Essential hypertension (disorder)</td></tr><tr><td>Lisinopril 10 mg oral tablet</td><td><span class=\"nb\">2025-02-16</span></td><td>-</td><td>1 tablet (10 mg) by mouth once daily</td><td>Essential hypertension (disorder)</td></tr><tr><td>60 ACTUAT Fluticasone propionate 0.25 MG/ACTUAT / salmeterol 0.05 MG/ACTUAT Dry Powder Inhaler</td><td><span class=\"nb\">2025-02-16</span></td><td>-</td><td>1 inhalation (0.25 mg/0.05 mg) twice daily</td><td>Pulmonary emphysema (disorder)</td></tr><tr><td>Acetaminophen 325 MG / Oxycodone Hydrochloride 10 MG Oral Tablet [Percocet]</td><td><span class=\"nb\">2025-02-16</span></td><td>-</td><td>1 tablet (325 mg acetaminophen / 10 mg oxycodone) every 6 hours as needed for pain</td><td>-</td></tr><tr><td>Naproxen sodium 220 mg oral capsule</td><td><span class=\"nb\">2017-09-21</span></td><td>-</td><td>1 tablet (220 mg) by mouth every 12 hours as needed</td><td>Osteoarthritis of knee</td></tr><tr><td>Vitamin B12 5 MG/ML Injectable Solution</td><td><span class=\"nb\">1992-05-10</span></td><td>-</td><td>1 mg (1 mL) intramuscularly once weekly</td><td>-</td></tr></table></div>"
            },
            "entry": [
              {
                "reference": "urn:uuid:ecd066c4-a96d-4648-96fb-ce7d6a5fecdc"
              },
              {
                "reference": "urn:uuid:9db75a0f-f631-46ae-92c2-c2189df324e4"
              },
              {
                "reference": "urn:uuid:f173715c-05f5-4bb4-993d-d2354c8fe9f2"
              },
              {
                "reference": "urn:uuid:b67b0c7a-21ed-4c67-a48d-5130b44020f4"
              },
              {
                "reference": "urn:uuid:0394c7cd-654f-44b4-b1df-edec6ab8b266"
              },
              {
                "reference": "urn:uuid:72260d7e-d260-4c4f-91db-830101089b2f"
              },
              {
                "reference": "urn:uuid:2fb09854-38f4-4c31-ace8-bebdf782b883"
              }
            ],
            "code": {
              "coding": [
                {
                  "system": "http://loinc.org",
                  "code": "10160-0",
                  "display": "History of Medication use Narrative"
                }
              ]
            },
            "title": "Medication list"
          },
          {
            "text": {
              "status": "generated",
              "div": "<div xmlns=\"http://www.w3.org/1999/xhtml\"><table class=\"hl7__ips\"><tr><th>Vaccine</th><th>Date</th></tr><tr><td>Influenza virus antigen only vaccine product</td><td><span class=\"nb\">16-Feb-2025</span></td></tr><tr><td>SARS-CoV-2 mRNA vaccine</td><td><span class=\"nb\">25-Apr-2021</span></td></tr><tr><td>Clostridium tetani toxoid antigen adsorbed only vaccine product</td><td><span class=\"nb\">24-Jan-2021</span></td></tr><tr><td>Live attenuated Human alphaherpesvirus 3 only vaccine product</td><td><span class=\"nb\">24-Jan-2021</span></td></tr></table></div>"
            },
            "entry": [
              {
                "reference": "urn:uuid:f520717d-7874-4384-8501-867c76bd0531"
              },
              {
                "reference": "urn:uuid:c40c50b2-d69d-4aca-a814-fe763e75957d"
              },
              {
                "reference": "urn:uuid:a6f725fb-43a3-456f-9515-0c4e80de7e90"
              },
              {
                "reference": "urn:uuid:441f07e2-4021-4c03-81d3-ff777c7a239c"
              }
            ],
            "code": {
              "coding": [
                {
                  "system": "http://loinc.org",
                  "code": "11369-6",
                  "display": "History of Immunization note"
                }
              ]
            },
            "title": "Immunizations list"
          },
          {
            "text": {
              "status": "generated",
              "div": "<div xmlns=\"http://www.w3.org/1999/xhtml\"><table class=\"hl7__ips\"><tr><th>Procedure</th><th>Date</th><th>Reason</th></tr><tr><td>Parturition</td><td><span class=\"nb\">12-Jul-2020</span></td><td>Normal pregnancy</td></tr></table></div>"
            },
            "entry": [
              {
                "reference": "urn:uuid:662c0bbd-fe24-4f21-88ce-67684c869831"
              }
            ],
            "code": {
              "coding": [
                {
                  "system": "http://loinc.org",
                  "code": "47519-4",
                  "display": "History of Procedures Document"
                }
              ]
            },
            "title": "Procedure History list"
          },
          {
            "text": {
              "status": "generated",
              "div": "<div xmlns=\"http://www.w3.org/1999/xhtml\"><table class=\"hl7__ips\"><tr><th>Allergy/Intolerance</th><th>Onset Date</th><th>Status</th><th>Type</th><th>Reaction</th></tr><tr><td></td><td>?</td><td>active</td><td>?</td><td></td></tr></table></div>"
            },
            "entry": [
              {
                "reference": "urn:uuid:108352a8-5ee1-408d-8280-a8603321fddc"
              }
            ],
            "code": {
              "coding": [
                {
                  "system": "http://loinc.org",
                  "code": "48765-2",
                  "display": "Allergies and adverse reactions Document"
                }
              ]
            },
            "title": "Allergies and Intolerances"
          },
          {
            "text": {
              "status": "generated",
              "div": "<div xmlns=\"http://www.w3.org/1999/xhtml\"><table class=\"hl7__ips\"><tr><th>Active Planned Care / Goals</th><th>Start Date</th><th>Reason</th></tr><tr><td>Musculoskeletal care</td><td><span class=\"nb\">21-Sep-2017</span></td><td>Osteoarthritis of knee</td></tr><tr><td><ul><li>Reduce knee pain severity to improve mobility and quality of life.</li><li>Increase ability to perform activities of daily living without knee limitation.</li><li>Achieve at least 150 minutes of moderate physical activity per week.</li></ul></td><td></td><td></td></tr><tr><td>Chronic obstructive pulmonary disease clinical management plan</td><td><span class=\"nb\">03-May-1992</span></td><td>Pulmonary emphysema (disorder)</td></tr><tr><td><ul><li>Minimize the number of acute COPD exacerbations requiring medical intervention over the next 12 months</li><li>Increase forced expiratory volume in 1 second (FEV1) to at least 1.5 liters</li><li>Maintain peripheral oxygen saturation (SpO2) at or above 92% at rest</li><li>Patient will abstain from tobacco use continuously</li><li>Patient will walk at least 300 meters in 6 minutes</li></ul></td><td></td><td></td></tr><tr><td>Lifestyle education regarding hypertension</td><td><span class=\"nb\">10-Jul-1988</span></td><td>Essential hypertension (disorder)</td></tr><tr><td><ul><li>Maintain blood pressure below 130/80 mmHg through lifestyle modifications</li><li>Limit daily sodium intake to less than 2.3 grams</li><li>Achieve at least 5% reduction in body weight</li><li>Engage in at least 150 minutes of moderate-intensity aerobic activity per week</li></ul></td><td></td><td></td></tr></table></div>"
            },
            "entry": [
              {
                "reference": "urn:uuid:806013cd-48c1-43e1-9026-099695f7622d"
              },
              {
                "reference": "urn:uuid:ee184653-856a-4fa2-9e21-e5ab0d611b7b"
              },
              {
                "reference": "urn:uuid:8acbf4c3-2b59-4772-885a-f4b23579b576"
              }
            ],
            "code": {
              "coding": [
                {
                  "system": "http://loinc.org",
                  "code": "18776-5",
                  "display": "Plan of care note"
                }
              ]
            },
            "title": "Care Plan"
          },
          {
            "text": {
              "status": "generated",
              "div": "<div xmlns=\"http://www.w3.org/1999/xhtml\"><table class=\"hl7__ips\"><tr><th>Vital Signs</th><th>2025-05-04</th><th>2025-02-16</th></tr><tr><td>Body temperature</td><td>37.4 Cel</td><td>-</td></tr><tr><td>Body Height</td><td>-</td><td>172 cm</td></tr><tr><td>Pain severity - 0-10 verbal numeric rating [Score] - Reported</td><td>-</td><td>4 {score}</td></tr><tr><td>Body Weight</td><td>-</td><td>83.6 kg</td></tr><tr><td>Body mass index (BMI) [Ratio]</td><td>-</td><td>28.3 kg/m2</td></tr><tr><td>Diastolic Blood Pressure</td><td>-</td><td>72 mm[Hg]</td></tr><tr><td>Systolic Blood Pressure</td><td>-</td><td>125 mm[Hg]</td></tr><tr><td>Heart rate</td><td>-</td><td>67 /min</td></tr><tr><td>Respiratory rate</td><td>-</td><td>13 /min</td></tr></table></div>"
            },
            "entry": [
              {
                "reference": "urn:uuid:d8d1074c-cc7e-46a4-b31c-26071f415640"
              },
              {
                "reference": "urn:uuid:f3c83d7c-c445-44f3-8fc8-c79fe5cd9ae4"
              },
              {
                "reference": "urn:uuid:4905737c-8a65-4fb0-9223-b15c4752db6d"
              },
              {
                "reference": "urn:uuid:959407c3-de94-412b-9a06-729fc053b597"
              },
              {
                "reference": "urn:uuid:2a3eb9bd-0d4d-44b8-89ff-eda85ec8b5e5"
              },
              {
                "reference": "urn:uuid:3c65b03b-cd3e-423e-97a8-2dd66ddaa29f"
              },
              {
                "reference": "urn:uuid:46288396-fb2a-462e-8a9b-056a00656366"
              },
              {
                "reference": "urn:uuid:195becf4-37fd-4d8b-8d73-1debff032270"
              },
              {
                "reference": "urn:uuid:6559d2cb-fb97-429c-b550-f0e6ed2071e4"
              }
            ],
            "code": {
              "coding": [
                {
                  "system": "http://loinc.org",
                  "code": "8716-3",
                  "display": "Vital signs note"
                }
              ]
            },
            "title": "Vital Signs"
          },
          {
            "text": {
              "status": "generated",
              "div": "<div xmlns=\"http://www.w3.org/1999/xhtml\"><table class=\"hl7__ips\">$<tr><td>[#] Births total</td><td>1</td></tr></table></div>"
            },
            "code": {
              "coding": [
                {
                  "system": "http://loinc.org",
                  "code": "10162-6",
                  "display": "History of pregnancies Narrative"
                }
              ]
            },
            "title": "Pregnancy History"
          },
          {
            "text": {
              "status": "generated",
              "div": "<div xmlns=\"http://www.w3.org/1999/xhtml\"><table class=\"hl7__ips\"><table class=\"hl7__ips\"><thead><tr><th>Recent Lab Observations</th><th>16-FEB-2025</th><th>Reference&#xA0;Range</th><th>Unit</th></tr></thead><tbody><tr><td>Leukocytes [#/volume] in Blood by Automated count</td><td>5.3</td><td>3.4 - 10.5</td><td>10*3/uL</td></tr><tr><td>Erythrocytes [#/volume] in Blood by Automated count</td><td>5.5</td><td>4.2 - 5.8</td><td>10*6/uL</td></tr><tr><td>Hemoglobin [Mass/volume] in Blood</td><td>15.9</td><td>12 - 16</td><td>g/dL</td></tr><tr><td>Hematocrit [Volume Fraction] of Blood by Automated count</td><td><strong>35.8 L</strong></td><td>36 - 48</td><td>%</td></tr><tr><td>MCV [Entitic volume] by Automated count</td><td>84.6</td><td>82 - 98</td><td>fL</td></tr><tr><td>MCH [Entitic mass] by Automated count</td><td>27.7</td><td>27 - 33</td><td>pg</td></tr><tr><td>MCHC [Mass/volume] by Automated count</td><td>33.7</td><td>31.5 - 36</td><td>g/dL</td></tr><tr><td>Erythrocyte distribution width [Entitic volume] by Automated count</td><td>39.0</td><td>36 - 55</td><td>fL</td></tr><tr><td>Platelets [#/volume] in Blood by Automated count</td><td>191.8</td><td>150 - 400</td><td>10*3/uL</td></tr><tr><td>Platelet distribution width [Entitic volume] in Blood by Automated count</td><td><strong>162.7 H</strong></td><td>11.6 - 17.4</td><td>fL</td></tr><tr><td>Platelet mean volume [Entitic volume] in Blood by Automated count</td><td><strong>12.2 H</strong></td><td>7.4 - 12</td><td>fL</td></tr></tbody></table></table></div>"
            },
            "entry": [
              {
                "reference": "urn:uuid:ed064246-ca5b-47df-911b-331775685585"
              },
              {
                "reference": "urn:uuid:cad3ec1c-013e-47e9-bcdb-98813acb0b1e"
              },
              {
                "reference": "urn:uuid:e0968486-02aa-4004-b33b-f4971b73cfcd"
              },
              {
                "reference": "urn:uuid:da0f972d-bab5-4da4-be8b-bff465d74bb8"
              },
              {
                "reference": "urn:uuid:c9ddafae-739c-4f71-846b-67b804dbf2e9"
              },
              {
                "reference": "urn:uuid:ffa394c0-d3c7-4e77-ada2-4c4b5bca9b0e"
              },
              {
                "reference": "urn:uuid:8205faaf-ef58-4093-a452-ff0e323903a9"
              },
              {
                "reference": "urn:uuid:94ff57ab-f829-4488-815d-920f0be85a2d"
              },
              {
                "reference": "urn:uuid:94922515-d26e-473a-9dfd-9838aaa0b713"
              },
              {
                "reference": "urn:uuid:bd9e76a5-8440-4dc6-bffe-45e7b271bf95"
              },
              {
                "reference": "urn:uuid:73c23aae-2b3e-445d-a673-743233e4f421"
              }
            ],
            "code": {
              "coding": [
                {
                  "system": "http://loinc.org",
                  "code": "30954-2",
                  "display": "Relevant diagnostic tests/laboratory data note"
                }
              ]
            },
            "title": "Relevant diagnostic tests/laboratory data"
          },
          {
            "text": {
              "status": "generated",
              "div": "<div xmlns=\"http://www.w3.org/1999/xhtml\"><table class=\"hl7__ips\"><tr><th>Device</th><th>Date (since)</th></tr><tr><td>Manual wheelchair (physical object)</td><td><span class=\"nb\">21-Sep-2017</span></td></tr><tr><td>Wheelchair accessory (physical object)</td><td><span class=\"nb\">21-Sep-2017</span></td></tr></table></div>"
            },
            "entry": [
              {
                "reference": "urn:uuid:5a56873b-05d4-416b-b36c-1e70c87c9866"
              },
              {
                "reference": "urn:uuid:a7db06bf-7545-4c6f-a3ab-6b4f3229b092"
              }
            ],
            "code": {
              "coding": [
                {
                  "system": "http://loinc.org",
                  "code": "46264-8",
                  "display": "History of medical device use"
                }
              ]
            },
            "title": "Device Use"
          }
        ],
        "title": "European Patient Summary",
        "status": "final",
        "subject": {
          "reference": "urn:uuid:54c9df02-a491-4bfb-9202-72b8af5fee75",
          "display": "Gülsen Dörschner"
        },
        "custodian": {
          "reference": "urn:uuid:ab269b06-1944-4161-b023-5e7a4c43afb6"
        },
        "date": "2025-02-16",
        "confidentiality": "N"
      }
    },
    {
      "fullUrl": "urn:uuid:54c9df02-a491-4bfb-9202-72b8af5fee75",
      "resource": {
        "resourceType": "Patient",
        "id": "54c9df02-a491-4bfb-9202-72b8af5fee75",
        "meta": {
          "security": [
            {
              "system": "http://terminology.hl7.org/CodeSystem/v3-ActReason",
              "code": "HTEST"
            },
            {
              "system": "http://terminology.hl7.org/CodeSystem/v3-ActReason",
              "code": "TRAIN"
            }
          ],
          "tag": [
            {
              "system": "https://synderai.net/fhir/CodeSystem/tags",
              "code": "synthetic",
              "display": "SYNDERAI Synthetic data"
            }
          ],
          "profile": [
            "http://hl7.eu/fhir/eps/StructureDefinition/patient-eu-eps"
          ]
        },
        "identifier": [
          {
            "type": {
              "coding": [
                {
                  "code": "PT",
                  "system": "http://terminology.hl7.org/CodeSystem/v2-0203"
                }
              ]
            },
            "system": "http://ec.europa.eu/identifier/eci",
            "value": "3549-346619-3"
          },
          {
            "type": {
              "coding": [
                {
                  "code": "MR",
                  "system": "http://terminology.hl7.org/CodeSystem/v2-0203"
                }
              ]
            },
            "system": "http://local.setting.eu/identifier",
            "value": "bcd9933a-4b4f-f81c-ee50-85330dd204e6"
          }
        ],
        "name": [
          {
            "family": "Dörschner"
          },
          {
            "given": [
              "Gülsen"
            ]
          },
          {
            "text": "Gülsen Dörschner"
          }
        ],
        "address": [
          {
            "line": [
              "Patbergplatz 571"
            ],
            "use": "home",
            "type": "physical",
            "postalCode": "56068",
            "city": "Koblenz",
            "country": "Germany"
          }
        ],
        "telecom": [
          {
            "system": "phone",
            "value": "(05189) 62305"
          }
        ],
        "extension": [
          {
            "url": "http://hl7.org/fhir/StructureDefinition/patient-nationality",
            "valueCodeableConcept": {
              "coding": [
                {
                  "code": "DE",
                  "system": "http://hl7.org/fhir/ValueSet/country"
                }
              ]
            }
          }
        ],
        "text": {
          "status": "generated",
          "div": "<div xmlns=\"http://www.w3.org/1999/xhtml\"><table class=\"hl7__ips\"><tr><td>Gülsen Dörschner</td><td>female</td><td>30-Jul-1970</td></tr></table></div>"
        },
        "gender": "female",
        "birthDate": "1970-07-30"
      }
    },
    {
      "fullUrl": "urn:uuid:7126e37b-ba73-44c6-80a2-787baca63f05",
      "resource": {
        "resourceType": "PractitionerRole",
        "id": "7126e37b-ba73-44c6-80a2-787baca63f05",
        "meta": {
          "profile": [
            "http://hl7.eu/fhir/base/StructureDefinition/practitionerRole-eu"
          ]
        },
        "text": {
          "status": "generated",
          "div": "<div xmlns=\"http://www.w3.org/1999/xhtml\"><table class=\"hl7__ips\">Provider Role Id 7126e37b-ba73-44c6-80a2-787baca63f05</table></div>"
        },
        "practitioner": {
          "reference": "urn:uuid:a3068ab7-8e33-4647-b3b2-e1674d88d53f"
        },
        "organization": {
          "reference": "urn:uuid:ab269b06-1944-4161-b023-5e7a4c43afb6"
        }
      }
    },
    {
      "fullUrl": "urn:uuid:a3068ab7-8e33-4647-b3b2-e1674d88d53f",
      "resource": {
        "resourceType": "Practitioner",
        "id": "a3068ab7-8e33-4647-b3b2-e1674d88d53f",
        "meta": {
          "profile": [
            "http://hl7.eu/fhir/base/StructureDefinition/practitioner-eu"
          ]
        },
        "name": [
          {
            "prefix": [
              "Dr."
            ],
            "given": [
              "Hel"
            ],
            "family": "Ping"
          }
        ],
        "text": {
          "status": "generated",
          "div": "<div xmlns=\"http://www.w3.org/1999/xhtml\"><table class=\"hl7__ips\">Dr. Hel Ping</table></div>"
        }
      }
    },
    {
      "fullUrl": "urn:uuid:ab269b06-1944-4161-b023-5e7a4c43afb6",
      "resource": {
        "resourceType": "Organization",
        "id": "ab269b06-1944-4161-b023-5e7a4c43afb6",
        "meta": {
          "profile": [
            "http://hl7.eu/fhir/base/StructureDefinition/organization-eu"
          ]
        },
        "identifier": [
          {
            "assigner": {
              "display": "HL7 Europe"
            },
            "system": "urn:oid:2.16.840.1.113883.2.51.999",
            "value": "b969ede3-4b34-41b8-b59e-3c19b09e50df"
          }
        ],
        "address": [
          {
            "line": [
              "Kardinal-Krementz-Straße 1-5"
            ],
            "city": "Koblenz",
            "postalCode": "56068",
            "country": "Germany"
          }
        ],
        "text": {
          "status": "generated",
          "div": "<div xmlns=\"http://www.w3.org/1999/xhtml\"><table class=\"hl7__ips\">Brüderhaus Koblenz</table></div>"
        },
        "name": "Brüderhaus Koblenz"
      }
    },
    {
      "fullUrl": "urn:uuid:3946e813-b87d-4276-8ddb-d388e0f62ed0",
      "resource": {
        "resourceType": "Condition",
        "id": "3946e813-b87d-4276-8ddb-d388e0f62ed0",
        "meta": {
          "profile": [
            "http://hl7.org/fhir/uv/ips/StructureDefinition/Condition-uv-ips"
          ]
        },
        "category": [
          {
            "coding": [
              {
                "code": "problem-list-item",
                "system": "http://terminology.hl7.org/CodeSystem/condition-category",
                "display": "Problem List Item"
              }
            ]
          }
        ],
        "code": {
          "coding": [
            {
              "code": "239873007",
              "system": "http://snomed.info/sct",
              "display": "Osteoarthritis of knee (disorder)"
            }
          ],
          "text": "Osteoarthritis of knee"
        },
        "text": {
          "status": "generated",
          "div": "<div xmlns=\"http://www.w3.org/1999/xhtml\"><table class=\"hl7__ips\"><tr><td>Osteoarthritis of knee</td><td><span class=\"nb\">21-Sep-2017</span></td><td>active</td></tr></table></div>"
        },
        "onsetDateTime": "2017-09-21",
        "subject": {
          "reference": "urn:uuid:",
          "display": "Gülsen Dörschner"
        },
        "asserter": {
          "reference": "urn:uuid:",
          "display": "Brüderhaus Koblenz"
        }
      }
    },
    {
      "fullUrl": "urn:uuid:6fee8a76-2691-40fa-8427-8f3b4ef31036",
      "resource": {
        "resourceType": "Condition",
        "id": "6fee8a76-2691-40fa-8427-8f3b4ef31036",
        "meta": {
          "profile": [
            "http://hl7.org/fhir/uv/ips/StructureDefinition/Condition-uv-ips"
          ]
        },
        "category": [
          {
            "coding": [
              {
                "code": "problem-list-item",
                "system": "http://terminology.hl7.org/CodeSystem/condition-category",
                "display": "Problem List Item"
              }
            ]
          }
        ],
        "code": {
          "coding": [
            {
              "code": "87433001",
              "system": "http://snomed.info/sct",
              "display": "Pulmonary emphysema (disorder)"
            }
          ],
          "text": "Pulmonary emphysema"
        },
        "text": {
          "status": "generated",
          "div": "<div xmlns=\"http://www.w3.org/1999/xhtml\"><table class=\"hl7__ips\"><tr><td>Pulmonary emphysema</td><td><span class=\"nb\">03-May-1992</span></td><td>active</td></tr></table></div>"
        },
        "onsetDateTime": "1992-05-03",
        "subject": {
          "reference": "urn:uuid:",
          "display": "Gülsen Dörschner"
        },
        "asserter": {
          "reference": "urn:uuid:",
          "display": "Brüderhaus Koblenz"
        }
      }
    },
    {
      "fullUrl": "urn:uuid:fd88cd97-cee1-4194-a275-70719794b5e2",
      "resource": {
        "resourceType": "Condition",
        "id": "fd88cd97-cee1-4194-a275-70719794b5e2",
        "meta": {
          "profile": [
            "http://hl7.org/fhir/uv/ips/StructureDefinition/Condition-uv-ips"
          ]
        },
        "category": [
          {
            "coding": [
              {
                "code": "problem-list-item",
                "system": "http://terminology.hl7.org/CodeSystem/condition-category",
                "display": "Problem List Item"
              }
            ]
          }
        ],
        "code": {
          "coding": [
            {
              "code": "271737000",
              "system": "http://snomed.info/sct",
              "display": "Anemia (disorder)"
            }
          ],
          "text": "Anemia"
        },
        "text": {
          "status": "generated",
          "div": "<div xmlns=\"http://www.w3.org/1999/xhtml\"><table class=\"hl7__ips\"><tr><td>Anemia</td><td><span class=\"nb\">03-May-1992</span></td><td>active</td></tr></table></div>"
        },
        "onsetDateTime": "1992-05-03",
        "subject": {
          "reference": "urn:uuid:",
          "display": "Gülsen Dörschner"
        },
        "asserter": {
          "reference": "urn:uuid:",
          "display": "Brüderhaus Koblenz"
        }
      }
    },
    {
      "fullUrl": "urn:uuid:b9bd76ed-f795-4b74-8579-27bd0ce91b1a",
      "resource": {
        "resourceType": "Condition",
        "id": "b9bd76ed-f795-4b74-8579-27bd0ce91b1a",
        "meta": {
          "profile": [
            "http://hl7.org/fhir/uv/ips/StructureDefinition/Condition-uv-ips"
          ]
        },
        "category": [
          {
            "coding": [
              {
                "code": "problem-list-item",
                "system": "http://terminology.hl7.org/CodeSystem/condition-category",
                "display": "Problem List Item"
              }
            ]
          }
        ],
        "code": {
          "coding": [
            {
              "code": "59621000",
              "system": "http://snomed.info/sct",
              "display": "Essential hypertension (disorder)"
            }
          ],
          "text": "Essential hypertension"
        },
        "text": {
          "status": "generated",
          "div": "<div xmlns=\"http://www.w3.org/1999/xhtml\"><table class=\"hl7__ips\"><tr><td>Essential hypertension</td><td><span class=\"nb\">10-Jul-1988</span></td><td>active</td></tr></table></div>"
        },
        "onsetDateTime": "1988-07-10",
        "subject": {
          "reference": "urn:uuid:",
          "display": "Gülsen Dörschner"
        },
        "asserter": {
          "reference": "urn:uuid:",
          "display": "Brüderhaus Koblenz"
        }
      }
    },
    {
      "fullUrl": "urn:uuid:ed6af7b0-56c1-42a9-b3e9-4cba9eb47e54",
      "resource": {
        "resourceType": "Condition",
        "id": "ed6af7b0-56c1-42a9-b3e9-4cba9eb47e54",
        "meta": {
          "profile": [
            "http://hl7.org/fhir/uv/ips/StructureDefinition/Condition-uv-ips"
          ]
        },
        "category": [
          {
            "coding": [
              {
                "code": "problem-list-item",
                "system": "http://terminology.hl7.org/CodeSystem/condition-category",
                "display": "Problem List Item"
              }
            ]
          }
        ],
        "code": {
          "coding": [
            {
              "code": "195662009",
              "system": "http://snomed.info/sct",
              "display": "Acute viral pharyngitis (disorder)"
            }
          ],
          "text": "Acute viral pharyngitis"
        },
        "text": {
          "status": "generated",
          "div": "<div xmlns=\"http://www.w3.org/1999/xhtml\"><table class=\"hl7__ips\"><tr><td><span class=\"grayedout\">Acute viral pharyngitis</span></td><td><span class=\"nb\">04-May-2025 - 13-May-2025</span></td><td><span class=\"grayedout\">inactive</span></td></tr></table></div>"
        },
        "onsetDateTime": "2025-05-04",
        "abatementDateTime": "2025-05-13",
        "subject": {
          "reference": "urn:uuid:",
          "display": "Gülsen Dörschner"
        },
        "asserter": {
          "reference": "urn:uuid:",
          "display": "Brüderhaus Koblenz"
        }
      }
    },
    {
      "fullUrl": "urn:uuid:0d955978-31c2-43b7-8d9a-eb889cd1022e",
      "resource": {
        "resourceType": "Medication",
        "id": "0d955978-31c2-43b7-8d9a-eb889cd1022e",
        "meta": {
          "profile": [
            "http://hl7.eu/fhir/eps/StructureDefinition/Medication-eu-eps"
          ]
        },
        "code": {
          "coding": [
            {
              "code": "1197460000",
              "system": "http://snomed.info/sct",
              "display": "Albuterol (as albuterol sulfate) 5 mg/mL solution for inhalation"
            }
          ],
          "text": "Albuterol (as albuterol sulfate) 5 mg/mL solution for inhalation"
        },
        "text": {
          "status": "generated",
          "div": "<div xmlns=\"http://www.w3.org/1999/xhtml\">Albuterol (as albuterol sulfate) 5 mg/mL solution for inhalation</div>"
        }
      }
    },
    {
      "fullUrl": "urn:uuid:ecd066c4-a96d-4648-96fb-ce7d6a5fecdc",
      "resource": {
        "resourceType": "MedicationStatement",
        "id": "ecd066c4-a96d-4648-96fb-ce7d6a5fecdc",
        "meta": {
          "profile": [
            "http://hl7.eu/fhir/eps/StructureDefinition/MedicationStatement-eu-eps"
          ]
        },
        "effectivePeriod": {
          "start": "2025-02-16"
        },
        "dosage": [
          {
            "doseAndRate": [
              {
                "doseQuantity": {
                  "value": 2.5,
                  "unit": "mg",
                  "system": "$ucum",
                  "code": "mg"
                }
              }
            ],
            "timing": {
              "repeat": {
                "frequency": 1,
                "period": 4,
                "periodUnit": "h"
              }
            },
            "text": "2.5 mg (0.5 mL of 5 mg/mL solution) via nebulizer every 4 to 6 hours as needed",
            "asNeededBoolean": true
          }
        ],
        "reasonCode": [
          {
            "coding": [
              {
                "code": "87433001",
                "system": "http://snomed.info/sct",
                "display": "Pulmonary emphysema (disorder)"
              }
            ]
          }
        ],
        "text": {
          "status": "generated",
          "div": "<div xmlns=\"http://www.w3.org/1999/xhtml\"><table class=\"hl7__ips first25\"><tr><th>Medication</th><th>Since</th><th>Form</th><th>Dosage</th><th>Reason</th></tr><tr><td>Albuterol (as albuterol sulfate) 5 mg/mL solution for inhalation</td><td><span class=\"nb\">2025-02-16</span></td><td>-</td><td>2.5 mg (0.5 mL of 5 mg/mL solution) via nebulizer every 4 to 6 hours as needed</td><td>Pulmonary emphysema (disorder)</td></tr></table></div>"
        },
        "status": "active",
        "medicationReference": {
          "reference": "urn:uuid:0d955978-31c2-43b7-8d9a-eb889cd1022e",
          "display": "Albuterol (as albuterol sulfate) 5 mg/mL solution for inhalation"
        },
        "subject": {
          "reference": "urn:uuid:54c9df02-a491-4bfb-9202-72b8af5fee75",
          "display": "Gülsen Dörschner"
        }
      }
    },
    {
      "fullUrl": "urn:uuid:db535cf6-0f93-4026-84fe-e9c274901b49",
      "resource": {
        "resourceType": "Medication",
        "id": "db535cf6-0f93-4026-84fe-e9c274901b49",
        "meta": {
          "profile": [
            "http://hl7.eu/fhir/eps/StructureDefinition/Medication-eu-eps"
          ]
        },
        "code": {
          "coding": [
            {
              "code": "1153431000",
              "system": "http://snomed.info/sct",
              "display": "Amlodipine (as amlodipine besylate) 2.5 mg oral tablet"
            }
          ],
          "text": "Amlodipine (as amlodipine besylate) 2.5 mg oral tablet"
        },
        "text": {
          "status": "generated",
          "div": "<div xmlns=\"http://www.w3.org/1999/xhtml\">Amlodipine (as amlodipine besylate) 2.5 mg oral tablet</div>"
        }
      }
    },
    {
      "fullUrl": "urn:uuid:9db75a0f-f631-46ae-92c2-c2189df324e4",
      "resource": {
        "resourceType": "MedicationStatement",
        "id": "9db75a0f-f631-46ae-92c2-c2189df324e4",
        "meta": {
          "profile": [
            "http://hl7.eu/fhir/eps/StructureDefinition/MedicationStatement-eu-eps"
          ]
        },
        "effectivePeriod": {
          "start": "2025-02-16"
        },
        "dosage": [
          {
            "doseAndRate": [
              {
                "doseQuantity": {
                  "value": 1,
                  "unit": "{tbl}",
                  "code": "{tbl}"
                }
              }
            ],
            "timing": {
              "repeat": {
                "frequency": 1,
                "period": 1,
                "periodUnit": "d"
              }
            },
            "text": "1 tablet (2.5 mg) by mouth once daily",
            "asNeededBoolean": false
          }
        ],
        "reasonCode": [
          {
            "coding": [
              {
                "code": "59621000",
                "system": "http://snomed.info/sct",
                "display": "Essential hypertension (disorder)"
              }
            ]
          }
        ],
        "text": {
          "status": "generated",
          "div": "<div xmlns=\"http://www.w3.org/1999/xhtml\"><table class=\"hl7__ips first25\"><tr><th>Medication</th><th>Since</th><th>Form</th><th>Dosage</th><th>Reason</th></tr><tr><td>Amlodipine (as amlodipine besylate) 2.5 mg oral tablet</td><td><span class=\"nb\">2025-02-16</span></td><td>-</td><td>1 tablet (2.5 mg) by mouth once daily</td><td>Essential hypertension (disorder)</td></tr></table></div>"
        },
        "status": "active",
        "medicationReference": {
          "reference": "urn:uuid:db535cf6-0f93-4026-84fe-e9c274901b49",
          "display": "Amlodipine (as amlodipine besylate) 2.5 mg oral tablet"
        },
        "subject": {
          "reference": "urn:uuid:54c9df02-a491-4bfb-9202-72b8af5fee75",
          "display": "Gülsen Dörschner"
        }
      }
    },
    {
      "fullUrl": "urn:uuid:d7929aa7-5439-45fb-80f3-ea43a6f6eb3c",
      "resource": {
        "resourceType": "Medication",
        "id": "d7929aa7-5439-45fb-80f3-ea43a6f6eb3c",
        "meta": {
          "profile": [
            "http://hl7.eu/fhir/eps/StructureDefinition/Medication-eu-eps"
          ]
        },
        "code": {
          "coding": [
            {
              "code": "318859000",
              "system": "http://snomed.info/sct",
              "display": "Lisinopril 10 mg oral tablet"
            }
          ],
          "text": "Lisinopril 10 mg oral tablet"
        },
        "text": {
          "status": "generated",
          "div": "<div xmlns=\"http://www.w3.org/1999/xhtml\">Lisinopril 10 mg oral tablet</div>"
        }
      }
    },
    {
      "fullUrl": "urn:uuid:f173715c-05f5-4bb4-993d-d2354c8fe9f2",
      "resource": {
        "resourceType": "MedicationStatement",
        "id": "f173715c-05f5-4bb4-993d-d2354c8fe9f2",
        "meta": {
          "profile": [
            "http://hl7.eu/fhir/eps/StructureDefinition/MedicationStatement-eu-eps"
          ]
        },
        "effectivePeriod": {
          "start": "2025-02-16"
        },
        "dosage": [
          {
            "doseAndRate": [
              {
                "doseQuantity": {
                  "value": 1,
                  "unit": "{tbl}",
                  "code": "{tbl}"
                }
              }
            ],
            "timing": {
              "repeat": {
                "frequency": 1,
                "period": 1,
                "periodUnit": "d"
              }
            },
            "text": "1 tablet (10 mg) by mouth once daily",
            "asNeededBoolean": false
          }
        ],
        "reasonCode": [
          {
            "coding": [
              {
                "code": "59621000",
                "system": "http://snomed.info/sct",
                "display": "Essential hypertension (disorder)"
              }
            ]
          }
        ],
        "text": {
          "status": "generated",
          "div": "<div xmlns=\"http://www.w3.org/1999/xhtml\"><table class=\"hl7__ips first25\"><tr><th>Medication</th><th>Since</th><th>Form</th><th>Dosage</th><th>Reason</th></tr><tr><td>Lisinopril 10 mg oral tablet</td><td><span class=\"nb\">2025-02-16</span></td><td>-</td><td>1 tablet (10 mg) by mouth once daily</td><td>Essential hypertension (disorder)</td></tr></table></div>"
        },
        "status": "active",
        "medicationReference": {
          "reference": "urn:uuid:d7929aa7-5439-45fb-80f3-ea43a6f6eb3c",
          "display": "Lisinopril 10 mg oral tablet"
        },
        "subject": {
          "reference": "urn:uuid:54c9df02-a491-4bfb-9202-72b8af5fee75",
          "display": "Gülsen Dörschner"
        }
      }
    },
    {
      "fullUrl": "urn:uuid:bc8a637e-4bf5-4fd5-b7b2-7ef060d17460",
      "resource": {
        "resourceType": "Medication",
        "id": "bc8a637e-4bf5-4fd5-b7b2-7ef060d17460",
        "meta": {
          "profile": [
            "http://hl7.eu/fhir/eps/StructureDefinition/Medication-eu-eps"
          ]
        },
        "code": {
          "coding": [
            {
              "code": "896209",
              "system": "http://www.nlm.nih.gov/research/umls/rxnorm",
              "display": "60 ACTUAT Fluticasone propionate 0.25 MG/ACTUAT / salmeterol 0.05 MG/ACTUAT Dry Powder Inhaler"
            }
          ],
          "text": "60 ACTUAT Fluticasone propionate 0.25 MG/ACTUAT / salmeterol 0.05 MG/ACTUAT Dry Powder Inhaler"
        },
        "text": {
          "status": "generated",
          "div": "<div xmlns=\"http://www.w3.org/1999/xhtml\">60 ACTUAT Fluticasone propionate 0.25 MG/ACTUAT / salmeterol 0.05 MG/ACTUAT Dry Powder Inhaler</div>"
        }
      }
    },
    {
      "fullUrl": "urn:uuid:b67b0c7a-21ed-4c67-a48d-5130b44020f4",
      "resource": {
        "resourceType": "MedicationStatement",
        "id": "b67b0c7a-21ed-4c67-a48d-5130b44020f4",
        "meta": {
          "profile": [
            "http://hl7.eu/fhir/eps/StructureDefinition/MedicationStatement-eu-eps"
          ]
        },
        "effectivePeriod": {
          "start": "2025-02-16"
        },
        "dosage": [
          {
            "doseAndRate": [
              {
                "doseQuantity": {
                  "value": 1,
                  "unit": "actuat",
                  "system": "$ucum",
                  "code": "{actuat}"
                }
              }
            ],
            "timing": {
              "repeat": {
                "frequency": 2,
                "period": 1,
                "periodUnit": "d"
              }
            },
            "text": "1 inhalation (0.25 mg/0.05 mg) twice daily",
            "asNeededBoolean": false
          }
        ],
        "reasonCode": [
          {
            "coding": [
              {
                "code": "87433001",
                "system": "http://snomed.info/sct",
                "display": "Pulmonary emphysema (disorder)"
              }
            ]
          }
        ],
        "text": {
          "status": "generated",
          "div": "<div xmlns=\"http://www.w3.org/1999/xhtml\"><table class=\"hl7__ips first25\"><tr><th>Medication</th><th>Since</th><th>Form</th><th>Dosage</th><th>Reason</th></tr><tr><td>60 ACTUAT Fluticasone propionate 0.25 MG/ACTUAT / salmeterol 0.05 MG/ACTUAT Dry Powder Inhaler</td><td><span class=\"nb\">2025-02-16</span></td><td>-</td><td>1 inhalation (0.25 mg/0.05 mg) twice daily</td><td>Pulmonary emphysema (disorder)</td></tr></table></div>"
        },
        "status": "active",
        "medicationReference": {
          "reference": "urn:uuid:bc8a637e-4bf5-4fd5-b7b2-7ef060d17460",
          "display": "60 ACTUAT Fluticasone propionate 0.25 MG/ACTUAT / salmeterol 0.05 MG/ACTUAT Dry Powder Inhaler"
        },
        "subject": {
          "reference": "urn:uuid:54c9df02-a491-4bfb-9202-72b8af5fee75",
          "display": "Gülsen Dörschner"
        }
      }
    },
    {
      "fullUrl": "urn:uuid:8a0e3be6-2b1e-44b6-a1ca-1a237e51bb16",
      "resource": {
        "resourceType": "Medication",
        "id": "8a0e3be6-2b1e-44b6-a1ca-1a237e51bb16",
        "meta": {
          "profile": [
            "http://hl7.eu/fhir/eps/StructureDefinition/Medication-eu-eps"
          ]
        },
        "code": {
          "coding": [
            {
              "code": "1049625",
              "system": "http://www.nlm.nih.gov/research/umls/rxnorm",
              "display": "Acetaminophen 325 MG / Oxycodone Hydrochloride 10 MG Oral Tablet [Percocet]"
            }
          ],
          "text": "Acetaminophen 325 MG / Oxycodone Hydrochloride 10 MG Oral Tablet [Percocet]"
        },
        "text": {
          "status": "generated",
          "div": "<div xmlns=\"http://www.w3.org/1999/xhtml\">Acetaminophen 325 MG / Oxycodone Hydrochloride 10 MG Oral Tablet [Percocet]</div>"
        }
      }
    },
    {
      "fullUrl": "urn:uuid:0394c7cd-654f-44b4-b1df-edec6ab8b266",
      "resource": {
        "resourceType": "MedicationStatement",
        "id": "0394c7cd-654f-44b4-b1df-edec6ab8b266",
        "meta": {
          "profile": [
            "http://hl7.eu/fhir/eps/StructureDefinition/MedicationStatement-eu-eps"
          ]
        },
        "effectivePeriod": {
          "start": "2025-02-16"
        },
        "dosage": [
          {
            "doseAndRate": [
              {
                "doseQuantity": {
                  "value": 1,
                  "unit": "{tbl}",
                  "system": "$ucum",
                  "code": "{tbl}"
                }
              }
            ],
            "timing": {
              "repeat": {
                "frequency": 4,
                "period": 1,
                "periodUnit": "d"
              }
            },
            "text": "1 tablet (325 mg acetaminophen / 10 mg oxycodone) every 6 hours as needed for pain",
            "asNeededBoolean": true
          }
        ],
        "text": {
          "status": "generated",
          "div": "<div xmlns=\"http://www.w3.org/1999/xhtml\"><table class=\"hl7__ips first25\"><tr><th>Medication</th><th>Since</th><th>Form</th><th>Dosage</th><th>Reason</th></tr><tr><td>Acetaminophen 325 MG / Oxycodone Hydrochloride 10 MG Oral Tablet [Percocet]</td><td><span class=\"nb\">2025-02-16</span></td><td>-</td><td>1 tablet (325 mg acetaminophen / 10 mg oxycodone) every 6 hours as needed for pain</td><td>-</td></tr></table></div>"
        },
        "status": "active",
        "medicationReference": {
          "reference": "urn:uuid:8a0e3be6-2b1e-44b6-a1ca-1a237e51bb16",
          "display": "Acetaminophen 325 MG / Oxycodone Hydrochloride 10 MG Oral Tablet [Percocet]"
        },
        "subject": {
          "reference": "urn:uuid:54c9df02-a491-4bfb-9202-72b8af5fee75",
          "display": "Gülsen Dörschner"
        }
      }
    },
    {
      "fullUrl": "urn:uuid:02e6f842-3f9e-44d1-bf92-f7dbb043cb3d",
      "resource": {
        "resourceType": "Medication",
        "id": "02e6f842-3f9e-44d1-bf92-f7dbb043cb3d",
        "meta": {
          "profile": [
            "http://hl7.eu/fhir/eps/StructureDefinition/Medication-eu-eps"
          ]
        },
        "code": {
          "coding": [
            {
              "code": "420276008",
              "system": "http://snomed.info/sct",
              "display": "Naproxen sodium 220 mg oral capsule"
            }
          ],
          "text": "Naproxen sodium 220 mg oral capsule"
        },
        "text": {
          "status": "generated",
          "div": "<div xmlns=\"http://www.w3.org/1999/xhtml\">Naproxen sodium 220 mg oral capsule</div>"
        }
      }
    },
    {
      "fullUrl": "urn:uuid:72260d7e-d260-4c4f-91db-830101089b2f",
      "resource": {
        "resourceType": "MedicationStatement",
        "id": "72260d7e-d260-4c4f-91db-830101089b2f",
        "meta": {
          "profile": [
            "http://hl7.eu/fhir/eps/StructureDefinition/MedicationStatement-eu-eps"
          ]
        },
        "effectivePeriod": {
          "start": "2017-09-21"
        },
        "dosage": [
          {
            "doseAndRate": [
              {
                "doseQuantity": {
                  "value": 1,
                  "unit": "{tbl}",
                  "system": "$ucum",
                  "code": "{tbl}"
                }
              }
            ],
            "timing": {
              "repeat": {
                "frequency": 2,
                "period": 1,
                "periodUnit": "d"
              }
            },
            "text": "1 tablet (220 mg) by mouth every 12 hours as needed",
            "asNeededBoolean": true
          }
        ],
        "reasonCode": [
          {
            "coding": [
              {
                "code": "239873007",
                "system": "http://snomed.info/sct",
                "display": "Osteoarthritis of knee"
              }
            ]
          }
        ],
        "text": {
          "status": "generated",
          "div": "<div xmlns=\"http://www.w3.org/1999/xhtml\"><table class=\"hl7__ips first25\"><tr><th>Medication</th><th>Since</th><th>Form</th><th>Dosage</th><th>Reason</th></tr><tr><td>Naproxen sodium 220 mg oral capsule</td><td><span class=\"nb\">2017-09-21</span></td><td>-</td><td>1 tablet (220 mg) by mouth every 12 hours as needed</td><td>Osteoarthritis of knee</td></tr></table></div>"
        },
        "status": "active",
        "medicationReference": {
          "reference": "urn:uuid:02e6f842-3f9e-44d1-bf92-f7dbb043cb3d",
          "display": "Naproxen sodium 220 mg oral capsule"
        },
        "subject": {
          "reference": "urn:uuid:54c9df02-a491-4bfb-9202-72b8af5fee75",
          "display": "Gülsen Dörschner"
        }
      }
    },
    {
      "fullUrl": "urn:uuid:2a5cb387-d1c9-4962-92fb-3a986a669f1b",
      "resource": {
        "resourceType": "Medication",
        "id": "2a5cb387-d1c9-4962-92fb-3a986a669f1b",
        "meta": {
          "profile": [
            "http://hl7.eu/fhir/eps/StructureDefinition/Medication-eu-eps"
          ]
        },
        "code": {
          "coding": [
            {
              "code": "2001499",
              "system": "http://www.nlm.nih.gov/research/umls/rxnorm",
              "display": "Vitamin B12 5 MG/ML Injectable Solution"
            }
          ],
          "text": "Vitamin B12 5 MG/ML Injectable Solution"
        },
        "text": {
          "status": "generated",
          "div": "<div xmlns=\"http://www.w3.org/1999/xhtml\">Vitamin B12 5 MG/ML Injectable Solution</div>"
        }
      }
    },
    {
      "fullUrl": "urn:uuid:2fb09854-38f4-4c31-ace8-bebdf782b883",
      "resource": {
        "resourceType": "MedicationStatement",
        "id": "2fb09854-38f4-4c31-ace8-bebdf782b883",
        "meta": {
          "profile": [
            "http://hl7.eu/fhir/eps/StructureDefinition/MedicationStatement-eu-eps"
          ]
        },
        "effectivePeriod": {
          "start": "1992-05-10"
        },
        "dosage": [
          {
            "doseAndRate": [
              {
                "doseQuantity": {
                  "value": 1,
                  "unit": "mg",
                  "code": "mg"
                }
              }
            ],
            "timing": {
              "repeat": {
                "frequency": 1,
                "period": 1,
                "periodUnit": "wk"
              }
            },
            "text": "1 mg (1 mL) intramuscularly once weekly",
            "asNeededBoolean": false
          }
        ],
        "text": {
          "status": "generated",
          "div": "<div xmlns=\"http://www.w3.org/1999/xhtml\"><table class=\"hl7__ips first25\"><tr><th>Medication</th><th>Since</th><th>Form</th><th>Dosage</th><th>Reason</th></tr><tr><td>Vitamin B12 5 MG/ML Injectable Solution</td><td><span class=\"nb\">1992-05-10</span></td><td>-</td><td>1 mg (1 mL) intramuscularly once weekly</td><td>-</td></tr></table></div>"
        },
        "status": "active",
        "medicationReference": {
          "reference": "urn:uuid:2a5cb387-d1c9-4962-92fb-3a986a669f1b",
          "display": "Vitamin B12 5 MG/ML Injectable Solution"
        },
        "subject": {
          "reference": "urn:uuid:54c9df02-a491-4bfb-9202-72b8af5fee75",
          "display": "Gülsen Dörschner"
        }
      }
    },
    {
      "fullUrl": "urn:uuid:f520717d-7874-4384-8501-867c76bd0531",
      "resource": {
        "resourceType": "Immunization",
        "id": "f520717d-7874-4384-8501-867c76bd0531",
        "meta": {
          "profile": [
            "http://hl7.org/fhir/uv/ips/StructureDefinition/Immunization-uv-ips"
          ]
        },
        "vaccineCode": {
          "coding": [
            {
              "code": "1181000221105",
              "system": "http://snomed.info/sct",
              "display": "Vaccine product containing Influenza virus antigen"
            },
            {
              "code": "J07BB02",
              "system": "http://www.whocc.no/atc",
              "display": "Influenza, inactivated, split virus"
            }
          ],
          "text": "Influenza virus antigen only vaccine product"
        },
        "site": {
          "coding": [
            {
              "code": "244979005",
              "system": "http://snomed.info/sct",
              "display": "Entire muscle of upper arm"
            }
          ],
          "text": "Entire muscle of upper arm"
        },
        "route": {
          "coding": [
            {
              "code": "78421000",
              "system": "http://snomed.info/sct",
              "display": "Intramuscular route"
            }
          ],
          "text": "Intramuscular route"
        },
        "text": {
          "status": "generated",
          "div": "<div xmlns=\"http://www.w3.org/1999/xhtml\"><table class=\"hl7__ips\"><tr><td>Influenza virus antigen only vaccine product</td><td><span class=\"nb\">16-Feb-2025</span></td></tr></table></div>"
        },
        "status": "completed",
        "patient": {
          "reference": "urn:uuid:54c9df02-a491-4bfb-9202-72b8af5fee75",
          "display": "Gülsen Dörschner"
        },
        "occurrenceDateTime": "2025-02-16",
        "lotNumber": "JS-2O76F3IH",
        "expirationDate": "2026-02-18"
      }
    },
    {
      "fullUrl": "urn:uuid:c40c50b2-d69d-4aca-a814-fe763e75957d",
      "resource": {
        "resourceType": "Immunization",
        "id": "c40c50b2-d69d-4aca-a814-fe763e75957d",
        "meta": {
          "profile": [
            "http://hl7.org/fhir/uv/ips/StructureDefinition/Immunization-uv-ips"
          ]
        },
        "vaccineCode": {
          "coding": [
            {
              "code": "1119349007",
              "system": "http://snomed.info/sct",
              "display": "Vaccine product containing SARS-CoV-2 mRNA"
            },
            {
              "code": "J07BX03",
              "system": "http://www.whocc.no/atc",
              "display": "COVID-19 mRNA vaccines"
            }
          ],
          "text": "SARS-CoV-2 mRNA vaccine"
        },
        "site": {
          "coding": [
            {
              "code": "244979005",
              "system": "http://snomed.info/sct",
              "display": "Entire muscle of upper arm"
            }
          ],
          "text": "Entire muscle of upper arm"
        },
        "route": {
          "coding": [
            {
              "code": "78421000",
              "system": "http://snomed.info/sct",
              "display": "Intramuscular route"
            }
          ],
          "text": "Intramuscular route"
        },
        "text": {
          "status": "generated",
          "div": "<div xmlns=\"http://www.w3.org/1999/xhtml\"><table class=\"hl7__ips\"><tr><td>SARS-CoV-2 mRNA vaccine</td><td><span class=\"nb\">25-Apr-2021</span></td></tr></table></div>"
        },
        "status": "completed",
        "patient": {
          "reference": "urn:uuid:54c9df02-a491-4bfb-9202-72b8af5fee75",
          "display": "Gülsen Dörschner"
        },
        "occurrenceDateTime": "2021-04-25",
        "lotNumber": "FS-Mi1Ms5P",
        "expirationDate": "2021-06-03"
      }
    },
    {
      "fullUrl": "urn:uuid:a6f725fb-43a3-456f-9515-0c4e80de7e90",
      "resource": {
        "resourceType": "Immunization",
        "id": "a6f725fb-43a3-456f-9515-0c4e80de7e90",
        "meta": {
          "profile": [
            "http://hl7.org/fhir/uv/ips/StructureDefinition/Immunization-uv-ips"
          ]
        },
        "vaccineCode": {
          "coding": [
            {
              "code": "777725002",
              "system": "http://snomed.info/sct",
              "display": "Vaccine product containing only Clostridium tetani toxoid antigen adsorbed"
            },
            {
              "code": "J07AM51",
              "system": "http://www.whocc.no/atc",
              "display": "Diphtheria-tetanus vaccines, adult type"
            }
          ],
          "text": "Clostridium tetani toxoid antigen adsorbed only vaccine product"
        },
        "site": {
          "coding": [
            {
              "code": "244979005",
              "system": "http://snomed.info/sct",
              "display": "Entire muscle of upper arm"
            }
          ],
          "text": "Entire muscle of upper arm"
        },
        "route": {
          "coding": [
            {
              "code": "78421000",
              "system": "http://snomed.info/sct",
              "display": "Intramuscular route"
            }
          ],
          "text": "Intramuscular route"
        },
        "text": {
          "status": "generated",
          "div": "<div xmlns=\"http://www.w3.org/1999/xhtml\"><table class=\"hl7__ips\"><tr><td>Clostridium tetani toxoid antigen adsorbed only vaccine product</td><td><span class=\"nb\">24-Jan-2021</span></td></tr></table></div>"
        },
        "status": "completed",
        "patient": {
          "reference": "urn:uuid:54c9df02-a491-4bfb-9202-72b8af5fee75",
          "display": "Gülsen Dörschner"
        },
        "occurrenceDateTime": "2021-01-24",
        "lotNumber": "VJ-eGbpI8ks",
        "expirationDate": "2021-12-06"
      }
    },
    {
      "fullUrl": "urn:uuid:441f07e2-4021-4c03-81d3-ff777c7a239c",
      "resource": {
        "resourceType": "Immunization",
        "id": "441f07e2-4021-4c03-81d3-ff777c7a239c",
        "meta": {
          "profile": [
            "http://hl7.org/fhir/uv/ips/StructureDefinition/Immunization-uv-ips"
          ]
        },
        "vaccineCode": {
          "coding": [
            {
              "code": "2221000221107",
              "system": "http://snomed.info/sct",
              "display": "Live attenuated Varicella-zoster vaccine"
            },
            {
              "code": "J07BK02",
              "system": "http://www.whocc.no/atc",
              "display": "Varicella-zoster vaccines"
            }
          ],
          "text": "Live attenuated Human alphaherpesvirus 3 only vaccine product"
        },
        "site": {
          "coding": [
            {
              "code": "368208006",
              "system": "http://snomed.info/sct",
              "display": "Left upper arm structure"
            }
          ],
          "text": "Left upper arm structure"
        },
        "route": {
          "coding": [
            {
              "code": "34206005",
              "system": "http://snomed.info/sct",
              "display": "Subcutaneous route"
            }
          ],
          "text": "Subcutaneous route"
        },
        "text": {
          "status": "generated",
          "div": "<div xmlns=\"http://www.w3.org/1999/xhtml\"><table class=\"hl7__ips\"><tr><td>Live attenuated Human alphaherpesvirus 3 only vaccine product</td><td><span class=\"nb\">24-Jan-2021</span></td></tr></table></div>"
        },
        "status": "completed",
        "patient": {
          "reference": "urn:uuid:54c9df02-a491-4bfb-9202-72b8af5fee75",
          "display": "Gülsen Dörschner"
        },
        "occurrenceDateTime": "2021-01-24",
        "lotNumber": "DI-Pzt8I",
        "expirationDate": "2021-06-30"
      }
    },
    {
      "fullUrl": "urn:uuid:662c0bbd-fe24-4f21-88ce-67684c869831",
      "resource": {
        "resourceType": "Procedure",
        "id": "662c0bbd-fe24-4f21-88ce-67684c869831",
        "meta": {
          "profile": [
            "http://hl7.org/fhir/uv/ips/StructureDefinition/Procedure-uv-ips"
          ]
        },
        "code": {
          "coding": [
            {
              "code": "66348005",
              "system": "http://snomed.info/sct",
              "display": "Childbirth"
            }
          ],
          "text": "Parturition"
        },
        "reasonCode": [
          {
            "coding": [
              {
                "code": "72892002",
                "system": "http://snomed.info/sct",
                "display": "Normal pregnancy"
              }
            ]
          }
        ],
        "text": {
          "status": "generated",
          "div": "<div xmlns=\"http://www.w3.org/1999/xhtml\"><table class=\"hl7__ips\"><tr><td>Parturition</td><td><span class=\"nb\">12-Jul-2020</span></td><td>Normal pregnancy</td></tr></table></div>"
        },
        "status": "completed",
        "performedDateTime": "2020-07-12",
        "subject": {
          "reference": "urn:uuid:",
          "display": "Gülsen Dörschner"
        }
      }
    },
    {
      "fullUrl": "urn:uuid:108352a8-5ee1-408d-8280-a8603321fddc",
      "resource": {
        "resourceType": "AllergyIntolerance",
        "id": "108352a8-5ee1-408d-8280-a8603321fddc",
        "meta": {
          "profile": [
            "http://hl7.eu/fhir/eps/StructureDefinition/allergyIntolerance-eu-eps"
          ]
        },
        "code": {
          "text": ""
        },
        "clinicalStatus": {
          "coding": [
            {
              "code": "active",
              "system": "http://terminology.hl7.org/CodeSystem/allergyintolerance-clinical"
            }
          ]
        },
        "text": {
          "status": "generated",
          "div": "<div xmlns=\"http://www.w3.org/1999/xhtml\"><table class=\"hl7__ips\"><tr><th>Allergy/Intolerance</th><th>Onset Date</th><th>Status</th><th>Type</th><th>Reaction</th></tr><tr><td></td><td>?</td><td>active</td><td>?</td><td></td></tr></table></div>"
        },
        "verificationStatus": {
          "coding": [
            {
              "code": "confirmed",
              "system": "http://terminology.hl7.org/CodeSystem/allergyintolerance-verification"
            }
          ]
        },
        "patient": {
          "reference": "urn:uuid:54c9df02-a491-4bfb-9202-72b8af5fee75",
          "display": "Gülsen Dörschner"
        },
        "_onsetDateTime": {
          "extension": [
            {
              "url": "http://hl7.org/fhir/StructureDefinition/data-absent-reason",
              "valueCode": "unknown"
            }
          ]
        }
      }
    },
    {
      "fullUrl": "urn:uuid:806013cd-48c1-43e1-9026-099695f7622d",
      "resource": {
        "resourceType": "CarePlan",
        "id": "806013cd-48c1-43e1-9026-099695f7622d",
        "category": [
          {
            "coding": [
              {
                "code": "assess-plan",
                "system": "http://terminology.hl7.org/CodeSystem/care-plan-category",
                "display": "Assessment and Plan"
              }
            ]
          }
        ],
        "activity": [
          {
            "detail": {
              "code": {
                "coding": [
                  {
                    "code": "408869004",
                    "system": "http://snomed.info/sct",
                    "display": "Musculoskeletal care (regime/therapy)"
                  }
                ]
              },
              "reasonCode": [
                {
                  "coding": [
                    {
                      "code": "239873007",
                      "system": "http://snomed.info/sct",
                      "display": "Osteoarthritis of knee"
                    }
                  ]
                }
              ],
              "status": "unknown",
              "description": "Musculoskeletal care",
              "kind": "Appointment"
            }
          }
        ],
        "period": {
          "start": "2017-09-21"
        },
        "goal": [
          {
            "reference": "urn:uuid:84986de3-05a3-4411-be2f-5ced0af7c629"
          },
          {
            "reference": "urn:uuid:5382cb72-1073-4989-9ae6-cd750b547a78"
          },
          {
            "reference": "urn:uuid:cda1242c-4221-4d25-a20c-61e60ca3022c"
          }
        ],
        "text": {
          "status": "generated",
          "div": "<div xmlns=\"http://www.w3.org/1999/xhtml\"><table class=\"hl7__ips first25\"><tr><th>Active Planned Care / Goals</th><th>Start Date</th><th>Reason</th></tr><tr><td>Musculoskeletal care</td><td><span class=\"nb\">21-Sep-2017</span></td><td>Osteoarthritis of knee</td></tr><tr><td><ul><li>Reduce knee pain severity to improve mobility and quality of life.</li><li>Increase ability to perform activities of daily living without knee limitation.</li><li>Achieve at least 150 minutes of moderate physical activity per week.</li></ul></td><td></td><td></td></tr></table></div>"
        },
        "status": "active",
        "intent": "plan",
        "subject": {
          "reference": "urn:uuid:54c9df02-a491-4bfb-9202-72b8af5fee75",
          "display": "Gülsen Dörschner"
        }
      }
    },
    {
      "fullUrl": "urn:uuid:ee184653-856a-4fa2-9e21-e5ab0d611b7b",
      "resource": {
        "resourceType": "CarePlan",
        "id": "ee184653-856a-4fa2-9e21-e5ab0d611b7b",
        "category": [
          {
            "coding": [
              {
                "code": "assess-plan",
                "system": "http://terminology.hl7.org/CodeSystem/care-plan-category",
                "display": "Assessment and Plan"
              }
            ]
          }
        ],
        "activity": [
          {
            "detail": {
              "code": {
                "coding": [
                  {
                    "code": "412776001",
                    "system": "http://snomed.info/sct",
                    "display": "Chronic obstructive pulmonary disease clinical management plan (qualifier value)"
                  }
                ]
              },
              "reasonCode": [
                {
                  "coding": [
                    {
                      "code": "87433001",
                      "system": "http://snomed.info/sct",
                      "display": "Pulmonary emphysema (disorder)"
                    }
                  ]
                }
              ],
              "status": "unknown",
              "description": "Chronic obstructive pulmonary disease clinical management plan",
              "kind": "Appointment"
            }
          }
        ],
        "period": {
          "start": "1992-05-03"
        },
        "goal": [
          {
            "reference": "urn:uuid:588f339a-69ca-423c-bc47-106766fe8f94"
          },
          {
            "reference": "urn:uuid:3c5b9a4e-8071-4911-9fcd-55cde94347cd"
          },
          {
            "reference": "urn:uuid:018b7a7c-1ea5-49cc-a91c-29c54d818288"
          },
          {
            "reference": "urn:uuid:617f0be8-0fee-45f1-af69-20facda76c67"
          },
          {
            "reference": "urn:uuid:2136517d-2a8c-48d6-8a69-f9c7496e2c4b"
          }
        ],
        "text": {
          "status": "generated",
          "div": "<div xmlns=\"http://www.w3.org/1999/xhtml\"><table class=\"hl7__ips first25\"><tr><th>Active Planned Care / Goals</th><th>Start Date</th><th>Reason</th></tr><tr><td>Chronic obstructive pulmonary disease clinical management plan</td><td><span class=\"nb\">03-May-1992</span></td><td>Pulmonary emphysema (disorder)</td></tr><tr><td><ul><li>Minimize the number of acute COPD exacerbations requiring medical intervention over the next 12 months</li><li>Increase forced expiratory volume in 1 second (FEV1) to at least 1.5 liters</li><li>Maintain peripheral oxygen saturation (SpO2) at or above 92% at rest</li><li>Patient will abstain from tobacco use continuously</li><li>Patient will walk at least 300 meters in 6 minutes</li></ul></td><td></td><td></td></tr></table></div>"
        },
        "status": "active",
        "intent": "plan",
        "subject": {
          "reference": "urn:uuid:54c9df02-a491-4bfb-9202-72b8af5fee75",
          "display": "Gülsen Dörschner"
        }
      }
    },
    {
      "fullUrl": "urn:uuid:8acbf4c3-2b59-4772-885a-f4b23579b576",
      "resource": {
        "resourceType": "CarePlan",
        "id": "8acbf4c3-2b59-4772-885a-f4b23579b576",
        "category": [
          {
            "coding": [
              {
                "code": "assess-plan",
                "system": "http://terminology.hl7.org/CodeSystem/care-plan-category",
                "display": "Assessment and Plan"
              }
            ]
          }
        ],
        "activity": [
          {
            "detail": {
              "code": {
                "coding": [
                  {
                    "code": "443402002",
                    "system": "http://snomed.info/sct",
                    "display": "Lifestyle education regarding hypertension (procedure)"
                  }
                ]
              },
              "reasonCode": [
                {
                  "coding": [
                    {
                      "code": "59621000",
                      "system": "http://snomed.info/sct",
                      "display": "Essential hypertension (disorder)"
                    }
                  ]
                }
              ],
              "status": "unknown",
              "description": "Lifestyle education regarding hypertension",
              "kind": "Appointment"
            }
          }
        ],
        "period": {
          "start": "1988-07-10"
        },
        "goal": [
          {
            "reference": "urn:uuid:9473676f-dbbf-4735-b069-2eef4d8eff3d"
          },
          {
            "reference": "urn:uuid:94f33ede-861c-4588-99f2-fae938fcfd0a"
          },
          {
            "reference": "urn:uuid:34d0fc10-4d84-4fa5-99a1-6f1205fbf40d"
          },
          {
            "reference": "urn:uuid:8a2ccbd0-3993-4199-b887-08360976024b"
          }
        ],
        "text": {
          "status": "generated",
          "div": "<div xmlns=\"http://www.w3.org/1999/xhtml\"><table class=\"hl7__ips first25\"><tr><th>Active Planned Care / Goals</th><th>Start Date</th><th>Reason</th></tr><tr><td>Lifestyle education regarding hypertension</td><td><span class=\"nb\">10-Jul-1988</span></td><td>Essential hypertension (disorder)</td></tr><tr><td><ul><li>Maintain blood pressure below 130/80 mmHg through lifestyle modifications</li><li>Limit daily sodium intake to less than 2.3 grams</li><li>Achieve at least 5% reduction in body weight</li><li>Engage in at least 150 minutes of moderate-intensity aerobic activity per week</li></ul></td><td></td><td></td></tr></table></div>"
        },
        "status": "active",
        "intent": "plan",
        "subject": {
          "reference": "urn:uuid:54c9df02-a491-4bfb-9202-72b8af5fee75",
          "display": "Gülsen Dörschner"
        }
      }
    },
    {
      "fullUrl": "urn:uuid:d8d1074c-cc7e-46a4-b31c-26071f415640",
      "resource": {
        "resourceType": "Observation",
        "id": "d8d1074c-cc7e-46a4-b31c-26071f415640",
        "meta": {
          "profile": [
            "http://hl7.org/fhir/StructureDefinition/vitalsigns"
          ]
        },
        "category": [
          {
            "coding": [
              {
                "system": "http://terminology.hl7.org/CodeSystem/observation-category",
                "code": "vital-signs",
                "display": "Vital Signs"
              }
            ]
          }
        ],
        "valueQuantity": {
          "value": 37.4,
          "code": "Cel",
          "unit": "Cel"
        },
        "text": {
          "status": "generated",
          "div": "<div xmlns=\"http://www.w3.org/1999/xhtml\"><table class=\"hl7__ips\"><tr><th>Vital Sign</th><th>Date</th><th>Measurement</th></tr><tr><td>Body temperature</td><td>04-May-2025</td><td>37.4 Cel</td></tr></table></div>"
        },
        "status": "final",
        "code": {
          "coding": [
            {
              "code": "$8310-5",
              "system": "http://loinc.org",
              "display": "Body temperature"
            }
          ]
        },
        "subject": {
          "reference": "urn:uuid:54c9df02-a491-4bfb-9202-72b8af5fee75",
          "display": "Gülsen Dörschner"
        },
        "effectiveDateTime": "2025-05-04"
      }
    },
    {
      "fullUrl": "urn:uuid:f3c83d7c-c445-44f3-8fc8-c79fe5cd9ae4",
      "resource": {
        "resourceType": "Observation",
        "id": "f3c83d7c-c445-44f3-8fc8-c79fe5cd9ae4",
        "meta": {
          "profile": [
            "http://hl7.org/fhir/StructureDefinition/vitalsigns"
          ]
        },
        "category": [
          {
            "coding": [
              {
                "system": "http://terminology.hl7.org/CodeSystem/observation-category",
                "code": "vital-signs",
                "display": "Vital Signs"
              }
            ]
          }
        ],
        "valueQuantity": {
          "value": 172,
          "code": "cm",
          "unit": "cm"
        },
        "text": {
          "status": "generated",
          "div": "<div xmlns=\"http://www.w3.org/1999/xhtml\"><table class=\"hl7__ips\"><tr><th>Vital Sign</th><th>Date</th><th>Measurement</th></tr><tr><td>Body Height</td><td>16-Feb-2025</td><td>172 cm</td></tr></table></div>"
        },
        "status": "final",
        "code": {
          "coding": [
            {
              "code": "$8302-2",
              "system": "http://loinc.org",
              "display": "Body Height"
            }
          ]
        },
        "subject": {
          "reference": "urn:uuid:54c9df02-a491-4bfb-9202-72b8af5fee75",
          "display": "Gülsen Dörschner"
        },
        "effectiveDateTime": "2025-02-16"
      }
    },
    {
      "fullUrl": "urn:uuid:4905737c-8a65-4fb0-9223-b15c4752db6d",
      "resource": {
        "resourceType": "Observation",
        "id": "4905737c-8a65-4fb0-9223-b15c4752db6d",
        "meta": {
          "profile": [
            "http://hl7.org/fhir/StructureDefinition/vitalsigns"
          ]
        },
        "category": [
          {
            "coding": [
              {
                "system": "http://terminology.hl7.org/CodeSystem/observation-category",
                "code": "vital-signs",
                "display": "Vital Signs"
              }
            ]
          }
        ],
        "valueQuantity": {
          "value": 4,
          "code": "{score}",
          "unit": "{score}"
        },
        "text": {
          "status": "generated",
          "div": "<div xmlns=\"http://www.w3.org/1999/xhtml\"><table class=\"hl7__ips\"><tr><th>Vital Sign</th><th>Date</th><th>Measurement</th></tr><tr><td>Pain severity - 0-10 verbal numeric rating [Score] - Reported</td><td>16-Feb-2025</td><td>4 {score}</td></tr></table></div>"
        },
        "status": "final",
        "code": {
          "coding": [
            {
              "code": "$72514-3",
              "system": "http://loinc.org",
              "display": "Pain severity - 0-10 verbal numeric rating [Score] - Reported"
            }
          ]
        },
        "subject": {
          "reference": "urn:uuid:54c9df02-a491-4bfb-9202-72b8af5fee75",
          "display": "Gülsen Dörschner"
        },
        "effectiveDateTime": "2025-02-16"
      }
    },
    {
      "fullUrl": "urn:uuid:959407c3-de94-412b-9a06-729fc053b597",
      "resource": {
        "resourceType": "Observation",
        "id": "959407c3-de94-412b-9a06-729fc053b597",
        "meta": {
          "profile": [
            "http://hl7.org/fhir/StructureDefinition/vitalsigns"
          ]
        },
        "category": [
          {
            "coding": [
              {
                "system": "http://terminology.hl7.org/CodeSystem/observation-category",
                "code": "vital-signs",
                "display": "Vital Signs"
              }
            ]
          }
        ],
        "valueQuantity": {
          "value": 83.6,
          "code": "kg",
          "unit": "kg"
        },
        "text": {
          "status": "generated",
          "div": "<div xmlns=\"http://www.w3.org/1999/xhtml\"><table class=\"hl7__ips\"><tr><th>Vital Sign</th><th>Date</th><th>Measurement</th></tr><tr><td>Body Weight</td><td>16-Feb-2025</td><td>83.6 kg</td></tr></table></div>"
        },
        "status": "final",
        "code": {
          "coding": [
            {
              "code": "$29463-7",
              "system": "http://loinc.org",
              "display": "Body Weight"
            }
          ]
        },
        "subject": {
          "reference": "urn:uuid:54c9df02-a491-4bfb-9202-72b8af5fee75",
          "display": "Gülsen Dörschner"
        },
        "effectiveDateTime": "2025-02-16"
      }
    },
    {
      "fullUrl": "urn:uuid:2a3eb9bd-0d4d-44b8-89ff-eda85ec8b5e5",
      "resource": {
        "resourceType": "Observation",
        "id": "2a3eb9bd-0d4d-44b8-89ff-eda85ec8b5e5",
        "meta": {
          "profile": [
            "http://hl7.org/fhir/StructureDefinition/vitalsigns"
          ]
        },
        "category": [
          {
            "coding": [
              {
                "system": "http://terminology.hl7.org/CodeSystem/observation-category",
                "code": "vital-signs",
                "display": "Vital Signs"
              }
            ]
          }
        ],
        "valueQuantity": {
          "value": 28.3,
          "code": "kg/m2",
          "unit": "kg/m2"
        },
        "text": {
          "status": "generated",
          "div": "<div xmlns=\"http://www.w3.org/1999/xhtml\"><table class=\"hl7__ips\"><tr><th>Vital Sign</th><th>Date</th><th>Measurement</th></tr><tr><td>Body mass index (BMI) [Ratio]</td><td>16-Feb-2025</td><td>28.3 kg/m2</td></tr></table></div>"
        },
        "status": "final",
        "code": {
          "coding": [
            {
              "code": "$39156-5",
              "system": "http://loinc.org",
              "display": "Body mass index (BMI) [Ratio]"
            }
          ]
        },
        "subject": {
          "reference": "urn:uuid:54c9df02-a491-4bfb-9202-72b8af5fee75",
          "display": "Gülsen Dörschner"
        },
        "effectiveDateTime": "2025-02-16"
      }
    },
    {
      "fullUrl": "urn:uuid:3c65b03b-cd3e-423e-97a8-2dd66ddaa29f",
      "resource": {
        "resourceType": "Observation",
        "id": "3c65b03b-cd3e-423e-97a8-2dd66ddaa29f",
        "meta": {
          "profile": [
            "http://hl7.org/fhir/StructureDefinition/vitalsigns"
          ]
        },
        "category": [
          {
            "coding": [
              {
                "system": "http://terminology.hl7.org/CodeSystem/observation-category",
                "code": "vital-signs",
                "display": "Vital Signs"
              }
            ]
          }
        ],
        "valueQuantity": {
          "value": 72,
          "code": "mm[Hg]",
          "unit": "mm[Hg]"
        },
        "text": {
          "status": "generated",
          "div": "<div xmlns=\"http://www.w3.org/1999/xhtml\"><table class=\"hl7__ips\"><tr><th>Vital Sign</th><th>Date</th><th>Measurement</th></tr><tr><td>Diastolic Blood Pressure</td><td>16-Feb-2025</td><td>72 mm[Hg]</td></tr></table></div>"
        },
        "status": "final",
        "code": {
          "coding": [
            {
              "code": "$8462-4",
              "system": "http://loinc.org",
              "display": "Diastolic Blood Pressure"
            }
          ]
        },
        "subject": {
          "reference": "urn:uuid:54c9df02-a491-4bfb-9202-72b8af5fee75",
          "display": "Gülsen Dörschner"
        },
        "effectiveDateTime": "2025-02-16"
      }
    },
    {
      "fullUrl": "urn:uuid:46288396-fb2a-462e-8a9b-056a00656366",
      "resource": {
        "resourceType": "Observation",
        "id": "46288396-fb2a-462e-8a9b-056a00656366",
        "meta": {
          "profile": [
            "http://hl7.org/fhir/StructureDefinition/vitalsigns"
          ]
        },
        "category": [
          {
            "coding": [
              {
                "system": "http://terminology.hl7.org/CodeSystem/observation-category",
                "code": "vital-signs",
                "display": "Vital Signs"
              }
            ]
          }
        ],
        "valueQuantity": {
          "value": 125,
          "code": "mm[Hg]",
          "unit": "mm[Hg]"
        },
        "text": {
          "status": "generated",
          "div": "<div xmlns=\"http://www.w3.org/1999/xhtml\"><table class=\"hl7__ips\"><tr><th>Vital Sign</th><th>Date</th><th>Measurement</th></tr><tr><td>Systolic Blood Pressure</td><td>16-Feb-2025</td><td>125 mm[Hg]</td></tr></table></div>"
        },
        "status": "final",
        "code": {
          "coding": [
            {
              "code": "$8480-6",
              "system": "http://loinc.org",
              "display": "Systolic Blood Pressure"
            }
          ]
        },
        "subject": {
          "reference": "urn:uuid:54c9df02-a491-4bfb-9202-72b8af5fee75",
          "display": "Gülsen Dörschner"
        },
        "effectiveDateTime": "2025-02-16"
      }
    },
    {
      "fullUrl": "urn:uuid:195becf4-37fd-4d8b-8d73-1debff032270",
      "resource": {
        "resourceType": "Observation",
        "id": "195becf4-37fd-4d8b-8d73-1debff032270",
        "meta": {
          "profile": [
            "http://hl7.org/fhir/StructureDefinition/vitalsigns"
          ]
        },
        "category": [
          {
            "coding": [
              {
                "system": "http://terminology.hl7.org/CodeSystem/observation-category",
                "code": "vital-signs",
                "display": "Vital Signs"
              }
            ]
          }
        ],
        "valueQuantity": {
          "value": 67,
          "code": "/min",
          "unit": "/min"
        },
        "text": {
          "status": "generated",
          "div": "<div xmlns=\"http://www.w3.org/1999/xhtml\"><table class=\"hl7__ips\"><tr><th>Vital Sign</th><th>Date</th><th>Measurement</th></tr><tr><td>Heart rate</td><td>16-Feb-2025</td><td>67 /min</td></tr></table></div>"
        },
        "status": "final",
        "code": {
          "coding": [
            {
              "code": "$8867-4",
              "system": "http://loinc.org",
              "display": "Heart rate"
            }
          ]
        },
        "subject": {
          "reference": "urn:uuid:54c9df02-a491-4bfb-9202-72b8af5fee75",
          "display": "Gülsen Dörschner"
        },
        "effectiveDateTime": "2025-02-16"
      }
    },
    {
      "fullUrl": "urn:uuid:6559d2cb-fb97-429c-b550-f0e6ed2071e4",
      "resource": {
        "resourceType": "Observation",
        "id": "6559d2cb-fb97-429c-b550-f0e6ed2071e4",
        "meta": {
          "profile": [
            "http://hl7.org/fhir/StructureDefinition/vitalsigns"
          ]
        },
        "category": [
          {
            "coding": [
              {
                "system": "http://terminology.hl7.org/CodeSystem/observation-category",
                "code": "vital-signs",
                "display": "Vital Signs"
              }
            ]
          }
        ],
        "valueQuantity": {
          "value": 13,
          "code": "/min",
          "unit": "/min"
        },
        "text": {
          "status": "generated",
          "div": "<div xmlns=\"http://www.w3.org/1999/xhtml\"><table class=\"hl7__ips\"><tr><th>Vital Sign</th><th>Date</th><th>Measurement</th></tr><tr><td>Respiratory rate</td><td>16-Feb-2025</td><td>13 /min</td></tr></table></div>"
        },
        "status": "final",
        "code": {
          "coding": [
            {
              "code": "$9279-1",
              "system": "http://loinc.org",
              "display": "Respiratory rate"
            }
          ]
        },
        "subject": {
          "reference": "urn:uuid:54c9df02-a491-4bfb-9202-72b8af5fee75",
          "display": "Gülsen Dörschner"
        },
        "effectiveDateTime": "2025-02-16"
      }
    },
    {
      "fullUrl": "urn:uuid:ed064246-ca5b-47df-911b-331775685585",
      "resource": {
        "resourceType": "Observation",
        "id": "ed064246-ca5b-47df-911b-331775685585",
        "meta": {
          "profile": [
            "http://hl7.eu/fhir/laboratory/StructureDefinition/Observation-resultslab-eu-lab"
          ]
        },
        "performer": [
          {
            "display": "The Central European Lab"
          }
        ],
        "category": [
          {
            "coding": [
              {
                "system": "http://terminology.hl7.org/CodeSystem/observation-category",
                "code": "laboratory"
              }
            ]
          }
        ],
        "code": {
          "coding": [
            {
              "code": "6690-2",
              "system": "http://loinc.org",
              "display": "Leukocytes [#/volume] in Blood by Automated count"
            }
          ],
          "text": "Leukocytes [#/volume] in Blood by Automated count"
        },
        "valueQuantity": {
          "system": "http://unitsofmeasure.org",
          "value": 5.3,
          "unit": "10*3/uL",
          "code": "10*3/uL"
        },
        "referenceRange": [
          {
            "low": {
              "value": 3.4,
              "code": "10*3/uL",
              "system": "http://unitsofmeasure.org"
            }
          },
          {
            "high": {
              "value": 10.5,
              "code": "10*3/uL",
              "system": "http://unitsofmeasure.org"
            }
          }
        ],
        "text": {
          "status": "generated",
          "div": "<div xmlns=\"http://www.w3.org/1999/xhtml\"><table class=\"hl7__eu__lab__report\"><tr><th>Test</th><th>16-Feb-2025</th><th>Reference&#xA0;Range</th><th>Unit</th></tr><tr><td>Leukocytes [#/volume] in Blood by Automated count</td><td>5.3</td><td>3.4 - 10.5</td><td></td><td>10*3/uL</td></tr></table></div>"
        },
        "status": "final",
        "subject": {
          "reference": "urn:uuid:54c9df02-a491-4bfb-9202-72b8af5fee75",
          "display": "Gülsen Dörschner"
        },
        "effectiveDateTime": "2025-02-16T21:09:08Z"
      }
    },
    {
      "fullUrl": "urn:uuid:cad3ec1c-013e-47e9-bcdb-98813acb0b1e",
      "resource": {
        "resourceType": "Observation",
        "id": "cad3ec1c-013e-47e9-bcdb-98813acb0b1e",
        "meta": {
          "profile": [
            "http://hl7.eu/fhir/laboratory/StructureDefinition/Observation-resultslab-eu-lab"
          ]
        },
        "performer": [
          {
            "display": "The Central European Lab"
          }
        ],
        "category": [
          {
            "coding": [
              {
                "system": "http://terminology.hl7.org/CodeSystem/observation-category",
                "code": "laboratory"
              }
            ]
          }
        ],
        "code": {
          "coding": [
            {
              "code": "789-8",
              "system": "http://loinc.org",
              "display": "Erythrocytes [#/volume] in Blood by Automated count"
            }
          ],
          "text": "Erythrocytes [#/volume] in Blood by Automated count"
        },
        "valueQuantity": {
          "system": "http://unitsofmeasure.org",
          "value": 5.5,
          "unit": "10*6/uL",
          "code": "10*6/uL"
        },
        "referenceRange": [
          {
            "low": {
              "value": 4.2,
              "code": "10*6/uL",
              "system": "http://unitsofmeasure.org"
            }
          },
          {
            "high": {
              "value": 5.8,
              "code": "10*6/uL",
              "system": "http://unitsofmeasure.org"
            }
          }
        ],
        "text": {
          "status": "generated",
          "div": "<div xmlns=\"http://www.w3.org/1999/xhtml\"><table class=\"hl7__eu__lab__report\"><tr><th>Test</th><th>16-Feb-2025</th><th>Reference&#xA0;Range</th><th>Unit</th></tr><tr><td>Erythrocytes [#/volume] in Blood by Automated count</td><td>5.5</td><td>4.2 - 5.8</td><td></td><td>10*6/uL</td></tr></table></div>"
        },
        "status": "final",
        "subject": {
          "reference": "urn:uuid:54c9df02-a491-4bfb-9202-72b8af5fee75",
          "display": "Gülsen Dörschner"
        },
        "effectiveDateTime": "2025-02-16T21:09:08Z"
      }
    },
    {
      "fullUrl": "urn:uuid:e0968486-02aa-4004-b33b-f4971b73cfcd",
      "resource": {
        "resourceType": "Observation",
        "id": "e0968486-02aa-4004-b33b-f4971b73cfcd",
        "meta": {
          "profile": [
            "http://hl7.eu/fhir/laboratory/StructureDefinition/Observation-resultslab-eu-lab"
          ]
        },
        "performer": [
          {
            "display": "The Central European Lab"
          }
        ],
        "category": [
          {
            "coding": [
              {
                "system": "http://terminology.hl7.org/CodeSystem/observation-category",
                "code": "laboratory"
              }
            ]
          }
        ],
        "code": {
          "coding": [
            {
              "code": "718-7",
              "system": "http://loinc.org",
              "display": "Hemoglobin [Mass/volume] in Blood"
            }
          ],
          "text": "Hemoglobin [Mass/volume] in Blood"
        },
        "valueQuantity": {
          "system": "http://unitsofmeasure.org",
          "value": 15.9,
          "unit": "g/dL",
          "code": "g/dL"
        },
        "referenceRange": [
          {
            "low": {
              "value": 12,
              "code": "g/dL",
              "system": "http://unitsofmeasure.org"
            }
          },
          {
            "high": {
              "value": 16,
              "code": "g/dL",
              "system": "http://unitsofmeasure.org"
            }
          }
        ],
        "text": {
          "status": "generated",
          "div": "<div xmlns=\"http://www.w3.org/1999/xhtml\"><table class=\"hl7__eu__lab__report\"><tr><th>Test</th><th>16-Feb-2025</th><th>Reference&#xA0;Range</th><th>Unit</th></tr><tr><td>Hemoglobin [Mass/volume] in Blood</td><td>15.9</td><td>12 - 16</td><td></td><td>g/dL</td></tr></table></div>"
        },
        "status": "final",
        "subject": {
          "reference": "urn:uuid:54c9df02-a491-4bfb-9202-72b8af5fee75",
          "display": "Gülsen Dörschner"
        },
        "effectiveDateTime": "2025-02-16T21:09:08Z"
      }
    },
    {
      "fullUrl": "urn:uuid:da0f972d-bab5-4da4-be8b-bff465d74bb8",
      "resource": {
        "resourceType": "Observation",
        "id": "da0f972d-bab5-4da4-be8b-bff465d74bb8",
        "meta": {
          "profile": [
            "http://hl7.eu/fhir/laboratory/StructureDefinition/Observation-resultslab-eu-lab"
          ]
        },
        "performer": [
          {
            "display": "The Central European Lab"
          }
        ],
        "category": [
          {
            "coding": [
              {
                "system": "http://terminology.hl7.org/CodeSystem/observation-category",
                "code": "laboratory"
              }
            ]
          }
        ],
        "code": {
          "coding": [
            {
              "code": "4544-3",
              "system": "http://loinc.org",
              "display": "Hematocrit [Volume Fraction] of Blood by Automated count"
            }
          ],
          "text": "Hematocrit [Volume Fraction] of Blood by Automated count"
        },
        "valueQuantity": {
          "system": "http://unitsofmeasure.org",
          "value": 35.8,
          "unit": "%",
          "code": "%"
        },
        "referenceRange": [
          {
            "low": {
              "value": 36,
              "code": "%",
              "system": "http://unitsofmeasure.org"
            }
          },
          {
            "high": {
              "value": 48,
              "code": "%",
              "system": "http://unitsofmeasure.org"
            }
          }
        ],
        "interpretation": [
          {
            "coding": [
              {
                "code": "L",
                "system": "http://terminology.hl7.org/CodeSystem/v3-ObservationInterpretation",
                "display": "Low"
              }
            ]
          }
        ],
        "text": {
          "status": "generated",
          "div": "<div xmlns=\"http://www.w3.org/1999/xhtml\"><table class=\"hl7__eu__lab__report\"><tr><th>Test</th><th>16-Feb-2025</th><th>Reference&#xA0;Range</th><th>Unit</th></tr><tr><td>Hematocrit [Volume Fraction] of Blood by Automated count</td><td>35.8</td><td>36 - 48</td><td>L</td><td>%</td></tr></table></div>"
        },
        "status": "final",
        "subject": {
          "reference": "urn:uuid:54c9df02-a491-4bfb-9202-72b8af5fee75",
          "display": "Gülsen Dörschner"
        },
        "effectiveDateTime": "2025-02-16T21:09:08Z"
      }
    },
    {
      "fullUrl": "urn:uuid:c9ddafae-739c-4f71-846b-67b804dbf2e9",
      "resource": {
        "resourceType": "Observation",
        "id": "c9ddafae-739c-4f71-846b-67b804dbf2e9",
        "meta": {
          "profile": [
            "http://hl7.eu/fhir/laboratory/StructureDefinition/Observation-resultslab-eu-lab"
          ]
        },
        "performer": [
          {
            "display": "The Central European Lab"
          }
        ],
        "category": [
          {
            "coding": [
              {
                "system": "http://terminology.hl7.org/CodeSystem/observation-category",
                "code": "laboratory"
              }
            ]
          }
        ],
        "code": {
          "coding": [
            {
              "code": "787-2",
              "system": "http://loinc.org",
              "display": "MCV [Entitic volume] by Automated count"
            }
          ],
          "text": "MCV [Entitic volume] by Automated count"
        },
        "valueQuantity": {
          "system": "http://unitsofmeasure.org",
          "value": 84.6,
          "unit": "fL",
          "code": "fL"
        },
        "referenceRange": [
          {
            "low": {
              "value": 82,
              "code": "fL",
              "system": "http://unitsofmeasure.org"
            }
          },
          {
            "high": {
              "value": 98,
              "code": "fL",
              "system": "http://unitsofmeasure.org"
            }
          }
        ],
        "text": {
          "status": "generated",
          "div": "<div xmlns=\"http://www.w3.org/1999/xhtml\"><table class=\"hl7__eu__lab__report\"><tr><th>Test</th><th>16-Feb-2025</th><th>Reference&#xA0;Range</th><th>Unit</th></tr><tr><td>MCV [Entitic volume] by Automated count</td><td>84.6</td><td>82 - 98</td><td></td><td>fL</td></tr></table></div>"
        },
        "status": "final",
        "subject": {
          "reference": "urn:uuid:54c9df02-a491-4bfb-9202-72b8af5fee75",
          "display": "Gülsen Dörschner"
        },
        "effectiveDateTime": "2025-02-16T21:09:08Z"
      }
    },
    {
      "fullUrl": "urn:uuid:ffa394c0-d3c7-4e77-ada2-4c4b5bca9b0e",
      "resource": {
        "resourceType": "Observation",
        "id": "ffa394c0-d3c7-4e77-ada2-4c4b5bca9b0e",
        "meta": {
          "profile": [
            "http://hl7.eu/fhir/laboratory/StructureDefinition/Observation-resultslab-eu-lab"
          ]
        },
        "performer": [
          {
            "display": "The Central European Lab"
          }
        ],
        "category": [
          {
            "coding": [
              {
                "system": "http://terminology.hl7.org/CodeSystem/observation-category",
                "code": "laboratory"
              }
            ]
          }
        ],
        "code": {
          "coding": [
            {
              "code": "785-6",
              "system": "http://loinc.org",
              "display": "MCH [Entitic mass] by Automated count"
            }
          ],
          "text": "MCH [Entitic mass] by Automated count"
        },
        "valueQuantity": {
          "system": "http://unitsofmeasure.org",
          "value": 27.7,
          "unit": "pg",
          "code": "pg"
        },
        "referenceRange": [
          {
            "low": {
              "value": 27,
              "code": "pg",
              "system": "http://unitsofmeasure.org"
            }
          },
          {
            "high": {
              "value": 33,
              "code": "pg",
              "system": "http://unitsofmeasure.org"
            }
          }
        ],
        "text": {
          "status": "generated",
          "div": "<div xmlns=\"http://www.w3.org/1999/xhtml\"><table class=\"hl7__eu__lab__report\"><tr><th>Test</th><th>16-Feb-2025</th><th>Reference&#xA0;Range</th><th>Unit</th></tr><tr><td>MCH [Entitic mass] by Automated count</td><td>27.7</td><td>27 - 33</td><td></td><td>pg</td></tr></table></div>"
        },
        "status": "final",
        "subject": {
          "reference": "urn:uuid:54c9df02-a491-4bfb-9202-72b8af5fee75",
          "display": "Gülsen Dörschner"
        },
        "effectiveDateTime": "2025-02-16T21:09:08Z"
      }
    },
    {
      "fullUrl": "urn:uuid:8205faaf-ef58-4093-a452-ff0e323903a9",
      "resource": {
        "resourceType": "Observation",
        "id": "8205faaf-ef58-4093-a452-ff0e323903a9",
        "meta": {
          "profile": [
            "http://hl7.eu/fhir/laboratory/StructureDefinition/Observation-resultslab-eu-lab"
          ]
        },
        "performer": [
          {
            "display": "The Central European Lab"
          }
        ],
        "category": [
          {
            "coding": [
              {
                "system": "http://terminology.hl7.org/CodeSystem/observation-category",
                "code": "laboratory"
              }
            ]
          }
        ],
        "code": {
          "coding": [
            {
              "code": "786-4",
              "system": "http://loinc.org",
              "display": "MCHC [Mass/volume] by Automated count"
            }
          ],
          "text": "MCHC [Mass/volume] by Automated count"
        },
        "valueQuantity": {
          "system": "http://unitsofmeasure.org",
          "value": 33.7,
          "unit": "g/dL",
          "code": "g/dL"
        },
        "referenceRange": [
          {
            "low": {
              "value": 31.5,
              "code": "g/dL",
              "system": "http://unitsofmeasure.org"
            }
          },
          {
            "high": {
              "value": 36,
              "code": "g/dL",
              "system": "http://unitsofmeasure.org"
            }
          }
        ],
        "text": {
          "status": "generated",
          "div": "<div xmlns=\"http://www.w3.org/1999/xhtml\"><table class=\"hl7__eu__lab__report\"><tr><th>Test</th><th>16-Feb-2025</th><th>Reference&#xA0;Range</th><th>Unit</th></tr><tr><td>MCHC [Mass/volume] by Automated count</td><td>33.7</td><td>31.5 - 36</td><td></td><td>g/dL</td></tr></table></div>"
        },
        "status": "final",
        "subject": {
          "reference": "urn:uuid:54c9df02-a491-4bfb-9202-72b8af5fee75",
          "display": "Gülsen Dörschner"
        },
        "effectiveDateTime": "2025-02-16T21:09:08Z"
      }
    },
    {
      "fullUrl": "urn:uuid:94ff57ab-f829-4488-815d-920f0be85a2d",
      "resource": {
        "resourceType": "Observation",
        "id": "94ff57ab-f829-4488-815d-920f0be85a2d",
        "meta": {
          "profile": [
            "http://hl7.eu/fhir/laboratory/StructureDefinition/Observation-resultslab-eu-lab"
          ]
        },
        "performer": [
          {
            "display": "The Central European Lab"
          }
        ],
        "category": [
          {
            "coding": [
              {
                "system": "http://terminology.hl7.org/CodeSystem/observation-category",
                "code": "laboratory"
              }
            ]
          }
        ],
        "code": {
          "coding": [
            {
              "code": "21000-5",
              "system": "http://loinc.org",
              "display": "Erythrocyte distribution width [Entitic volume] by Automated count"
            }
          ],
          "text": "Erythrocyte distribution width [Entitic volume] by Automated count"
        },
        "valueQuantity": {
          "system": "http://unitsofmeasure.org",
          "value": 39,
          "unit": "fL",
          "code": "fL"
        },
        "referenceRange": [
          {
            "low": {
              "value": 36,
              "code": "fL",
              "system": "http://unitsofmeasure.org"
            }
          },
          {
            "high": {
              "value": 55,
              "code": "fL",
              "system": "http://unitsofmeasure.org"
            }
          }
        ],
        "text": {
          "status": "generated",
          "div": "<div xmlns=\"http://www.w3.org/1999/xhtml\"><table class=\"hl7__eu__lab__report\"><tr><th>Test</th><th>16-Feb-2025</th><th>Reference&#xA0;Range</th><th>Unit</th></tr><tr><td>Erythrocyte distribution width [Entitic volume] by Automated count</td><td>39.0</td><td>36 - 55</td><td></td><td>fL</td></tr></table></div>"
        },
        "status": "final",
        "subject": {
          "reference": "urn:uuid:54c9df02-a491-4bfb-9202-72b8af5fee75",
          "display": "Gülsen Dörschner"
        },
        "effectiveDateTime": "2025-02-16T21:09:08Z"
      }
    },
    {
      "fullUrl": "urn:uuid:94922515-d26e-473a-9dfd-9838aaa0b713",
      "resource": {
        "resourceType": "Observation",
        "id": "94922515-d26e-473a-9dfd-9838aaa0b713",
        "meta": {
          "profile": [
            "http://hl7.eu/fhir/laboratory/StructureDefinition/Observation-resultslab-eu-lab"
          ]
        },
        "performer": [
          {
            "display": "The Central European Lab"
          }
        ],
        "category": [
          {
            "coding": [
              {
                "system": "http://terminology.hl7.org/CodeSystem/observation-category",
                "code": "laboratory"
              }
            ]
          }
        ],
        "code": {
          "coding": [
            {
              "code": "777-3",
              "system": "http://loinc.org",
              "display": "Platelets [#/volume] in Blood by Automated count"
            }
          ],
          "text": "Platelets [#/volume] in Blood by Automated count"
        },
        "valueQuantity": {
          "system": "http://unitsofmeasure.org",
          "value": 191.8,
          "unit": "10*3/uL",
          "code": "10*3/uL"
        },
        "referenceRange": [
          {
            "low": {
              "value": 150,
              "code": "10*3/uL",
              "system": "http://unitsofmeasure.org"
            }
          },
          {
            "high": {
              "value": 400,
              "code": "10*3/uL",
              "system": "http://unitsofmeasure.org"
            }
          }
        ],
        "text": {
          "status": "generated",
          "div": "<div xmlns=\"http://www.w3.org/1999/xhtml\"><table class=\"hl7__eu__lab__report\"><tr><th>Test</th><th>16-Feb-2025</th><th>Reference&#xA0;Range</th><th>Unit</th></tr><tr><td>Platelets [#/volume] in Blood by Automated count</td><td>191.8</td><td>150 - 400</td><td></td><td>10*3/uL</td></tr></table></div>"
        },
        "status": "final",
        "subject": {
          "reference": "urn:uuid:54c9df02-a491-4bfb-9202-72b8af5fee75",
          "display": "Gülsen Dörschner"
        },
        "effectiveDateTime": "2025-02-16T21:09:08Z"
      }
    },
    {
      "fullUrl": "urn:uuid:bd9e76a5-8440-4dc6-bffe-45e7b271bf95",
      "resource": {
        "resourceType": "Observation",
        "id": "bd9e76a5-8440-4dc6-bffe-45e7b271bf95",
        "meta": {
          "profile": [
            "http://hl7.eu/fhir/laboratory/StructureDefinition/Observation-resultslab-eu-lab"
          ]
        },
        "performer": [
          {
            "display": "The Central European Lab"
          }
        ],
        "category": [
          {
            "coding": [
              {
                "system": "http://terminology.hl7.org/CodeSystem/observation-category",
                "code": "laboratory"
              }
            ]
          }
        ],
        "code": {
          "coding": [
            {
              "code": "32207-3",
              "system": "http://loinc.org",
              "display": "Platelet distribution width [Entitic volume] in Blood by Automated count"
            }
          ],
          "text": "Platelet distribution width [Entitic volume] in Blood by Automated count"
        },
        "valueQuantity": {
          "system": "http://unitsofmeasure.org",
          "value": 162.7,
          "unit": "fL",
          "code": "fL"
        },
        "referenceRange": [
          {
            "low": {
              "value": 11.6,
              "code": "fL",
              "system": "http://unitsofmeasure.org"
            }
          },
          {
            "high": {
              "value": 17.4,
              "code": "fL",
              "system": "http://unitsofmeasure.org"
            }
          }
        ],
        "interpretation": [
          {
            "coding": [
              {
                "code": "H",
                "system": "http://terminology.hl7.org/CodeSystem/v3-ObservationInterpretation",
                "display": "High"
              }
            ]
          }
        ],
        "text": {
          "status": "generated",
          "div": "<div xmlns=\"http://www.w3.org/1999/xhtml\"><table class=\"hl7__eu__lab__report\"><tr><th>Test</th><th>16-Feb-2025</th><th>Reference&#xA0;Range</th><th>Unit</th></tr><tr><td>Platelet distribution width [Entitic volume] in Blood by Automated count</td><td>162.7</td><td>11.6 - 17.4</td><td>H</td><td>fL</td></tr></table></div>"
        },
        "status": "final",
        "subject": {
          "reference": "urn:uuid:54c9df02-a491-4bfb-9202-72b8af5fee75",
          "display": "Gülsen Dörschner"
        },
        "effectiveDateTime": "2025-02-16T21:09:08Z"
      }
    },
    {
      "fullUrl": "urn:uuid:73c23aae-2b3e-445d-a673-743233e4f421",
      "resource": {
        "resourceType": "Observation",
        "id": "73c23aae-2b3e-445d-a673-743233e4f421",
        "meta": {
          "profile": [
            "http://hl7.eu/fhir/laboratory/StructureDefinition/Observation-resultslab-eu-lab"
          ]
        },
        "performer": [
          {
            "display": "The Central European Lab"
          }
        ],
        "category": [
          {
            "coding": [
              {
                "system": "http://terminology.hl7.org/CodeSystem/observation-category",
                "code": "laboratory"
              }
            ]
          }
        ],
        "code": {
          "coding": [
            {
              "code": "32623-1",
              "system": "http://loinc.org",
              "display": "Platelet mean volume [Entitic volume] in Blood by Automated count"
            }
          ],
          "text": "Platelet mean volume [Entitic volume] in Blood by Automated count"
        },
        "valueQuantity": {
          "system": "http://unitsofmeasure.org",
          "value": 12.2,
          "unit": "fL",
          "code": "fL"
        },
        "referenceRange": [
          {
            "low": {
              "value": 7.4,
              "code": "fL",
              "system": "http://unitsofmeasure.org"
            }
          },
          {
            "high": {
              "value": 12,
              "code": "fL",
              "system": "http://unitsofmeasure.org"
            }
          }
        ],
        "interpretation": [
          {
            "coding": [
              {
                "code": "H",
                "system": "http://terminology.hl7.org/CodeSystem/v3-ObservationInterpretation",
                "display": "High"
              }
            ]
          }
        ],
        "text": {
          "status": "generated",
          "div": "<div xmlns=\"http://www.w3.org/1999/xhtml\"><table class=\"hl7__eu__lab__report\"><tr><th>Test</th><th>16-Feb-2025</th><th>Reference&#xA0;Range</th><th>Unit</th></tr><tr><td>Platelet mean volume [Entitic volume] in Blood by Automated count</td><td>12.2</td><td>7.4 - 12</td><td>H</td><td>fL</td></tr></table></div>"
        },
        "status": "final",
        "subject": {
          "reference": "urn:uuid:54c9df02-a491-4bfb-9202-72b8af5fee75",
          "display": "Gülsen Dörschner"
        },
        "effectiveDateTime": "2025-02-16T21:09:08Z"
      }
    },
    {
      "fullUrl": "urn:uuid:5a56873b-05d4-416b-b36c-1e70c87c9866",
      "resource": {
        "resourceType": "DeviceUseStatement",
        "id": "5a56873b-05d4-416b-b36c-1e70c87c9866",
        "meta": {
          "profile": [
            "http://hl7.eu/fhir/eps/StructureDefinition/deviceUseStatement-eu-eps"
          ]
        },
        "timingPeriod": {
          "start": "2017-09-21"
        },
        "text": {
          "status": "generated",
          "div": "<div xmlns=\"http://www.w3.org/1999/xhtml\"><table class=\"hl7__ips\"><tr><td>Manual wheelchair (physical object)</td><td><span class=\"nb\">21-Sep-2017</span></td></tr></table></div>"
        },
        "status": "active",
        "device": {
          "reference": "urn:uuid:0fd72cd9-34cb-4d8a-b3f0-5a89df9dbda2",
          "display": "Manual wheelchair (physical object)"
        },
        "subject": {
          "reference": "urn:uuid:54c9df02-a491-4bfb-9202-72b8af5fee75",
          "display": "Gülsen Dörschner"
        }
      }
    },
    {
      "fullUrl": "urn:uuid:0fd72cd9-34cb-4d8a-b3f0-5a89df9dbda2",
      "resource": {
        "resourceType": "Device",
        "id": "0fd72cd9-34cb-4d8a-b3f0-5a89df9dbda2",
        "meta": {
          "profile": [
            "http://hl7.eu/fhir/eps/StructureDefinition/device-eu-eps"
          ]
        },
        "udiCarrier": [
          {
            "id": "(01)16436565242865(11)170831(17)420915(10)4305(21)7069581818369"
          }
        ],
        "status": "active",
        "patient": {
          "reference": "urn:uuid:54c9df02-a491-4bfb-9202-72b8af5fee75",
          "display": "Gülsen Dörschner"
        },
        "type": {
          "coding": [
            {
              "code": "228869008",
              "system": "http://snomed.info/sct",
              "display": "Manual wheelchair (physical object)"
            }
          ]
        }
      }
    },
    {
      "fullUrl": "urn:uuid:a7db06bf-7545-4c6f-a3ab-6b4f3229b092",
      "resource": {
        "resourceType": "DeviceUseStatement",
        "id": "a7db06bf-7545-4c6f-a3ab-6b4f3229b092",
        "meta": {
          "profile": [
            "http://hl7.eu/fhir/eps/StructureDefinition/deviceUseStatement-eu-eps"
          ]
        },
        "timingPeriod": {
          "start": "2017-09-21"
        },
        "text": {
          "status": "generated",
          "div": "<div xmlns=\"http://www.w3.org/1999/xhtml\"><table class=\"hl7__ips\"><tr><td>Wheelchair accessory (physical object)</td><td><span class=\"nb\">21-Sep-2017</span></td></tr></table></div>"
        },
        "status": "active",
        "device": {
          "reference": "urn:uuid:c7295ca6-a35c-4f46-a897-dd083e38336f",
          "display": "Wheelchair accessory (physical object)"
        },
        "subject": {
          "reference": "urn:uuid:54c9df02-a491-4bfb-9202-72b8af5fee75",
          "display": "Gülsen Dörschner"
        }
      }
    },
    {
      "fullUrl": "urn:uuid:c7295ca6-a35c-4f46-a897-dd083e38336f",
      "resource": {
        "resourceType": "Device",
        "id": "c7295ca6-a35c-4f46-a897-dd083e38336f",
        "meta": {
          "profile": [
            "http://hl7.eu/fhir/eps/StructureDefinition/device-eu-eps"
          ]
        },
        "udiCarrier": [
          {
            "id": "(01)74651653068675(11)170831(17)420915(10)6394(21)7775607"
          }
        ],
        "status": "active",
        "patient": {
          "reference": "urn:uuid:54c9df02-a491-4bfb-9202-72b8af5fee75",
          "display": "Gülsen Dörschner"
        },
        "type": {
          "coding": [
            {
              "code": "705417005",
              "system": "http://snomed.info/sct",
              "display": "Wheelchair accessory (physical object)"
            }
          ]
        }
      }
    },
    {
      "fullUrl": "urn:uuid:cd860ed1-5a31-400a-a806-0e79ec31d35e",
      "resource": {
        "resourceType": "Device",
        "id": "cd860ed1-5a31-400a-a806-0e79ec31d35e",
        "deviceName": [
          {
            "name": "SYNDERAI Synthetic Generator",
            "type": "manufacturer-name"
          }
        ],
        "version": [
          {
            "value": "5.0"
          }
        ],
        "text": {
          "status": "generated",
          "div": "<div xmlns=\"http://www.w3.org/1999/xhtml\">SYNDERAI Synthetic Generator v5.0</div>"
        },
        "status": "active\"",
        "distinctIdentifier": "synderai-generator-50",
        "manufacturer": "SYNDERAI Project"
      }
    },
    {
      "fullUrl": "urn:uuid:63420f70-d114-473c-9fb6-336777b6ab98",
      "resource": {
        "resourceType": "Provenance",
        "id": "63420f70-d114-473c-9fb6-336777b6ab98",
        "target": [
          {
            "reference": "Patient/54c9df02-a491-4bfb-9202-72b8af5fee75"
          },
          {
            "reference": "Bundle/86f18b46-dd40-4c59-be65-259530efe35e"
          },
          {
            "reference": "Composition/7451de80-7bb1-4daf-af63-d09b6785717b"
          },
          {
            "reference": "PractitionerRole/7126e37b-ba73-44c6-80a2-787baca63f05"
          },
          {
            "reference": "Organization/ab269b06-1944-4161-b023-5e7a4c43afb6"
          },
          {
            "reference": "Practitioner/a3068ab7-8e33-4647-b3b2-e1674d88d53f"
          }
        ],
        "activity": {
          "text": "Synthetic Example Data Generation"
        },
        "policy": [
          "https://synderai.net/synderai-synthetic-data-policy"
        ],
        "agent": [
          {
            "type": {
              "text": "author"
            },
            "who": {
              "reference": "Device/cd860ed1-5a31-400a-a806-0e79ec31d35e"
            }
          }
        ],
        "reason": [
          {
            "text": "Interoperability Testing and Training (non-clinical use)"
          }
        ],
        "text": {
          "status": "generated",
          "div": "<div xmlns=\"http://www.w3.org/1999/xhtml\">Provenance for SYNDERAI Synthetic Example Data Resource</div>"
        },
        "recorded": "2025-02-16T21:09:08Z"
      }
    }
  ],
  "type": "document",
  "timestamp": "2025-02-16T21:09:08Z"
}
