<Bundle xmlns="http://hl7.org/fhir">
   <id value="af43057d-7a7e-4038-abfe-fe357262cfbd"/>
   <meta>
      <profile value="http://hl7.eu/fhir/eps/StructureDefinition/bundle-eu-eps"/>
   </meta>
   <identifier>
      <system value="urn:oid:2.16.840.1.113883.2.51.999"/>
      <value value="e48af075-71d3-454f-9596-309e6d2685b9"/>
      <assigner>
         <display value="HL7 Europe"/>
      </assigner>
   </identifier>
   <type value="document"/>
   <timestamp value="2025-05-04T19:24:33Z"/>
   <entry>
      <fullUrl value="urn:uuid:92aa53e0-3795-45a3-a684-d4f58d27c776"/>
      <resource>
         <Composition>
            <id value="92aa53e0-3795-45a3-a684-d4f58d27c776"/>
            <meta>
               <profile value="http://hl7.eu/fhir/eps/StructureDefinition/composition-eu-eps"/>
               <security>
                  <system value="http://terminology.hl7.org/CodeSystem/v3-ActReason"/>
                  <code value="HTEST"/>
               </security>
               <security>
                  <system value="http://terminology.hl7.org/CodeSystem/v3-ActReason"/>
                  <code value="TRAIN"/>
               </security>
               <tag>
                  <system value="https://synderai.net/fhir/CodeSystem/tags"/>
                  <code value="synthetic"/>
                  <display value="SYNDERAI Synthetic data"/>
               </tag>
            </meta>
            <identifier>
               <system value="urn:oid:2.16.840.1.113883.2.51.999"/>
               <value value="aca50339-237b-485a-a8e2-ea1a315f4b97"/>
               <assigner>
                  <display value="HL7 Europe"/>
               </assigner>
            </identifier>
            <status value="final"/>
            <type>
               <coding>
                  <system value="http://loinc.org"/>
                  <code value="60591-5"/>
                  <display value="Patient summary Document"/>
               </coding>
               <text value="Patient summary Document"/>
            </type>
            <subject>
               <reference value="urn:uuid:8e3a9482-4c47-4b1c-986d-919bda392619"/>
               <display value="Marlene Gerlach"/>
            </subject>
            <date value="2025-05-04"/>
            <author>
               <reference value="urn:uuid:046cb880-c625-4ff2-9988-b0c66c8edb60"/>
            </author>
            <title value="European Patient Summary"/>
            <confidentiality value="N"/>
            <custodian>
               <reference value="urn:uuid:36802fdc-3e9c-4b7a-982f-44dec698bf28"/>
            </custodian>
            <section>
               <title value="Problem list"/>
               <code>
                  <coding>
                     <system value="http://loinc.org"/>
                     <code value="11450-4"/>
                     <display value="Problem list - Reported"/>
                  </coding>
               </code>
               <text>
                  <status value="generated"/>
                  <div xmlns="http://www.w3.org/1999/xhtml">
                     <table class="hl7__ips">
                        <tr>
                           <th>Condition</th>
                           <th>Onset Date</th>
                           <th>Status</th>
                        </tr>
                        <tr>
                           <td>Hyperlipidemia</td>
                           <td>
                              <span class="nb">24-Jan-2010</span>
                           </td>
                           <td>active</td>
                        </tr>
                        <tr>
                           <td>Ischemic heart disease</td>
                           <td>
                              <span class="nb">10-Aug-1980</span>
                           </td>
                           <td>active</td>
                        </tr>
                        <tr>
                           <td>Proteinuria due to type 2 diabetes mellitus</td>
                           <td>
                              <span class="nb">08-Jun-1969</span>
                           </td>
                           <td>active</td>
                        </tr>
                        <tr>
                           <td>Microalbuminuria due to type 2 diabetes mellitus</td>
                           <td>
                              <span class="nb">02-Mar-1969</span>
                           </td>
                           <td>active</td>
                        </tr>
                        <tr>
                           <td>Disorder of kidney due to diabetes mellitus</td>
                           <td>
                              <span class="nb">28-Apr-1968</span>
                           </td>
                           <td>active</td>
                        </tr>
                        <tr>
                           <td>Anemia</td>
                           <td>
                              <span class="nb">22-May-1966</span>
                           </td>
                           <td>active</td>
                        </tr>
                        <tr>
                           <td>Prediabetes</td>
                           <td>
                              <span class="nb">16-May-1965</span>
                           </td>
                           <td>active</td>
                        </tr>
                        <tr>
                           <td>Essential hypertension</td>
                           <td>
                              <span class="nb">23-Apr-1961</span>
                           </td>
                           <td>active</td>
                        </tr>
                     </table>
                  </div>
               </text>
               <entry>
                  <reference value="urn:uuid:d88508e5-69a2-4624-874c-4be917f1577d"/>
               </entry>
               <entry>
                  <reference value="urn:uuid:ad536759-f98d-4d2a-9967-b9e6f34322a8"/>
               </entry>
               <entry>
                  <reference value="urn:uuid:07f545b2-dada-407b-a32d-487e77dc421c"/>
               </entry>
               <entry>
                  <reference value="urn:uuid:8a6878df-942c-4962-9cbd-97e7df236784"/>
               </entry>
               <entry>
                  <reference value="urn:uuid:b114894e-e215-41e2-b6ac-0a888520b1b2"/>
               </entry>
               <entry>
                  <reference value="urn:uuid:59a2b249-5880-4226-8204-305bb3aa5a47"/>
               </entry>
               <entry>
                  <reference value="urn:uuid:2062ccfc-83f8-4748-a566-80c9212959e4"/>
               </entry>
               <entry>
                  <reference value="urn:uuid:5426b94c-fa2b-4ce4-b6e5-9c9085c2d2ec"/>
               </entry>
            </section>
            <section>
               <title value="Medication list"/>
               <code>
                  <coding>
                     <system value="http://loinc.org"/>
                     <code value="10160-0"/>
                     <display value="History of Medication use Narrative"/>
                  </coding>
               </code>
               <text>
                  <status value="generated"/>
                  <div xmlns="http://www.w3.org/1999/xhtml">
                     <table class="hl7__ips">
                        <tr>
                           <th>Medication</th>
                           <th>Since</th>
                           <th>Form</th>
                           <th>Dosage</th>
                           <th>Reason</th>
                        </tr>
                        <tr>
                           <td>insulin isophane human 70 UNT/ML / insulin regular human 30 UNT/ML Injectable Suspension [Humulin]</td>
                           <td>
                              <span class="nb">2025-05-04</span>
                           </td>
                           <td>-</td>
                           <td>10 units subcutaneously twice daily before breakfast and dinner</td>
                           <td>Prediabetes</td>
                        </tr>
                        <tr>
                           <td>Lisinopril 10 mg oral tablet</td>
                           <td>
                              <span class="nb">2025-05-04</span>
                           </td>
                           <td>-</td>
                           <td>1 tablet (10 mg) by mouth once daily</td>
                           <td>Essential hypertension (disorder)</td>
                        </tr>
                        <tr>
                           <td>24 HR tacrolimus 1 MG Extended Release Oral Tablet</td>
                           <td>
                              <span class="nb">2025-05-04</span>
                           </td>
                           <td>-</td>
                           <td>1 tablet (1 mg) by mouth once daily</td>
                           <td>History of renal transplant (situation)</td>
                        </tr>
                        <tr>
                           <td>Simvastatin 10 mg oral tablet</td>
                           <td>
                              <span class="nb">2025-03-28</span>
                           </td>
                           <td>-</td>
                           <td>1 tablet (10 mg) by mouth once daily</td>
                           <td>Hyperlipidemia</td>
                        </tr>
                        <tr>
                           <td>Nitroglycerin 400 microgram/actuation sublingual spray</td>
                           <td>
                              <span class="nb">1980-08-17</span>
                           </td>
                           <td>-</td>
                           <td>1 spray (400 micrograms) under the tongue as needed for chest pain, may repeat every 5 minutes as needed, up to 3 sprays in 15 minutes</td>
                           <td>-</td>
                        </tr>
                        <tr>
                           <td>Metoprolol tartrate (as metoprolol succinate) 100 mg prolonged-release oral tablet</td>
                           <td>
                              <span class="nb">1980-08-17</span>
                           </td>
                           <td>-</td>
                           <td>1 tablet (100 mg) once daily</td>
                           <td>-</td>
                        </tr>
                     </table>
                  </div>
               </text>
               <entry>
                  <reference value="urn:uuid:a02618ad-5589-4886-b0f7-1f599894942b"/>
               </entry>
               <entry>
                  <reference value="urn:uuid:6c3fd67d-31e5-4aee-9af0-ec1466a1dd21"/>
               </entry>
               <entry>
                  <reference value="urn:uuid:a8a046aa-09fe-4ce3-8daa-27dca388be2d"/>
               </entry>
               <entry>
                  <reference value="urn:uuid:4217b6b0-d033-44b0-aea2-797b68d72350"/>
               </entry>
               <entry>
                  <reference value="urn:uuid:16822be3-dc7c-4912-a289-f894ad7e3668"/>
               </entry>
               <entry>
                  <reference value="urn:uuid:2febf131-cbc4-41ad-baac-aa300e246aef"/>
               </entry>
            </section>
            <section>
               <title value="Immunizations list"/>
               <code>
                  <coding>
                     <system value="http://loinc.org"/>
                     <code value="11369-6"/>
                     <display value="History of Immunization note"/>
                  </coding>
               </code>
               <text>
                  <status value="generated"/>
                  <div xmlns="http://www.w3.org/1999/xhtml">
                     <table class="hl7__ips">
                        <tr>
                           <th>Vaccine</th>
                           <th>Date</th>
                        </tr>
                        <tr>
                           <td>Influenza virus antigen only vaccine product</td>
                           <td>
                              <span class="nb">04-May-2025</span>
                           </td>
                        </tr>
                        <tr>
                           <td>SARS-CoV-2 mRNA vaccine</td>
                           <td>
                              <span class="nb">05-Sep-2021</span>
                           </td>
                        </tr>
                        <tr>
                           <td>Clostridium tetani toxoid antigen adsorbed only vaccine product</td>
                           <td>
                              <span class="nb">05-Mar-2017</span>
                           </td>
                        </tr>
                     </table>
                  </div>
               </text>
               <entry>
                  <reference value="urn:uuid:95068ee5-6d50-49f2-a58f-feb3bab91b0a"/>
               </entry>
               <entry>
                  <reference value="urn:uuid:34ca690b-0869-4ca7-b5f3-34c05cdc7fbe"/>
               </entry>
               <entry>
                  <reference value="urn:uuid:e29646f3-d72e-48cd-b3b2-bc29d42fd0b8"/>
               </entry>
            </section>
            <section>
               <title value="Procedure History list"/>
               <code>
                  <coding>
                     <system value="http://loinc.org"/>
                     <code value="47519-4"/>
                     <display value="History of Procedures Document"/>
                  </coding>
               </code>
               <text>
                  <status value="generated"/>
                  <div xmlns="http://www.w3.org/1999/xhtml">
                     <table class="hl7__ips">
                        <tr>
                           <th>Procedure</th>
                           <th>Date</th>
                           <th>Reason</th>
                        </tr>
                        <tr>
                           <td>Admission to orthopedic department</td>
                           <td>
                              <span class="nb">09-Oct-2021</span>
                           </td>
                           <td>Fracture of clavicle</td>
                        </tr>
                        <tr>
                           <td>Bone density scan</td>
                           <td>
                              <span class="nb">09-Oct-2021</span>
                           </td>
                           <td>Fracture of clavicle</td>
                        </tr>
                        <tr>
                           <td>Plain X-ray of clavicle</td>
                           <td>
                              <span class="nb">08-Oct-2021</span>
                           </td>
                           <td>-</td>
                        </tr>
                        <tr>
                           <td>Patient discharge</td>
                           <td>
                              <span class="nb">02-Apr-2021</span>
                           </td>
                           <td>-</td>
                        </tr>
                        <tr>
                           <td>Hospice care</td>
                           <td>
                              <span class="nb">01-Apr-2021</span>
                           </td>
                           <td>-</td>
                        </tr>
                        <tr>
                           <td>Notifications</td>
                           <td>
                              <span class="nb">21-Feb-2021</span>
                           </td>
                           <td>-</td>
                        </tr>
                        <tr>
                           <td>Certification procedure</td>
                           <td>
                              <span class="nb">21-Feb-2021</span>
                           </td>
                           <td>-</td>
                        </tr>
                        <tr>
                           <td>Initial patient assessment</td>
                           <td>
                              <span class="nb">21-Feb-2021</span>
                           </td>
                           <td>-</td>
                        </tr>
                        <tr>
                           <td>Development of individualized plan of care</td>
                           <td>
                              <span class="nb">21-Feb-2021</span>
                           </td>
                           <td>-</td>
                        </tr>
                        <tr>
                           <td>Depression screening</td>
                           <td>
                              <span class="nb">27-May-2018</span>
                           </td>
                           <td>-</td>
                        </tr>
                        <tr>
                           <td>Assessment of health and social care needs</td>
                           <td>
                              <span class="nb">27-May-2018</span>
                           </td>
                           <td>-</td>
                        </tr>
                        <tr>
                           <td>Screening for drug abuse</td>
                           <td>
                              <span class="nb">27-May-2018</span>
                           </td>
                           <td>-</td>
                        </tr>
                        <tr>
                           <td>Assessment using Morse Fall Scale</td>
                           <td>
                              <span class="nb">27-May-2018</span>
                           </td>
                           <td>-</td>
                        </tr>
                        <tr>
                           <td>Screening for domestic abuse</td>
                           <td>
                              <span class="nb">27-May-2018</span>
                           </td>
                           <td>-</td>
                        </tr>
                        <tr>
                           <td>Assessment of substance use</td>
                           <td>
                              <span class="nb">27-May-2018</span>
                           </td>
                           <td>-</td>
                        </tr>
                        <tr>
                           <td>Depression screening using Patient Health Questionnaire Two-Item score (procedure)</td>
                           <td>
                              <span class="nb">27-May-2018</span>
                           </td>
                           <td>-</td>
                        </tr>
                     </table>
                  </div>
               </text>
               <entry>
                  <reference value="urn:uuid:f7c3876b-be4a-4a92-9849-f498b87e0588"/>
               </entry>
               <entry>
                  <reference value="urn:uuid:6163c54e-f16e-41e2-8d49-7945e0a27a12"/>
               </entry>
               <entry>
                  <reference value="urn:uuid:e4710b87-e93e-4040-bcae-d4398bba5917"/>
               </entry>
               <entry>
                  <reference value="urn:uuid:de9f1531-c272-45ff-ac88-8d97418ef4b3"/>
               </entry>
               <entry>
                  <reference value="urn:uuid:4db800a3-be18-4c51-aa7c-cdae4d200e4a"/>
               </entry>
               <entry>
                  <reference value="urn:uuid:dee9e6c0-69c2-4836-9379-3225737992a7"/>
               </entry>
               <entry>
                  <reference value="urn:uuid:fcacef11-f19e-4ece-be5f-27861e0795e2"/>
               </entry>
               <entry>
                  <reference value="urn:uuid:5de7ca00-f65c-4c53-b2f3-880de371d95a"/>
               </entry>
               <entry>
                  <reference value="urn:uuid:0a76541f-0eb5-4a1a-82b6-fb05e11a83a0"/>
               </entry>
               <entry>
                  <reference value="urn:uuid:003859b3-100e-4101-b96f-4c718bd901b1"/>
               </entry>
               <entry>
                  <reference value="urn:uuid:a9d05275-e5f7-478a-a91e-d8405ae78565"/>
               </entry>
               <entry>
                  <reference value="urn:uuid:f28ae783-e46c-4b60-90f9-c5fca7041f83"/>
               </entry>
               <entry>
                  <reference value="urn:uuid:642aae61-b3d5-41dc-b935-7acfc4ea1fc1"/>
               </entry>
               <entry>
                  <reference value="urn:uuid:b78c8b58-3d51-4574-a795-c0caffd398d2"/>
               </entry>
               <entry>
                  <reference value="urn:uuid:e72c065f-ca5a-4971-9865-da44a00cbdda"/>
               </entry>
               <entry>
                  <reference value="urn:uuid:bdce64ca-1ccb-485f-bc86-3a16a86c281b"/>
               </entry>
            </section>
            <section>
               <title value="Allergies and Intolerances"/>
               <code>
                  <coding>
                     <system value="http://loinc.org"/>
                     <code value="48765-2"/>
                     <display value="Allergies and adverse reactions Document"/>
                  </coding>
               </code>
               <text>
                  <status value="generated"/>
                  <div xmlns="http://www.w3.org/1999/xhtml">
                     <table class="hl7__ips">
                        <tr>
                           <th>Allergy/Intolerance</th>
                           <th>Onset Date</th>
                           <th>Status</th>
                           <th>Type</th>
                           <th>Reaction</th>
                        </tr>
                        <tr>
                           <td/>
                           <td>?</td>
                           <td>active</td>
                           <td>?</td>
                           <td/>
                        </tr>
                     </table>
                  </div>
               </text>
               <entry>
                  <reference value="urn:uuid:13fa552d-d072-4233-bf3a-4a41abd2ad9c"/>
               </entry>
            </section>
            <section>
               <title value="Care Plan"/>
               <code>
                  <coding>
                     <system value="http://loinc.org"/>
                     <code value="18776-5"/>
                     <display value="Plan of care note"/>
                  </coding>
               </code>
               <text>
                  <status value="generated"/>
                  <div xmlns="http://www.w3.org/1999/xhtml">
                     <table class="hl7__ips">
                        <tr>
                           <th>Active Planned Care / Goals</th>
                           <th>Start Date</th>
                           <th>Reason</th>
                        </tr>
                        <tr>
                           <td>Hyperlipidemia clinical management plan</td>
                           <td>
                              <span class="nb">14-Feb-2010</span>
                           </td>
                           <td>Hyperlipidemia</td>
                        </tr>
                        <tr>
                           <td>
                              <ul>
                                 <li>Achieve and maintain LDL cholesterol below 70 mg/dL to reduce cardiovascular risk.</li>
                                 <li>Keep total cholesterol below 200 mg/dL.</li>
                                 <li>Maintain HDL cholesterol above 50 mg/dL.</li>
                                 <li>Keep triglycerides below 150 mg/dL.</li>
                              </ul>
                           </td>
                           <td/>
                           <td/>
                        </tr>
                        <tr>
                           <td>Care plan</td>
                           <td>
                              <span class="nb">08-Apr-1981</span>
                           </td>
                           <td>-</td>
                        </tr>
                        <tr>
                           <td>Dialysis care plan</td>
                           <td>
                              <span class="nb">12-Feb-1976</span>
                           </td>
                           <td>-</td>
                        </tr>
                        <tr>
                           <td>Diabetes self management plan</td>
                           <td>
                              <span class="nb">16-May-1965</span>
                           </td>
                           <td>Prediabetes</td>
                        </tr>
                        <tr>
                           <td>
                              <ul>
                                 <li>Patient will implement and maintain a diabetes self-management plan to prevent progression to type 2 diabetes, including dietary changes, increased physical activity, and regular blood glucose monitoring.</li>
                              </ul>
                           </td>
                           <td/>
                           <td/>
                        </tr>
                        <tr>
                           <td>Lifestyle education regarding hypertension</td>
                           <td>
                              <span class="nb">23-Apr-1961</span>
                           </td>
                           <td>Essential hypertension (disorder)</td>
                        </tr>
                        <tr>
                           <td>
                              <ul>
                                 <li>Patient will demonstrate understanding of recommended lifestyle changes to manage blood pressure, including dietary sodium reduction, regular physical activity, weight management, and medication adherence.</li>
                                 <li>Achieve and maintain blood pressure below 130/80 mmHg as per current guidelines.</li>
                              </ul>
                           </td>
                           <td/>
                           <td/>
                        </tr>
                        <tr>
                           <th>Immunization Recommendation</th>
                           <th>Due Date</th>
                           <th>Reason</th>
                        </tr>
                        <tr>
                           <td>Vaccine product containing only Influenza virus antigen (medicinal product)</td>
                           <td>
                              <span class="nb">01-Oct-2025</span>
                           </td>
                           <td>Annual seasonal influenza vaccination</td>
                        </tr>
                     </table>
                  </div>
               </text>
               <entry>
                  <reference value="urn:uuid:2e4dbc50-cc1a-49a2-8134-d4e3e4f82b73"/>
               </entry>
               <entry>
                  <reference value="urn:uuid:a42f0820-e4dc-4674-adef-a655e70d6092"/>
               </entry>
               <entry>
                  <reference value="urn:uuid:bdac0fb2-8ea3-4562-a230-b97c81ba9673"/>
               </entry>
               <entry>
                  <reference value="urn:uuid:0656ca96-1b03-42d3-9824-a2518b964ba2"/>
               </entry>
               <entry>
                  <reference value="urn:uuid:d28fda44-859f-4df4-a931-c8928784c822"/>
               </entry>
               <entry>
                  <reference value="urn:uuid:e00dfe24-5dab-47aa-bbb9-17c3d7992f13"/>
               </entry>
            </section>
            <section>
               <title value="Vital Signs"/>
               <code>
                  <coding>
                     <system value="http://loinc.org"/>
                     <code value="8716-3"/>
                     <display value="Vital signs note"/>
                  </coding>
               </code>
               <text>
                  <status value="generated"/>
                  <div xmlns="http://www.w3.org/1999/xhtml">
                     <table class="hl7__ips">
                        <tr>
                           <th>Vital Signs</th>
                           <th>2025-05-04</th>
                           <th>2024-04-28</th>
                        </tr>
                        <tr>
                           <td>Body Height</td>
                           <td>155.4 cm</td>
                           <td>155.4 cm</td>
                        </tr>
                        <tr>
                           <td>Pain severity - 0-10 verbal numeric rating [Score] - Reported</td>
                           <td>2 {score}</td>
                           <td>3 {score}</td>
                        </tr>
                        <tr>
                           <td>Body Weight</td>
                           <td>66.4 kg</td>
                           <td>66.4 kg</td>
                        </tr>
                        <tr>
                           <td>Body mass index (BMI) [Ratio]</td>
                           <td>27.5 kg/m2</td>
                           <td>27.5 kg/m2</td>
                        </tr>
                        <tr>
                           <td>Diastolic Blood Pressure</td>
                           <td>75 mm[Hg]</td>
                           <td>77 mm[Hg]</td>
                        </tr>
                        <tr>
                           <td>Systolic Blood Pressure</td>
                           <td>104 mm[Hg]</td>
                           <td>108 mm[Hg]</td>
                        </tr>
                        <tr>
                           <td>Heart rate</td>
                           <td>61 /min</td>
                           <td>76 /min</td>
                        </tr>
                        <tr>
                           <td>Respiratory rate</td>
                           <td>14 /min</td>
                           <td>13 /min</td>
                        </tr>
                     </table>
                  </div>
               </text>
               <entry>
                  <reference value="urn:uuid:0f73354d-8661-409e-91fc-0e8d68f8bb80"/>
               </entry>
               <entry>
                  <reference value="urn:uuid:a8de7e45-72a0-4c1a-83d2-d57b5a26dc61"/>
               </entry>
               <entry>
                  <reference value="urn:uuid:84ddb1d6-edbb-4325-b29c-04fdca5eeabd"/>
               </entry>
               <entry>
                  <reference value="urn:uuid:c6be8a9e-e25d-447e-a1b2-a994c991fef3"/>
               </entry>
               <entry>
                  <reference value="urn:uuid:d30d8671-bf16-408e-9b4a-00c8330beb64"/>
               </entry>
               <entry>
                  <reference value="urn:uuid:f9bb1ba7-69d8-42ca-928a-3654597eb26b"/>
               </entry>
               <entry>
                  <reference value="urn:uuid:1b2f3cc4-3c69-4642-98c4-e16f9aecf2d0"/>
               </entry>
               <entry>
                  <reference value="urn:uuid:b9c1ca94-523e-400e-947e-6e43db75e059"/>
               </entry>
               <entry>
                  <reference value="urn:uuid:3cf68a7c-8b16-48b2-9950-1126b7729500"/>
               </entry>
               <entry>
                  <reference value="urn:uuid:785326a5-ecea-4100-9dc3-2bd6018d7e87"/>
               </entry>
               <entry>
                  <reference value="urn:uuid:75f10f63-80e3-4404-a7e6-b5a65409d98c"/>
               </entry>
               <entry>
                  <reference value="urn:uuid:0aa03d7d-7921-4dab-a958-42dd642cfbff"/>
               </entry>
               <entry>
                  <reference value="urn:uuid:7ce5fc1a-19d8-4f70-a880-af9e5eb9f939"/>
               </entry>
               <entry>
                  <reference value="urn:uuid:b8c2a6c4-6b1f-4435-9fc9-440bba3a9c17"/>
               </entry>
               <entry>
                  <reference value="urn:uuid:a5851dc3-c9d7-46b5-bda8-cb803a9430d2"/>
               </entry>
               <entry>
                  <reference value="urn:uuid:d64280df-ccbd-46ec-ae28-05d4c2cadcfb"/>
               </entry>
            </section>
            <section>
               <title value="Relevant diagnostic tests/laboratory data"/>
               <code>
                  <coding>
                     <system value="http://loinc.org"/>
                     <code value="30954-2"/>
                     <display value="Relevant diagnostic tests/laboratory data note"/>
                  </coding>
               </code>
               <text>
                  <status value="generated"/>
                  <div xmlns="http://www.w3.org/1999/xhtml">
                     <table class="hl7__ips">
                        <table class="hl7__ips">
                           <thead>
                              <tr>
                                 <th>Recent Lab Observations</th>
                                 <th>04-MAY-2025</th>
                                 <th>Reference Range</th>
                                 <th>Unit</th>
                              </tr>
                           </thead>
                           <tbody>
                              <tr>
                                 <td>Hemoglobin A1c/Hemoglobin.total in Blood</td>
                                 <td>
                                    <strong>3.9 L</strong>
                                 </td>
                                 <td>4 - 6</td>
                                 <td>%</td>
                              </tr>
                              <tr>
                                 <td>Glucose [Mass/volume] in Blood</td>
                                 <td>
                                    <strong>68.9 L</strong>
                                 </td>
                                 <td>70 - 140</td>
                                 <td>mg/dL</td>
                              </tr>
                              <tr>
                                 <td>Urea nitrogen [Mass/volume] in Blood</td>
                                 <td>17.9</td>
                                 <td>7 - 20</td>
                                 <td>mg/dL</td>
                              </tr>
                              <tr>
                                 <td>Creatinine [Mass/volume] in Blood</td>
                                 <td>
                                    <strong>0.4 L</strong>
                                 </td>
                                 <td>0.5 - 1.3</td>
                                 <td>mg/dL</td>
                              </tr>
                              <tr>
                                 <td>Calcium [Mass/volume] in Blood</td>
                                 <td>10.2</td>
                                 <td>8.5 - 10.5</td>
                                 <td>mg/dL</td>
                              </tr>
                              <tr>
                                 <td>Sodium [Moles/volume] in Blood</td>
                                 <td>136.8</td>
                                 <td>135 - 145</td>
                                 <td>mmol/L</td>
                              </tr>
                              <tr>
                                 <td>Potassium [Moles/volume] in Blood</td>
                                 <td>4.5</td>
                                 <td>3.5 - 5.1</td>
                                 <td>mmol/L</td>
                              </tr>
                              <tr>
                                 <td>Chloride [Moles/volume] in Blood</td>
                                 <td>102.8</td>
                                 <td>98 - 108</td>
                                 <td>mmol/L</td>
                              </tr>
                              <tr>
                                 <td>Carbon dioxide, total [Moles/volume] in Blood</td>
                                 <td>
                                    <strong>20.0 L</strong>
                                 </td>
                                 <td>22 - 29</td>
                                 <td>mmol/L</td>
                              </tr>
                           </tbody>
                        </table>
                     </table>
                  </div>
               </text>
               <entry>
                  <reference value="urn:uuid:aea06e42-8443-458f-8fb5-3bccac373b4d"/>
               </entry>
               <entry>
                  <reference value="urn:uuid:cba6a6a7-9fcc-4f96-aede-76c9d0aea0d9"/>
               </entry>
               <entry>
                  <reference value="urn:uuid:a7e73d03-f130-4e24-a8a8-5dac2d0af50a"/>
               </entry>
               <entry>
                  <reference value="urn:uuid:3be48cf8-e70e-4b64-8bbe-b7587b31d99f"/>
               </entry>
               <entry>
                  <reference value="urn:uuid:b78a7b3c-9b0c-4b14-ad8b-b5cb519d90b7"/>
               </entry>
               <entry>
                  <reference value="urn:uuid:ac2ebe39-0af5-461d-97ff-4cd53ea0ded2"/>
               </entry>
               <entry>
                  <reference value="urn:uuid:8cfe891c-d615-4614-8f13-c16e368675b5"/>
               </entry>
               <entry>
                  <reference value="urn:uuid:01d38a32-19c2-45b5-9aa4-e5e66edb1e79"/>
               </entry>
               <entry>
                  <reference value="urn:uuid:b09f2bba-5d8d-4025-be67-075da456240a"/>
               </entry>
            </section>
            <section>
               <title value="Device Use"/>
               <code>
                  <coding>
                     <system value="http://loinc.org"/>
                     <code value="46264-8"/>
                     <display value="History of medical device use"/>
                  </coding>
               </code>
               <text>
                  <status value="generated"/>
                  <div xmlns="http://www.w3.org/1999/xhtml">
                     <table class="hl7__ips">
                        <tr>
                           <th>Device</th>
                           <th>Date (since)</th>
                        </tr>
                        <tr>
                           <td>Blood glucose meter (physical object)</td>
                           <td>
                              <span class="nb">16-May-1965</span>
                           </td>
                        </tr>
                     </table>
                  </div>
               </text>
               <entry>
                  <reference value="urn:uuid:a8bbaa8f-0456-4a01-a176-6680346ccaec"/>
               </entry>
            </section>
         </Composition>
      </resource>
   </entry>
   <entry>
      <fullUrl value="urn:uuid:8e3a9482-4c47-4b1c-986d-919bda392619"/>
      <resource>
         <Patient>
            <id value="8e3a9482-4c47-4b1c-986d-919bda392619"/>
            <meta>
               <profile value="http://hl7.eu/fhir/eps/StructureDefinition/patient-eu-eps"/>
               <security>
                  <system value="http://terminology.hl7.org/CodeSystem/v3-ActReason"/>
                  <code value="HTEST"/>
               </security>
               <security>
                  <system value="http://terminology.hl7.org/CodeSystem/v3-ActReason"/>
                  <code value="TRAIN"/>
               </security>
               <tag>
                  <system value="https://synderai.net/fhir/CodeSystem/tags"/>
                  <code value="synthetic"/>
                  <display value="SYNDERAI Synthetic data"/>
               </tag>
            </meta>
            <text>
               <status value="generated"/>
               <div xmlns="http://www.w3.org/1999/xhtml">
                  <table class="hl7__ips">
                     <tr>
                        <td>Marlene Gerlach</td>
                        <td>female</td>
                        <td>28-Aug-1939</td>
                     </tr>
                  </table>
               </div>
            </text>
            <extension url="http://hl7.org/fhir/StructureDefinition/patient-nationality">
               <valueCodeableConcept>
                  <coding>
                     <system value="http://hl7.org/fhir/ValueSet/country"/>
                     <code value="DE"/>
                  </coding>
               </valueCodeableConcept>
            </extension>
            <identifier>
               <type>
                  <coding>
                     <system value="http://terminology.hl7.org/CodeSystem/v2-0203"/>
                     <code value="PT"/>
                  </coding>
               </type>
               <system value="http://ec.europa.eu/identifier/eci"/>
               <value value="4536-398571-9"/>
            </identifier>
            <identifier>
               <type>
                  <coding>
                     <system value="http://terminology.hl7.org/CodeSystem/v2-0203"/>
                     <code value="MR"/>
                  </coding>
               </type>
               <system value="http://local.setting.eu/identifier"/>
               <value value="ff7a4ff6-4bac-f07f-03c9-b91b1e1cfb23"/>
            </identifier>
            <name>
               <family value="Gerlach"/>
            </name>
            <name>
               <given value="Marlene"/>
            </name>
            <name>
               <text value="Marlene Gerlach"/>
            </name>
            <telecom>
               <system value="phone"/>
               <value value="+49(0)2700 61724"/>
            </telecom>
            <gender value="female"/>
            <birthDate value="1939-08-28"/>
            <address>
               <use value="home"/>
               <type value="physical"/>
               <line value="Etzlerplatz 57-53"/>
               <city value="Backnang"/>
               <postalCode value="71522"/>
               <country value="Germany"/>
            </address>
         </Patient>
      </resource>
   </entry>
   <entry>
      <fullUrl value="urn:uuid:046cb880-c625-4ff2-9988-b0c66c8edb60"/>
      <resource>
         <PractitionerRole>
            <id value="046cb880-c625-4ff2-9988-b0c66c8edb60"/>
            <meta>
               <profile value="http://hl7.eu/fhir/base/StructureDefinition/practitionerRole-eu"/>
            </meta>
            <text>
               <status value="generated"/>
               <div xmlns="http://www.w3.org/1999/xhtml">
                  <table class="hl7__ips">Provider Role Id 046cb880-c625-4ff2-9988-b0c66c8edb60</table>
               </div>
            </text>
            <practitioner>
               <reference value="urn:uuid:2564f2a6-2488-428c-9202-dbb4f7b4eb5a"/>
            </practitioner>
            <organization>
               <reference value="urn:uuid:36802fdc-3e9c-4b7a-982f-44dec698bf28"/>
            </organization>
         </PractitionerRole>
      </resource>
   </entry>
   <entry>
      <fullUrl value="urn:uuid:2564f2a6-2488-428c-9202-dbb4f7b4eb5a"/>
      <resource>
         <Practitioner>
            <id value="2564f2a6-2488-428c-9202-dbb4f7b4eb5a"/>
            <meta>
               <profile value="http://hl7.eu/fhir/base/StructureDefinition/practitioner-eu"/>
            </meta>
            <text>
               <status value="generated"/>
               <div xmlns="http://www.w3.org/1999/xhtml">
                  <table class="hl7__ips">Dr. Hel Ping</table>
               </div>
            </text>
            <name>
               <family value="Ping"/>
               <given value="Hel"/>
               <prefix value="Dr."/>
            </name>
         </Practitioner>
      </resource>
   </entry>
   <entry>
      <fullUrl value="urn:uuid:36802fdc-3e9c-4b7a-982f-44dec698bf28"/>
      <resource>
         <Organization>
            <id value="36802fdc-3e9c-4b7a-982f-44dec698bf28"/>
            <meta>
               <profile value="http://hl7.eu/fhir/base/StructureDefinition/organization-eu"/>
            </meta>
            <text>
               <status value="generated"/>
               <div xmlns="http://www.w3.org/1999/xhtml">
                  <table class="hl7__ips">Gesundheitszentrum</table>
               </div>
            </text>
            <identifier>
               <system value="urn:oid:2.16.840.1.113883.2.51.999"/>
               <value value="9f04b3f3-6c89-44ba-81e8-91a68433c89d"/>
               <assigner>
                  <display value="HL7 Europe"/>
               </assigner>
            </identifier>
            <name value="Gesundheitszentrum"/>
            <address>
               <line value="Karl-Krische-Straße 4"/>
               <city value="Backnang"/>
               <postalCode value="71522"/>
               <country value="Germany"/>
            </address>
         </Organization>
      </resource>
   </entry>
   <entry>
      <fullUrl value="urn:uuid:d88508e5-69a2-4624-874c-4be917f1577d"/>
      <resource>
         <Condition>
            <id value="d88508e5-69a2-4624-874c-4be917f1577d"/>
            <meta>
               <profile value="http://hl7.org/fhir/uv/ips/StructureDefinition/Condition-uv-ips"/>
            </meta>
            <text>
               <status value="generated"/>
               <div xmlns="http://www.w3.org/1999/xhtml">
                  <table class="hl7__ips">
                     <tr>
                        <td>Hyperlipidemia</td>
                        <td>
                           <span class="nb">24-Jan-2010</span>
                        </td>
                        <td>active</td>
                     </tr>
                  </table>
               </div>
            </text>
            <category>
               <coding>
                  <system value="http://terminology.hl7.org/CodeSystem/condition-category"/>
                  <code value="problem-list-item"/>
                  <display value="Problem List Item"/>
               </coding>
            </category>
            <code>
               <coding>
                  <system value="http://snomed.info/sct"/>
                  <code value="55822004"/>
                  <display value="Hyperlipidemia (disorder)"/>
               </coding>
               <text value="Hyperlipidemia"/>
            </code>
            <subject>
               <reference value="urn:uuid:"/>
               <display value="Marlene Gerlach"/>
            </subject>
            <onsetDateTime value="2010-01-24"/>
            <asserter>
               <reference value="urn:uuid:"/>
               <display value="Gesundheitszentrum"/>
            </asserter>
         </Condition>
      </resource>
   </entry>
   <entry>
      <fullUrl value="urn:uuid:ad536759-f98d-4d2a-9967-b9e6f34322a8"/>
      <resource>
         <Condition>
            <id value="ad536759-f98d-4d2a-9967-b9e6f34322a8"/>
            <meta>
               <profile value="http://hl7.org/fhir/uv/ips/StructureDefinition/Condition-uv-ips"/>
            </meta>
            <text>
               <status value="generated"/>
               <div xmlns="http://www.w3.org/1999/xhtml">
                  <table class="hl7__ips">
                     <tr>
                        <td>Ischemic heart disease</td>
                        <td>
                           <span class="nb">10-Aug-1980</span>
                        </td>
                        <td>active</td>
                     </tr>
                  </table>
               </div>
            </text>
            <category>
               <coding>
                  <system value="http://terminology.hl7.org/CodeSystem/condition-category"/>
                  <code value="problem-list-item"/>
                  <display value="Problem List Item"/>
               </coding>
            </category>
            <code>
               <coding>
                  <system value="http://snomed.info/sct"/>
                  <code value="414545008"/>
                  <display value="Ischemic heart disease (disorder)"/>
               </coding>
               <text value="Ischemic heart disease"/>
            </code>
            <subject>
               <reference value="urn:uuid:"/>
               <display value="Marlene Gerlach"/>
            </subject>
            <onsetDateTime value="1980-08-10"/>
            <asserter>
               <reference value="urn:uuid:"/>
               <display value="Gesundheitszentrum"/>
            </asserter>
         </Condition>
      </resource>
   </entry>
   <entry>
      <fullUrl value="urn:uuid:07f545b2-dada-407b-a32d-487e77dc421c"/>
      <resource>
         <Condition>
            <id value="07f545b2-dada-407b-a32d-487e77dc421c"/>
            <meta>
               <profile value="http://hl7.org/fhir/uv/ips/StructureDefinition/Condition-uv-ips"/>
            </meta>
            <text>
               <status value="generated"/>
               <div xmlns="http://www.w3.org/1999/xhtml">
                  <table class="hl7__ips">
                     <tr>
                        <td>Proteinuria due to type 2 diabetes mellitus</td>
                        <td>
                           <span class="nb">08-Jun-1969</span>
                        </td>
                        <td>active</td>
                     </tr>
                  </table>
               </div>
            </text>
            <category>
               <coding>
                  <system value="http://terminology.hl7.org/CodeSystem/condition-category"/>
                  <code value="problem-list-item"/>
                  <display value="Problem List Item"/>
               </coding>
            </category>
            <code>
               <coding>
                  <system value="http://snomed.info/sct"/>
                  <code value="157141000119108"/>
                  <display value="Proteinuria due to type 2 diabetes mellitus (disorder)"/>
               </coding>
               <text value="Proteinuria due to type 2 diabetes mellitus"/>
            </code>
            <subject>
               <reference value="urn:uuid:"/>
               <display value="Marlene Gerlach"/>
            </subject>
            <onsetDateTime value="1969-06-08"/>
            <asserter>
               <reference value="urn:uuid:"/>
               <display value="Gesundheitszentrum"/>
            </asserter>
         </Condition>
      </resource>
   </entry>
   <entry>
      <fullUrl value="urn:uuid:8a6878df-942c-4962-9cbd-97e7df236784"/>
      <resource>
         <Condition>
            <id value="8a6878df-942c-4962-9cbd-97e7df236784"/>
            <meta>
               <profile value="http://hl7.org/fhir/uv/ips/StructureDefinition/Condition-uv-ips"/>
            </meta>
            <text>
               <status value="generated"/>
               <div xmlns="http://www.w3.org/1999/xhtml">
                  <table class="hl7__ips">
                     <tr>
                        <td>Microalbuminuria due to type 2 diabetes mellitus</td>
                        <td>
                           <span class="nb">02-Mar-1969</span>
                        </td>
                        <td>active</td>
                     </tr>
                  </table>
               </div>
            </text>
            <category>
               <coding>
                  <system value="http://terminology.hl7.org/CodeSystem/condition-category"/>
                  <code value="problem-list-item"/>
                  <display value="Problem List Item"/>
               </coding>
            </category>
            <code>
               <coding>
                  <system value="http://snomed.info/sct"/>
                  <code value="90781000119102"/>
                  <display value="Microalbuminuria due to type 2 diabetes mellitus (disorder)"/>
               </coding>
               <text value="Microalbuminuria due to type 2 diabetes mellitus"/>
            </code>
            <subject>
               <reference value="urn:uuid:"/>
               <display value="Marlene Gerlach"/>
            </subject>
            <onsetDateTime value="1969-03-02"/>
            <asserter>
               <reference value="urn:uuid:"/>
               <display value="Gesundheitszentrum"/>
            </asserter>
         </Condition>
      </resource>
   </entry>
   <entry>
      <fullUrl value="urn:uuid:b114894e-e215-41e2-b6ac-0a888520b1b2"/>
      <resource>
         <Condition>
            <id value="b114894e-e215-41e2-b6ac-0a888520b1b2"/>
            <meta>
               <profile value="http://hl7.org/fhir/uv/ips/StructureDefinition/Condition-uv-ips"/>
            </meta>
            <text>
               <status value="generated"/>
               <div xmlns="http://www.w3.org/1999/xhtml">
                  <table class="hl7__ips">
                     <tr>
                        <td>Disorder of kidney due to diabetes mellitus</td>
                        <td>
                           <span class="nb">28-Apr-1968</span>
                        </td>
                        <td>active</td>
                     </tr>
                  </table>
               </div>
            </text>
            <category>
               <coding>
                  <system value="http://terminology.hl7.org/CodeSystem/condition-category"/>
                  <code value="problem-list-item"/>
                  <display value="Problem List Item"/>
               </coding>
            </category>
            <code>
               <coding>
                  <system value="http://snomed.info/sct"/>
                  <code value="127013003"/>
                  <display value="Disorder of kidney due to diabetes mellitus (disorder)"/>
               </coding>
               <text value="Disorder of kidney due to diabetes mellitus"/>
            </code>
            <subject>
               <reference value="urn:uuid:"/>
               <display value="Marlene Gerlach"/>
            </subject>
            <onsetDateTime value="1968-04-28"/>
            <asserter>
               <reference value="urn:uuid:"/>
               <display value="Gesundheitszentrum"/>
            </asserter>
         </Condition>
      </resource>
   </entry>
   <entry>
      <fullUrl value="urn:uuid:59a2b249-5880-4226-8204-305bb3aa5a47"/>
      <resource>
         <Condition>
            <id value="59a2b249-5880-4226-8204-305bb3aa5a47"/>
            <meta>
               <profile value="http://hl7.org/fhir/uv/ips/StructureDefinition/Condition-uv-ips"/>
            </meta>
            <text>
               <status value="generated"/>
               <div xmlns="http://www.w3.org/1999/xhtml">
                  <table class="hl7__ips">
                     <tr>
                        <td>Anemia</td>
                        <td>
                           <span class="nb">22-May-1966</span>
                        </td>
                        <td>active</td>
                     </tr>
                  </table>
               </div>
            </text>
            <category>
               <coding>
                  <system value="http://terminology.hl7.org/CodeSystem/condition-category"/>
                  <code value="problem-list-item"/>
                  <display value="Problem List Item"/>
               </coding>
            </category>
            <code>
               <coding>
                  <system value="http://snomed.info/sct"/>
                  <code value="271737000"/>
                  <display value="Anemia (disorder)"/>
               </coding>
               <text value="Anemia"/>
            </code>
            <subject>
               <reference value="urn:uuid:"/>
               <display value="Marlene Gerlach"/>
            </subject>
            <onsetDateTime value="1966-05-22"/>
            <asserter>
               <reference value="urn:uuid:"/>
               <display value="Gesundheitszentrum"/>
            </asserter>
         </Condition>
      </resource>
   </entry>
   <entry>
      <fullUrl value="urn:uuid:2062ccfc-83f8-4748-a566-80c9212959e4"/>
      <resource>
         <Condition>
            <id value="2062ccfc-83f8-4748-a566-80c9212959e4"/>
            <meta>
               <profile value="http://hl7.org/fhir/uv/ips/StructureDefinition/Condition-uv-ips"/>
            </meta>
            <text>
               <status value="generated"/>
               <div xmlns="http://www.w3.org/1999/xhtml">
                  <table class="hl7__ips">
                     <tr>
                        <td>Prediabetes</td>
                        <td>
                           <span class="nb">16-May-1965</span>
                        </td>
                        <td>active</td>
                     </tr>
                  </table>
               </div>
            </text>
            <category>
               <coding>
                  <system value="http://terminology.hl7.org/CodeSystem/condition-category"/>
                  <code value="problem-list-item"/>
                  <display value="Problem List Item"/>
               </coding>
            </category>
            <code>
               <coding>
                  <system value="http://snomed.info/sct"/>
                  <code value="15777000"/>
                  <display value="Prediabetes (disorder)"/>
               </coding>
               <text value="Prediabetes"/>
            </code>
            <subject>
               <reference value="urn:uuid:"/>
               <display value="Marlene Gerlach"/>
            </subject>
            <onsetDateTime value="1965-05-16"/>
            <asserter>
               <reference value="urn:uuid:"/>
               <display value="Gesundheitszentrum"/>
            </asserter>
         </Condition>
      </resource>
   </entry>
   <entry>
      <fullUrl value="urn:uuid:5426b94c-fa2b-4ce4-b6e5-9c9085c2d2ec"/>
      <resource>
         <Condition>
            <id value="5426b94c-fa2b-4ce4-b6e5-9c9085c2d2ec"/>
            <meta>
               <profile value="http://hl7.org/fhir/uv/ips/StructureDefinition/Condition-uv-ips"/>
            </meta>
            <text>
               <status value="generated"/>
               <div xmlns="http://www.w3.org/1999/xhtml">
                  <table class="hl7__ips">
                     <tr>
                        <td>Essential hypertension</td>
                        <td>
                           <span class="nb">23-Apr-1961</span>
                        </td>
                        <td>active</td>
                     </tr>
                  </table>
               </div>
            </text>
            <category>
               <coding>
                  <system value="http://terminology.hl7.org/CodeSystem/condition-category"/>
                  <code value="problem-list-item"/>
                  <display value="Problem List Item"/>
               </coding>
            </category>
            <code>
               <coding>
                  <system value="http://snomed.info/sct"/>
                  <code value="59621000"/>
                  <display value="Essential hypertension (disorder)"/>
               </coding>
               <text value="Essential hypertension"/>
            </code>
            <subject>
               <reference value="urn:uuid:"/>
               <display value="Marlene Gerlach"/>
            </subject>
            <onsetDateTime value="1961-04-23"/>
            <asserter>
               <reference value="urn:uuid:"/>
               <display value="Gesundheitszentrum"/>
            </asserter>
         </Condition>
      </resource>
   </entry>
   <entry>
      <fullUrl value="urn:uuid:d8bbd681-58b6-4255-bd11-fc8be19f2cd2"/>
      <resource>
         <Condition>
            <id value="d8bbd681-58b6-4255-bd11-fc8be19f2cd2"/>
            <meta>
               <profile value="http://hl7.org/fhir/uv/ips/StructureDefinition/Condition-uv-ips"/>
            </meta>
            <text>
               <status value="generated"/>
               <div xmlns="http://www.w3.org/1999/xhtml">
                  <table class="hl7__ips">
                     <tr>
                        <td>
                           <span class="grayedout">Acute bronchitis</span>
                        </td>
                        <td>
                           <span class="nb">16-Jan-2025 - 04-Feb-2025</span>
                        </td>
                        <td>
                           <span class="grayedout">inactive</span>
                        </td>
                     </tr>
                  </table>
               </div>
            </text>
            <category>
               <coding>
                  <system value="http://terminology.hl7.org/CodeSystem/condition-category"/>
                  <code value="problem-list-item"/>
                  <display value="Problem List Item"/>
               </coding>
            </category>
            <code>
               <coding>
                  <system value="http://snomed.info/sct"/>
                  <code value="10509002"/>
                  <display value="Acute bronchitis (disorder)"/>
               </coding>
               <text value="Acute bronchitis"/>
            </code>
            <subject>
               <reference value="urn:uuid:"/>
               <display value="Marlene Gerlach"/>
            </subject>
            <onsetDateTime value="2025-01-16"/>
            <abatementDateTime value="2025-02-04"/>
            <asserter>
               <reference value="urn:uuid:"/>
               <display value="Gesundheitszentrum"/>
            </asserter>
         </Condition>
      </resource>
   </entry>
   <entry>
      <fullUrl value="urn:uuid:5d676a01-5e99-4b5d-8682-d497a82a3c6c"/>
      <resource>
         <Condition>
            <id value="5d676a01-5e99-4b5d-8682-d497a82a3c6c"/>
            <meta>
               <profile value="http://hl7.org/fhir/uv/ips/StructureDefinition/Condition-uv-ips"/>
            </meta>
            <text>
               <status value="generated"/>
               <div xmlns="http://www.w3.org/1999/xhtml">
                  <table class="hl7__ips">
                     <tr>
                        <td>
                           <span class="grayedout">Fracture of clavicle</span>
                        </td>
                        <td>
                           <span class="nb">09-Oct-2021 - 28-Dec-2021</span>
                        </td>
                        <td>
                           <span class="grayedout">inactive</span>
                        </td>
                     </tr>
                  </table>
               </div>
            </text>
            <category>
               <coding>
                  <system value="http://terminology.hl7.org/CodeSystem/condition-category"/>
                  <code value="problem-list-item"/>
                  <display value="Problem List Item"/>
               </coding>
            </category>
            <code>
               <coding>
                  <system value="http://snomed.info/sct"/>
                  <code value="58150001"/>
                  <display value="Fracture of clavicle (disorder)"/>
               </coding>
               <text value="Fracture of clavicle"/>
            </code>
            <subject>
               <reference value="urn:uuid:"/>
               <display value="Marlene Gerlach"/>
            </subject>
            <onsetDateTime value="2021-10-09"/>
            <abatementDateTime value="2021-12-28"/>
            <asserter>
               <reference value="urn:uuid:"/>
               <display value="Gesundheitszentrum"/>
            </asserter>
         </Condition>
      </resource>
   </entry>
   <entry>
      <fullUrl value="urn:uuid:30a30591-a69c-4264-8baf-5f0335259ea3"/>
      <resource>
         <Condition>
            <id value="30a30591-a69c-4264-8baf-5f0335259ea3"/>
            <meta>
               <profile value="http://hl7.org/fhir/uv/ips/StructureDefinition/Condition-uv-ips"/>
            </meta>
            <text>
               <status value="generated"/>
               <div xmlns="http://www.w3.org/1999/xhtml">
                  <table class="hl7__ips">
                     <tr>
                        <td>
                           <span class="grayedout">Fracture of bone</span>
                        </td>
                        <td>
                           <span class="nb">09-Oct-2021 - 28-Dec-2021</span>
                        </td>
                        <td>
                           <span class="grayedout">inactive</span>
                        </td>
                     </tr>
                  </table>
               </div>
            </text>
            <category>
               <coding>
                  <system value="http://terminology.hl7.org/CodeSystem/condition-category"/>
                  <code value="problem-list-item"/>
                  <display value="Problem List Item"/>
               </coding>
            </category>
            <code>
               <coding>
                  <system value="http://snomed.info/sct"/>
                  <code value="125605004"/>
                  <display value="Fracture of bone (disorder)"/>
               </coding>
               <text value="Fracture of bone"/>
            </code>
            <subject>
               <reference value="urn:uuid:"/>
               <display value="Marlene Gerlach"/>
            </subject>
            <onsetDateTime value="2021-10-09"/>
            <abatementDateTime value="2021-12-28"/>
            <asserter>
               <reference value="urn:uuid:"/>
               <display value="Gesundheitszentrum"/>
            </asserter>
         </Condition>
      </resource>
   </entry>
   <entry>
      <fullUrl value="urn:uuid:00ce48be-bcae-41f1-850e-a4e3d4366fb6"/>
      <resource>
         <Condition>
            <id value="00ce48be-bcae-41f1-850e-a4e3d4366fb6"/>
            <meta>
               <profile value="http://hl7.org/fhir/uv/ips/StructureDefinition/Condition-uv-ips"/>
            </meta>
            <text>
               <status value="generated"/>
               <div xmlns="http://www.w3.org/1999/xhtml">
                  <table class="hl7__ips">
                     <tr>
                        <td>
                           <span class="grayedout">Viral sinusitis</span>
                        </td>
                        <td>
                           <span class="nb">04-Apr-2021 - 12-Apr-2021</span>
                        </td>
                        <td>
                           <span class="grayedout">inactive</span>
                        </td>
                     </tr>
                  </table>
               </div>
            </text>
            <category>
               <coding>
                  <system value="http://terminology.hl7.org/CodeSystem/condition-category"/>
                  <code value="problem-list-item"/>
                  <display value="Problem List Item"/>
               </coding>
            </category>
            <code>
               <coding>
                  <system value="http://snomed.info/sct"/>
                  <code value="444814009"/>
                  <display value="Viral sinusitis (disorder)"/>
               </coding>
               <text value="Viral sinusitis"/>
            </code>
            <subject>
               <reference value="urn:uuid:"/>
               <display value="Marlene Gerlach"/>
            </subject>
            <onsetDateTime value="2021-04-04"/>
            <abatementDateTime value="2021-04-12"/>
            <asserter>
               <reference value="urn:uuid:"/>
               <display value="Gesundheitszentrum"/>
            </asserter>
         </Condition>
      </resource>
   </entry>
   <entry>
      <fullUrl value="urn:uuid:ae689c87-95e6-4e0f-b719-ee6a8b6650f3"/>
      <resource>
         <Condition>
            <id value="ae689c87-95e6-4e0f-b719-ee6a8b6650f3"/>
            <meta>
               <profile value="http://hl7.org/fhir/uv/ips/StructureDefinition/Condition-uv-ips"/>
            </meta>
            <text>
               <status value="generated"/>
               <div xmlns="http://www.w3.org/1999/xhtml">
                  <table class="hl7__ips">
                     <tr>
                        <td>
                           <span class="grayedout">Viral sinusitis</span>
                        </td>
                        <td>
                           <span class="nb">03-Jun-2018 - 21-Jun-2018</span>
                        </td>
                        <td>
                           <span class="grayedout">inactive</span>
                        </td>
                     </tr>
                  </table>
               </div>
            </text>
            <category>
               <coding>
                  <system value="http://terminology.hl7.org/CodeSystem/condition-category"/>
                  <code value="problem-list-item"/>
                  <display value="Problem List Item"/>
               </coding>
            </category>
            <code>
               <coding>
                  <system value="http://snomed.info/sct"/>
                  <code value="444814009"/>
                  <display value="Viral sinusitis (disorder)"/>
               </coding>
               <text value="Viral sinusitis"/>
            </code>
            <subject>
               <reference value="urn:uuid:"/>
               <display value="Marlene Gerlach"/>
            </subject>
            <onsetDateTime value="2018-06-03"/>
            <abatementDateTime value="2018-06-21"/>
            <asserter>
               <reference value="urn:uuid:"/>
               <display value="Gesundheitszentrum"/>
            </asserter>
         </Condition>
      </resource>
   </entry>
   <entry>
      <fullUrl value="urn:uuid:600611e8-ad18-457d-9c74-767ecc4c0d64"/>
      <resource>
         <Medication>
            <id value="600611e8-ad18-457d-9c74-767ecc4c0d64"/>
            <meta>
               <profile value="http://hl7.eu/fhir/eps/StructureDefinition/Medication-eu-eps"/>
            </meta>
            <text>
               <status value="generated"/>
               <div xmlns="http://www.w3.org/1999/xhtml">insulin isophane human 70 UNT/ML / insulin regular human 30 UNT/ML Injectable Suspension [Humulin]</div>
            </text>
            <code>
               <coding>
                  <system value="http://www.nlm.nih.gov/research/umls/rxnorm"/>
                  <code value="106892"/>
                  <display value="insulin isophane  human 70 UNT/ML / insulin  regular  human 30 UNT/ML Injectable Suspension [Humulin]"/>
               </coding>
               <text value="insulin isophane  human 70 UNT/ML / insulin  regular  human 30 UNT/ML Injectable Suspension [Humulin]"/>
            </code>
         </Medication>
      </resource>
   </entry>
   <entry>
      <fullUrl value="urn:uuid:a02618ad-5589-4886-b0f7-1f599894942b"/>
      <resource>
         <MedicationStatement>
            <id value="a02618ad-5589-4886-b0f7-1f599894942b"/>
            <meta>
               <profile value="http://hl7.eu/fhir/eps/StructureDefinition/MedicationStatement-eu-eps"/>
            </meta>
            <text>
               <status value="generated"/>
               <div xmlns="http://www.w3.org/1999/xhtml">
                  <table class="hl7__ips first25">
                     <tr>
                        <th>Medication</th>
                        <th>Since</th>
                        <th>Form</th>
                        <th>Dosage</th>
                        <th>Reason</th>
                     </tr>
                     <tr>
                        <td>insulin isophane human 70 UNT/ML / insulin regular human 30 UNT/ML Injectable Suspension [Humulin]</td>
                        <td>
                           <span class="nb">2025-05-04</span>
                        </td>
                        <td>-</td>
                        <td>10 units subcutaneously twice daily before breakfast and dinner</td>
                        <td>Prediabetes</td>
                     </tr>
                  </table>
               </div>
            </text>
            <status value="active"/>
            <medicationReference>
               <reference value="urn:uuid:600611e8-ad18-457d-9c74-767ecc4c0d64"/>
               <display value="insulin isophane  human 70 UNT/ML / insulin  regular  human 30 UNT/ML Injectable Suspension [Humulin]"/>
            </medicationReference>
            <subject>
               <reference value="urn:uuid:8e3a9482-4c47-4b1c-986d-919bda392619"/>
               <display value="Marlene Gerlach"/>
            </subject>
            <effectivePeriod>
               <start value="2025-05-04"/>
            </effectivePeriod>
            <reasonCode>
               <coding>
                  <system value="http://snomed.info/sct"/>
                  <code value="15777000"/>
                  <display value="Prediabetes"/>
               </coding>
            </reasonCode>
            <dosage>
               <text value="10 units subcutaneously twice daily before breakfast and dinner"/>
               <timing>
                  <repeat>
                     <frequency value="2"/>
                     <period value="1"/>
                     <periodUnit value="d"/>
                  </repeat>
               </timing>
               <asNeededBoolean value="false"/>
               <doseAndRate>
                  <doseQuantity>
                     <value value="10"/>
                     <unit value="unit"/>
                     <code value="U"/>
                  </doseQuantity>
               </doseAndRate>
            </dosage>
         </MedicationStatement>
      </resource>
   </entry>
   <entry>
      <fullUrl value="urn:uuid:a0993957-ff30-4bb7-96f6-f5117db5be18"/>
      <resource>
         <Medication>
            <id value="a0993957-ff30-4bb7-96f6-f5117db5be18"/>
            <meta>
               <profile value="http://hl7.eu/fhir/eps/StructureDefinition/Medication-eu-eps"/>
            </meta>
            <text>
               <status value="generated"/>
               <div xmlns="http://www.w3.org/1999/xhtml">Lisinopril 10 mg oral tablet</div>
            </text>
            <code>
               <coding>
                  <system value="http://snomed.info/sct"/>
                  <code value="318859000"/>
                  <display value="Lisinopril 10 mg oral tablet"/>
               </coding>
               <text value="Lisinopril 10 mg oral tablet"/>
            </code>
         </Medication>
      </resource>
   </entry>
   <entry>
      <fullUrl value="urn:uuid:6c3fd67d-31e5-4aee-9af0-ec1466a1dd21"/>
      <resource>
         <MedicationStatement>
            <id value="6c3fd67d-31e5-4aee-9af0-ec1466a1dd21"/>
            <meta>
               <profile value="http://hl7.eu/fhir/eps/StructureDefinition/MedicationStatement-eu-eps"/>
            </meta>
            <text>
               <status value="generated"/>
               <div xmlns="http://www.w3.org/1999/xhtml">
                  <table class="hl7__ips first25">
                     <tr>
                        <th>Medication</th>
                        <th>Since</th>
                        <th>Form</th>
                        <th>Dosage</th>
                        <th>Reason</th>
                     </tr>
                     <tr>
                        <td>Lisinopril 10 mg oral tablet</td>
                        <td>
                           <span class="nb">2025-05-04</span>
                        </td>
                        <td>-</td>
                        <td>1 tablet (10 mg) by mouth once daily</td>
                        <td>Essential hypertension (disorder)</td>
                     </tr>
                  </table>
               </div>
            </text>
            <status value="active"/>
            <medicationReference>
               <reference value="urn:uuid:a0993957-ff30-4bb7-96f6-f5117db5be18"/>
               <display value="Lisinopril 10 mg oral tablet"/>
            </medicationReference>
            <subject>
               <reference value="urn:uuid:8e3a9482-4c47-4b1c-986d-919bda392619"/>
               <display value="Marlene Gerlach"/>
            </subject>
            <effectivePeriod>
               <start value="2025-05-04"/>
            </effectivePeriod>
            <reasonCode>
               <coding>
                  <system value="http://snomed.info/sct"/>
                  <code value="59621000"/>
                  <display value="Essential hypertension (disorder)"/>
               </coding>
            </reasonCode>
            <dosage>
               <text value="1 tablet (10 mg) by mouth once daily"/>
               <timing>
                  <repeat>
                     <frequency value="1"/>
                     <period value="1"/>
                     <periodUnit value="d"/>
                  </repeat>
               </timing>
               <asNeededBoolean value="false"/>
               <doseAndRate>
                  <doseQuantity>
                     <value value="1"/>
                     <unit value="{tbl}"/>
                     <code value="{tbl}"/>
                  </doseQuantity>
               </doseAndRate>
            </dosage>
         </MedicationStatement>
      </resource>
   </entry>
   <entry>
      <fullUrl value="urn:uuid:01ecaf6f-fd14-4c49-b463-0c5e90a150a0"/>
      <resource>
         <Medication>
            <id value="01ecaf6f-fd14-4c49-b463-0c5e90a150a0"/>
            <meta>
               <profile value="http://hl7.eu/fhir/eps/StructureDefinition/Medication-eu-eps"/>
            </meta>
            <text>
               <status value="generated"/>
               <div xmlns="http://www.w3.org/1999/xhtml">24 HR tacrolimus 1 MG Extended Release Oral Tablet</div>
            </text>
            <code>
               <coding>
                  <system value="http://www.nlm.nih.gov/research/umls/rxnorm"/>
                  <code value="1664463"/>
                  <display value="24 HR tacrolimus 1 MG Extended Release Oral Tablet"/>
               </coding>
               <text value="24 HR tacrolimus 1 MG Extended Release Oral Tablet"/>
            </code>
         </Medication>
      </resource>
   </entry>
   <entry>
      <fullUrl value="urn:uuid:a8a046aa-09fe-4ce3-8daa-27dca388be2d"/>
      <resource>
         <MedicationStatement>
            <id value="a8a046aa-09fe-4ce3-8daa-27dca388be2d"/>
            <meta>
               <profile value="http://hl7.eu/fhir/eps/StructureDefinition/MedicationStatement-eu-eps"/>
            </meta>
            <text>
               <status value="generated"/>
               <div xmlns="http://www.w3.org/1999/xhtml">
                  <table class="hl7__ips first25">
                     <tr>
                        <th>Medication</th>
                        <th>Since</th>
                        <th>Form</th>
                        <th>Dosage</th>
                        <th>Reason</th>
                     </tr>
                     <tr>
                        <td>24 HR tacrolimus 1 MG Extended Release Oral Tablet</td>
                        <td>
                           <span class="nb">2025-05-04</span>
                        </td>
                        <td>-</td>
                        <td>1 tablet (1 mg) by mouth once daily</td>
                        <td>History of renal transplant (situation)</td>
                     </tr>
                  </table>
               </div>
            </text>
            <status value="active"/>
            <medicationReference>
               <reference value="urn:uuid:01ecaf6f-fd14-4c49-b463-0c5e90a150a0"/>
               <display value="24 HR tacrolimus 1 MG Extended Release Oral Tablet"/>
            </medicationReference>
            <subject>
               <reference value="urn:uuid:8e3a9482-4c47-4b1c-986d-919bda392619"/>
               <display value="Marlene Gerlach"/>
            </subject>
            <effectivePeriod>
               <start value="2025-05-04"/>
            </effectivePeriod>
            <reasonCode>
               <coding>
                  <system value="http://snomed.info/sct"/>
                  <code value="161665007"/>
                  <display value="History of renal transplant (situation)"/>
               </coding>
            </reasonCode>
            <dosage>
               <text value="1 tablet (1 mg) by mouth once daily"/>
               <timing>
                  <repeat>
                     <frequency value="1"/>
                     <period value="1"/>
                     <periodUnit value="d"/>
                  </repeat>
               </timing>
               <asNeededBoolean value="false"/>
               <doseAndRate>
                  <doseQuantity>
                     <value value="1"/>
                     <unit value="{tbl}"/>
                     <code value="{tbl}"/>
                  </doseQuantity>
               </doseAndRate>
            </dosage>
         </MedicationStatement>
      </resource>
   </entry>
   <entry>
      <fullUrl value="urn:uuid:646c3028-2aa9-4cba-97f4-a4fef57808d2"/>
      <resource>
         <Medication>
            <id value="646c3028-2aa9-4cba-97f4-a4fef57808d2"/>
            <meta>
               <profile value="http://hl7.eu/fhir/eps/StructureDefinition/Medication-eu-eps"/>
            </meta>
            <text>
               <status value="generated"/>
               <div xmlns="http://www.w3.org/1999/xhtml">Simvastatin 10 mg oral tablet</div>
            </text>
            <code>
               <coding>
                  <system value="http://snomed.info/sct"/>
                  <code value="319996000"/>
                  <display value="Simvastatin 10 mg oral tablet"/>
               </coding>
               <text value="Simvastatin 10 mg oral tablet"/>
            </code>
         </Medication>
      </resource>
   </entry>
   <entry>
      <fullUrl value="urn:uuid:4217b6b0-d033-44b0-aea2-797b68d72350"/>
      <resource>
         <MedicationStatement>
            <id value="4217b6b0-d033-44b0-aea2-797b68d72350"/>
            <meta>
               <profile value="http://hl7.eu/fhir/eps/StructureDefinition/MedicationStatement-eu-eps"/>
            </meta>
            <text>
               <status value="generated"/>
               <div xmlns="http://www.w3.org/1999/xhtml">
                  <table class="hl7__ips first25">
                     <tr>
                        <th>Medication</th>
                        <th>Since</th>
                        <th>Form</th>
                        <th>Dosage</th>
                        <th>Reason</th>
                     </tr>
                     <tr>
                        <td>Simvastatin 10 mg oral tablet</td>
                        <td>
                           <span class="nb">2025-03-28</span>
                        </td>
                        <td>-</td>
                        <td>1 tablet (10 mg) by mouth once daily</td>
                        <td>Hyperlipidemia</td>
                     </tr>
                  </table>
               </div>
            </text>
            <status value="active"/>
            <medicationReference>
               <reference value="urn:uuid:646c3028-2aa9-4cba-97f4-a4fef57808d2"/>
               <display value="Simvastatin 10 mg oral tablet"/>
            </medicationReference>
            <subject>
               <reference value="urn:uuid:8e3a9482-4c47-4b1c-986d-919bda392619"/>
               <display value="Marlene Gerlach"/>
            </subject>
            <effectivePeriod>
               <start value="2025-03-28"/>
            </effectivePeriod>
            <reasonCode>
               <coding>
                  <system value="http://snomed.info/sct"/>
                  <code value="55822004"/>
                  <display value="Hyperlipidemia"/>
               </coding>
            </reasonCode>
            <dosage>
               <text value="1 tablet (10 mg) by mouth once daily"/>
               <timing>
                  <repeat>
                     <frequency value="1"/>
                     <period value="1"/>
                     <periodUnit value="d"/>
                  </repeat>
               </timing>
               <asNeededBoolean value="false"/>
               <doseAndRate>
                  <doseQuantity>
                     <value value="1"/>
                     <unit value="{tbl}"/>
                     <code value="{tbl}"/>
                  </doseQuantity>
               </doseAndRate>
            </dosage>
         </MedicationStatement>
      </resource>
   </entry>
   <entry>
      <fullUrl value="urn:uuid:2d84c714-2388-43d8-97f7-05d20b7e2922"/>
      <resource>
         <Medication>
            <id value="2d84c714-2388-43d8-97f7-05d20b7e2922"/>
            <meta>
               <profile value="http://hl7.eu/fhir/eps/StructureDefinition/Medication-eu-eps"/>
            </meta>
            <text>
               <status value="generated"/>
               <div xmlns="http://www.w3.org/1999/xhtml">Nitroglycerin 400 microgram/actuation sublingual spray</div>
            </text>
            <code>
               <coding>
                  <system value="http://snomed.info/sct"/>
                  <code value="425176000"/>
                  <display value="Nitroglycerin 400 microgram/actuation sublingual spray"/>
               </coding>
               <text value="Nitroglycerin 400 microgram/actuation sublingual spray"/>
            </code>
         </Medication>
      </resource>
   </entry>
   <entry>
      <fullUrl value="urn:uuid:16822be3-dc7c-4912-a289-f894ad7e3668"/>
      <resource>
         <MedicationStatement>
            <id value="16822be3-dc7c-4912-a289-f894ad7e3668"/>
            <meta>
               <profile value="http://hl7.eu/fhir/eps/StructureDefinition/MedicationStatement-eu-eps"/>
            </meta>
            <text>
               <status value="generated"/>
               <div xmlns="http://www.w3.org/1999/xhtml">
                  <table class="hl7__ips first25">
                     <tr>
                        <th>Medication</th>
                        <th>Since</th>
                        <th>Form</th>
                        <th>Dosage</th>
                        <th>Reason</th>
                     </tr>
                     <tr>
                        <td>Nitroglycerin 400 microgram/actuation sublingual spray</td>
                        <td>
                           <span class="nb">1980-08-17</span>
                        </td>
                        <td>-</td>
                        <td>1 spray (400 micrograms) under the tongue as needed for chest pain, may repeat every 5 minutes as needed, up to 3 sprays in 15 minutes</td>
                        <td>-</td>
                     </tr>
                  </table>
               </div>
            </text>
            <status value="active"/>
            <medicationReference>
               <reference value="urn:uuid:2d84c714-2388-43d8-97f7-05d20b7e2922"/>
               <display value="Nitroglycerin 400 microgram/actuation sublingual spray"/>
            </medicationReference>
            <subject>
               <reference value="urn:uuid:8e3a9482-4c47-4b1c-986d-919bda392619"/>
               <display value="Marlene Gerlach"/>
            </subject>
            <effectivePeriod>
               <start value="1980-08-17"/>
            </effectivePeriod>
            <dosage>
               <text value="1 spray (400 micrograms) under the tongue as needed for chest pain, may repeat every 5 minutes as needed, up to 3 sprays in 15 minutes"/>
               <timing>
                  <repeat>
                     <frequency value="1"/>
                     <period value="5"/>
                     <periodUnit value="min"/>
                  </repeat>
               </timing>
               <asNeededBoolean value="true"/>
               <doseAndRate>
                  <doseQuantity>
                     <value value="400"/>
                     <unit value="mcg"/>
                     <code value="ug"/>
                  </doseQuantity>
               </doseAndRate>
            </dosage>
         </MedicationStatement>
      </resource>
   </entry>
   <entry>
      <fullUrl value="urn:uuid:dadb7a86-effc-4786-9078-8073ff99ee5b"/>
      <resource>
         <Medication>
            <id value="dadb7a86-effc-4786-9078-8073ff99ee5b"/>
            <meta>
               <profile value="http://hl7.eu/fhir/eps/StructureDefinition/Medication-eu-eps"/>
            </meta>
            <text>
               <status value="generated"/>
               <div xmlns="http://www.w3.org/1999/xhtml">Metoprolol tartrate (as metoprolol succinate) 100 mg prolonged-release oral tablet</div>
            </text>
            <code>
               <coding>
                  <system value="http://snomed.info/sct"/>
                  <code value="879980009"/>
                  <display value="Metoprolol tartrate (as metoprolol succinate) 100 mg prolonged-release oral tablet"/>
               </coding>
               <text value="Metoprolol tartrate (as metoprolol succinate) 100 mg prolonged-release oral tablet"/>
            </code>
         </Medication>
      </resource>
   </entry>
   <entry>
      <fullUrl value="urn:uuid:2febf131-cbc4-41ad-baac-aa300e246aef"/>
      <resource>
         <MedicationStatement>
            <id value="2febf131-cbc4-41ad-baac-aa300e246aef"/>
            <meta>
               <profile value="http://hl7.eu/fhir/eps/StructureDefinition/MedicationStatement-eu-eps"/>
            </meta>
            <text>
               <status value="generated"/>
               <div xmlns="http://www.w3.org/1999/xhtml">
                  <table class="hl7__ips first25">
                     <tr>
                        <th>Medication</th>
                        <th>Since</th>
                        <th>Form</th>
                        <th>Dosage</th>
                        <th>Reason</th>
                     </tr>
                     <tr>
                        <td>Metoprolol tartrate (as metoprolol succinate) 100 mg prolonged-release oral tablet</td>
                        <td>
                           <span class="nb">1980-08-17</span>
                        </td>
                        <td>-</td>
                        <td>1 tablet (100 mg) once daily</td>
                        <td>-</td>
                     </tr>
                  </table>
               </div>
            </text>
            <status value="active"/>
            <medicationReference>
               <reference value="urn:uuid:dadb7a86-effc-4786-9078-8073ff99ee5b"/>
               <display value="Metoprolol tartrate (as metoprolol succinate) 100 mg prolonged-release oral tablet"/>
            </medicationReference>
            <subject>
               <reference value="urn:uuid:8e3a9482-4c47-4b1c-986d-919bda392619"/>
               <display value="Marlene Gerlach"/>
            </subject>
            <effectivePeriod>
               <start value="1980-08-17"/>
            </effectivePeriod>
            <dosage>
               <text value="1 tablet (100 mg) once daily"/>
               <timing>
                  <repeat>
                     <frequency value="1"/>
                     <period value="1"/>
                     <periodUnit value="d"/>
                  </repeat>
               </timing>
               <asNeededBoolean value="false"/>
               <doseAndRate>
                  <doseQuantity>
                     <value value="1"/>
                     <unit value="{tbl}"/>
                     <code value="{tbl}"/>
                  </doseQuantity>
               </doseAndRate>
            </dosage>
         </MedicationStatement>
      </resource>
   </entry>
   <entry>
      <fullUrl value="urn:uuid:95068ee5-6d50-49f2-a58f-feb3bab91b0a"/>
      <resource>
         <Immunization>
            <id value="95068ee5-6d50-49f2-a58f-feb3bab91b0a"/>
            <meta>
               <profile value="http://hl7.org/fhir/uv/ips/StructureDefinition/Immunization-uv-ips"/>
            </meta>
            <text>
               <status value="generated"/>
               <div xmlns="http://www.w3.org/1999/xhtml">
                  <table class="hl7__ips">
                     <tr>
                        <td>Influenza virus antigen only vaccine product</td>
                        <td>
                           <span class="nb">04-May-2025</span>
                        </td>
                     </tr>
                  </table>
               </div>
            </text>
            <status value="completed"/>
            <vaccineCode>
               <coding>
                  <system value="http://snomed.info/sct"/>
                  <code value="1181000221105"/>
                  <display value="Vaccine product containing Influenza virus antigen"/>
               </coding>
               <coding>
                  <system value="http://www.whocc.no/atc"/>
                  <code value="J07BB02"/>
                  <display value="Influenza, inactivated, split virus"/>
               </coding>
               <text value="Influenza virus antigen only vaccine product"/>
            </vaccineCode>
            <patient>
               <reference value="urn:uuid:8e3a9482-4c47-4b1c-986d-919bda392619"/>
               <display value="Marlene Gerlach"/>
            </patient>
            <occurrenceDateTime value="2025-05-04"/>
            <lotNumber value="WA-LGW8"/>
            <expirationDate value="2026-02-17"/>
            <site>
               <coding>
                  <system value="http://snomed.info/sct"/>
                  <code value="244979005"/>
                  <display value="Entire muscle of upper arm"/>
               </coding>
               <text value="Entire muscle of upper arm"/>
            </site>
            <route>
               <coding>
                  <system value="http://snomed.info/sct"/>
                  <code value="78421000"/>
                  <display value="Intramuscular route"/>
               </coding>
               <text value="Intramuscular route"/>
            </route>
         </Immunization>
      </resource>
   </entry>
   <entry>
      <fullUrl value="urn:uuid:34ca690b-0869-4ca7-b5f3-34c05cdc7fbe"/>
      <resource>
         <Immunization>
            <id value="34ca690b-0869-4ca7-b5f3-34c05cdc7fbe"/>
            <meta>
               <profile value="http://hl7.org/fhir/uv/ips/StructureDefinition/Immunization-uv-ips"/>
            </meta>
            <text>
               <status value="generated"/>
               <div xmlns="http://www.w3.org/1999/xhtml">
                  <table class="hl7__ips">
                     <tr>
                        <td>SARS-CoV-2 mRNA vaccine</td>
                        <td>
                           <span class="nb">05-Sep-2021</span>
                        </td>
                     </tr>
                  </table>
               </div>
            </text>
            <status value="completed"/>
            <vaccineCode>
               <coding>
                  <system value="http://snomed.info/sct"/>
                  <code value="1119349007"/>
                  <display value="Vaccine product containing SARS-CoV-2 mRNA"/>
               </coding>
               <coding>
                  <system value="http://www.whocc.no/atc"/>
                  <code value="J07BX03"/>
                  <display value="COVID-19 mRNA vaccines"/>
               </coding>
               <text value="SARS-CoV-2 mRNA vaccine"/>
            </vaccineCode>
            <patient>
               <reference value="urn:uuid:8e3a9482-4c47-4b1c-986d-919bda392619"/>
               <display value="Marlene Gerlach"/>
            </patient>
            <occurrenceDateTime value="2021-09-05"/>
            <lotNumber value="PG-jf9rKL"/>
            <expirationDate value="2021-10-21"/>
            <site>
               <coding>
                  <system value="http://snomed.info/sct"/>
                  <code value="244979005"/>
                  <display value="Entire muscle of upper arm"/>
               </coding>
               <text value="Entire muscle of upper arm"/>
            </site>
            <route>
               <coding>
                  <system value="http://snomed.info/sct"/>
                  <code value="78421000"/>
                  <display value="Intramuscular route"/>
               </coding>
               <text value="Intramuscular route"/>
            </route>
         </Immunization>
      </resource>
   </entry>
   <entry>
      <fullUrl value="urn:uuid:e29646f3-d72e-48cd-b3b2-bc29d42fd0b8"/>
      <resource>
         <Immunization>
            <id value="e29646f3-d72e-48cd-b3b2-bc29d42fd0b8"/>
            <meta>
               <profile value="http://hl7.org/fhir/uv/ips/StructureDefinition/Immunization-uv-ips"/>
            </meta>
            <text>
               <status value="generated"/>
               <div xmlns="http://www.w3.org/1999/xhtml">
                  <table class="hl7__ips">
                     <tr>
                        <td>Clostridium tetani toxoid antigen adsorbed only vaccine product</td>
                        <td>
                           <span class="nb">05-Mar-2017</span>
                        </td>
                     </tr>
                  </table>
               </div>
            </text>
            <status value="completed"/>
            <vaccineCode>
               <coding>
                  <system value="http://snomed.info/sct"/>
                  <code value="777725002"/>
                  <display value="Vaccine product containing only Clostridium tetani toxoid antigen adsorbed"/>
               </coding>
               <coding>
                  <system value="http://www.whocc.no/atc"/>
                  <code value="J07AM51"/>
                  <display value="Diphtheria-tetanus vaccines, adult type"/>
               </coding>
               <text value="Clostridium tetani toxoid antigen adsorbed only vaccine product"/>
            </vaccineCode>
            <patient>
               <reference value="urn:uuid:8e3a9482-4c47-4b1c-986d-919bda392619"/>
               <display value="Marlene Gerlach"/>
            </patient>
            <occurrenceDateTime value="2017-03-05"/>
            <lotNumber value="QA-0agtdl"/>
            <expirationDate value="2017-11-13"/>
            <site>
               <coding>
                  <system value="http://snomed.info/sct"/>
                  <code value="244979005"/>
                  <display value="Entire muscle of upper arm"/>
               </coding>
               <text value="Entire muscle of upper arm"/>
            </site>
            <route>
               <coding>
                  <system value="http://snomed.info/sct"/>
                  <code value="78421000"/>
                  <display value="Intramuscular route"/>
               </coding>
               <text value="Intramuscular route"/>
            </route>
         </Immunization>
      </resource>
   </entry>
   <entry>
      <fullUrl value="urn:uuid:f7c3876b-be4a-4a92-9849-f498b87e0588"/>
      <resource>
         <Procedure>
            <id value="f7c3876b-be4a-4a92-9849-f498b87e0588"/>
            <meta>
               <profile value="http://hl7.org/fhir/uv/ips/StructureDefinition/Procedure-uv-ips"/>
            </meta>
            <text>
               <status value="generated"/>
               <div xmlns="http://www.w3.org/1999/xhtml">
                  <table class="hl7__ips">
                     <tr>
                        <td>Admission to orthopedic department</td>
                        <td>
                           <span class="nb">09-Oct-2021</span>
                        </td>
                        <td>Fracture of clavicle</td>
                     </tr>
                  </table>
               </div>
            </text>
            <status value="completed"/>
            <code>
               <coding>
                  <system value="http://snomed.info/sct"/>
                  <code value="305428000"/>
                  <display value="Admission to orthopedic department"/>
               </coding>
               <text value="Admission to orthopedic department"/>
            </code>
            <subject>
               <reference value="urn:uuid:"/>
               <display value="Marlene Gerlach"/>
            </subject>
            <performedDateTime value="2021-10-09"/>
            <reasonCode>
               <coding>
                  <system value="http://snomed.info/sct"/>
                  <code value="58150001"/>
                  <display value="Fracture of clavicle"/>
               </coding>
            </reasonCode>
         </Procedure>
      </resource>
   </entry>
   <entry>
      <fullUrl value="urn:uuid:6163c54e-f16e-41e2-8d49-7945e0a27a12"/>
      <resource>
         <Procedure>
            <id value="6163c54e-f16e-41e2-8d49-7945e0a27a12"/>
            <meta>
               <profile value="http://hl7.org/fhir/uv/ips/StructureDefinition/Procedure-uv-ips"/>
            </meta>
            <text>
               <status value="generated"/>
               <div xmlns="http://www.w3.org/1999/xhtml">
                  <table class="hl7__ips">
                     <tr>
                        <td>Bone density scan</td>
                        <td>
                           <span class="nb">09-Oct-2021</span>
                        </td>
                        <td>Fracture of clavicle</td>
                     </tr>
                  </table>
               </div>
            </text>
            <status value="completed"/>
            <code>
               <coding>
                  <system value="http://snomed.info/sct"/>
                  <code value="312681000"/>
                  <display value="Bone density scan (procedure)"/>
               </coding>
               <text value="Bone density scan"/>
            </code>
            <subject>
               <reference value="urn:uuid:"/>
               <display value="Marlene Gerlach"/>
            </subject>
            <performedDateTime value="2021-10-09"/>
            <reasonCode>
               <coding>
                  <system value="http://snomed.info/sct"/>
                  <code value="58150001"/>
                  <display value="Fracture of clavicle"/>
               </coding>
            </reasonCode>
         </Procedure>
      </resource>
   </entry>
   <entry>
      <fullUrl value="urn:uuid:e4710b87-e93e-4040-bcae-d4398bba5917"/>
      <resource>
         <Procedure>
            <id value="e4710b87-e93e-4040-bcae-d4398bba5917"/>
            <meta>
               <profile value="http://hl7.org/fhir/uv/ips/StructureDefinition/Procedure-uv-ips"/>
            </meta>
            <text>
               <status value="generated"/>
               <div xmlns="http://www.w3.org/1999/xhtml">
                  <table class="hl7__ips">
                     <tr>
                        <td>Plain X-ray of clavicle</td>
                        <td>
                           <span class="nb">08-Oct-2021</span>
                        </td>
                        <td>-</td>
                     </tr>
                  </table>
               </div>
            </text>
            <status value="completed"/>
            <code>
               <coding>
                  <system value="http://snomed.info/sct"/>
                  <code value="168594001"/>
                  <display value="Clavicle X-ray"/>
               </coding>
               <text value="Plain X-ray of clavicle"/>
            </code>
            <subject>
               <reference value="urn:uuid:"/>
               <display value="Marlene Gerlach"/>
            </subject>
            <performedDateTime value="2021-10-08"/>
         </Procedure>
      </resource>
   </entry>
   <entry>
      <fullUrl value="urn:uuid:de9f1531-c272-45ff-ac88-8d97418ef4b3"/>
      <resource>
         <Procedure>
            <id value="de9f1531-c272-45ff-ac88-8d97418ef4b3"/>
            <meta>
               <profile value="http://hl7.org/fhir/uv/ips/StructureDefinition/Procedure-uv-ips"/>
            </meta>
            <text>
               <status value="generated"/>
               <div xmlns="http://www.w3.org/1999/xhtml">
                  <table class="hl7__ips">
                     <tr>
                        <td>Patient discharge</td>
                        <td>
                           <span class="nb">02-Apr-2021</span>
                        </td>
                        <td>-</td>
                     </tr>
                  </table>
               </div>
            </text>
            <status value="completed"/>
            <code>
               <coding>
                  <system value="http://snomed.info/sct"/>
                  <code value="58000006"/>
                  <display value="Patient discharge (procedure)"/>
               </coding>
               <text value="Patient discharge"/>
            </code>
            <subject>
               <reference value="urn:uuid:"/>
               <display value="Marlene Gerlach"/>
            </subject>
            <performedDateTime value="2021-04-02"/>
         </Procedure>
      </resource>
   </entry>
   <entry>
      <fullUrl value="urn:uuid:4db800a3-be18-4c51-aa7c-cdae4d200e4a"/>
      <resource>
         <Procedure>
            <id value="4db800a3-be18-4c51-aa7c-cdae4d200e4a"/>
            <meta>
               <profile value="http://hl7.org/fhir/uv/ips/StructureDefinition/Procedure-uv-ips"/>
            </meta>
            <text>
               <status value="generated"/>
               <div xmlns="http://www.w3.org/1999/xhtml">
                  <table class="hl7__ips">
                     <tr>
                        <td>Hospice care</td>
                        <td>
                           <span class="nb">01-Apr-2021</span>
                        </td>
                        <td>-</td>
                     </tr>
                  </table>
               </div>
            </text>
            <status value="completed"/>
            <code>
               <coding>
                  <system value="http://snomed.info/sct"/>
                  <code value="385763009"/>
                  <display value="Hospice care (regime/therapy)"/>
               </coding>
               <text value="Hospice care"/>
            </code>
            <subject>
               <reference value="urn:uuid:"/>
               <display value="Marlene Gerlach"/>
            </subject>
            <performedDateTime value="2021-04-01"/>
         </Procedure>
      </resource>
   </entry>
   <entry>
      <fullUrl value="urn:uuid:dee9e6c0-69c2-4836-9379-3225737992a7"/>
      <resource>
         <Procedure>
            <id value="dee9e6c0-69c2-4836-9379-3225737992a7"/>
            <meta>
               <profile value="http://hl7.org/fhir/uv/ips/StructureDefinition/Procedure-uv-ips"/>
            </meta>
            <text>
               <status value="generated"/>
               <div xmlns="http://www.w3.org/1999/xhtml">
                  <table class="hl7__ips">
                     <tr>
                        <td>Notifications</td>
                        <td>
                           <span class="nb">21-Feb-2021</span>
                        </td>
                        <td>-</td>
                     </tr>
                  </table>
               </div>
            </text>
            <status value="completed"/>
            <code>
               <coding>
                  <system value="http://snomed.info/sct"/>
                  <code value="185087000"/>
                  <display value="Notifications (procedure)"/>
               </coding>
               <text value="Notifications"/>
            </code>
            <subject>
               <reference value="urn:uuid:"/>
               <display value="Marlene Gerlach"/>
            </subject>
            <performedDateTime value="2021-02-21"/>
         </Procedure>
      </resource>
   </entry>
   <entry>
      <fullUrl value="urn:uuid:fcacef11-f19e-4ece-be5f-27861e0795e2"/>
      <resource>
         <Procedure>
            <id value="fcacef11-f19e-4ece-be5f-27861e0795e2"/>
            <meta>
               <profile value="http://hl7.org/fhir/uv/ips/StructureDefinition/Procedure-uv-ips"/>
            </meta>
            <text>
               <status value="generated"/>
               <div xmlns="http://www.w3.org/1999/xhtml">
                  <table class="hl7__ips">
                     <tr>
                        <td>Certification procedure</td>
                        <td>
                           <span class="nb">21-Feb-2021</span>
                        </td>
                        <td>-</td>
                     </tr>
                  </table>
               </div>
            </text>
            <status value="completed"/>
            <code>
               <coding>
                  <system value="http://snomed.info/sct"/>
                  <code value="310417005"/>
                  <display value="Certification procedure (procedure)"/>
               </coding>
               <text value="Certification procedure"/>
            </code>
            <subject>
               <reference value="urn:uuid:"/>
               <display value="Marlene Gerlach"/>
            </subject>
            <performedDateTime value="2021-02-21"/>
         </Procedure>
      </resource>
   </entry>
   <entry>
      <fullUrl value="urn:uuid:5de7ca00-f65c-4c53-b2f3-880de371d95a"/>
      <resource>
         <Procedure>
            <id value="5de7ca00-f65c-4c53-b2f3-880de371d95a"/>
            <meta>
               <profile value="http://hl7.org/fhir/uv/ips/StructureDefinition/Procedure-uv-ips"/>
            </meta>
            <text>
               <status value="generated"/>
               <div xmlns="http://www.w3.org/1999/xhtml">
                  <table class="hl7__ips">
                     <tr>
                        <td>Initial patient assessment</td>
                        <td>
                           <span class="nb">21-Feb-2021</span>
                        </td>
                        <td>-</td>
                     </tr>
                  </table>
               </div>
            </text>
            <status value="completed"/>
            <code>
               <coding>
                  <system value="http://snomed.info/sct"/>
                  <code value="315639002"/>
                  <display value="Initial patient assessment (procedure)"/>
               </coding>
               <text value="Initial patient assessment"/>
            </code>
            <subject>
               <reference value="urn:uuid:"/>
               <display value="Marlene Gerlach"/>
            </subject>
            <performedDateTime value="2021-02-21"/>
         </Procedure>
      </resource>
   </entry>
   <entry>
      <fullUrl value="urn:uuid:0a76541f-0eb5-4a1a-82b6-fb05e11a83a0"/>
      <resource>
         <Procedure>
            <id value="0a76541f-0eb5-4a1a-82b6-fb05e11a83a0"/>
            <meta>
               <profile value="http://hl7.org/fhir/uv/ips/StructureDefinition/Procedure-uv-ips"/>
            </meta>
            <text>
               <status value="generated"/>
               <div xmlns="http://www.w3.org/1999/xhtml">
                  <table class="hl7__ips">
                     <tr>
                        <td>Development of individualized plan of care</td>
                        <td>
                           <span class="nb">21-Feb-2021</span>
                        </td>
                        <td>-</td>
                     </tr>
                  </table>
               </div>
            </text>
            <status value="completed"/>
            <code>
               <coding>
                  <system value="http://snomed.info/sct"/>
                  <code value="370789001"/>
                  <display value="Development of individualized plan of care (procedure)"/>
               </coding>
               <text value="Development of individualized plan of care"/>
            </code>
            <subject>
               <reference value="urn:uuid:"/>
               <display value="Marlene Gerlach"/>
            </subject>
            <performedDateTime value="2021-02-21"/>
         </Procedure>
      </resource>
   </entry>
   <entry>
      <fullUrl value="urn:uuid:003859b3-100e-4101-b96f-4c718bd901b1"/>
      <resource>
         <Procedure>
            <id value="003859b3-100e-4101-b96f-4c718bd901b1"/>
            <meta>
               <profile value="http://hl7.org/fhir/uv/ips/StructureDefinition/Procedure-uv-ips"/>
            </meta>
            <text>
               <status value="generated"/>
               <div xmlns="http://www.w3.org/1999/xhtml">
                  <table class="hl7__ips">
                     <tr>
                        <td>Depression screening</td>
                        <td>
                           <span class="nb">27-May-2018</span>
                        </td>
                        <td>-</td>
                     </tr>
                  </table>
               </div>
            </text>
            <status value="completed"/>
            <code>
               <coding>
                  <system value="http://snomed.info/sct"/>
                  <code value="171207006"/>
                  <display value="Depression screening (procedure)"/>
               </coding>
               <text value="Depression screening"/>
            </code>
            <subject>
               <reference value="urn:uuid:"/>
               <display value="Marlene Gerlach"/>
            </subject>
            <performedDateTime value="2018-05-27"/>
         </Procedure>
      </resource>
   </entry>
   <entry>
      <fullUrl value="urn:uuid:a9d05275-e5f7-478a-a91e-d8405ae78565"/>
      <resource>
         <Procedure>
            <id value="a9d05275-e5f7-478a-a91e-d8405ae78565"/>
            <meta>
               <profile value="http://hl7.org/fhir/uv/ips/StructureDefinition/Procedure-uv-ips"/>
            </meta>
            <text>
               <status value="generated"/>
               <div xmlns="http://www.w3.org/1999/xhtml">
                  <table class="hl7__ips">
                     <tr>
                        <td>Assessment of health and social care needs</td>
                        <td>
                           <span class="nb">27-May-2018</span>
                        </td>
                        <td>-</td>
                     </tr>
                  </table>
               </div>
            </text>
            <status value="completed"/>
            <code>
               <coding>
                  <system value="http://snomed.info/sct"/>
                  <code value="710824005"/>
                  <display value="Assessment of health and social care needs (procedure)"/>
               </coding>
               <text value="Assessment of health and social care needs"/>
            </code>
            <subject>
               <reference value="urn:uuid:"/>
               <display value="Marlene Gerlach"/>
            </subject>
            <performedDateTime value="2018-05-27"/>
         </Procedure>
      </resource>
   </entry>
   <entry>
      <fullUrl value="urn:uuid:f28ae783-e46c-4b60-90f9-c5fca7041f83"/>
      <resource>
         <Procedure>
            <id value="f28ae783-e46c-4b60-90f9-c5fca7041f83"/>
            <meta>
               <profile value="http://hl7.org/fhir/uv/ips/StructureDefinition/Procedure-uv-ips"/>
            </meta>
            <text>
               <status value="generated"/>
               <div xmlns="http://www.w3.org/1999/xhtml">
                  <table class="hl7__ips">
                     <tr>
                        <td>Screening for drug abuse</td>
                        <td>
                           <span class="nb">27-May-2018</span>
                        </td>
                        <td>-</td>
                     </tr>
                  </table>
               </div>
            </text>
            <status value="completed"/>
            <code>
               <coding>
                  <system value="http://snomed.info/sct"/>
                  <code value="713106006"/>
                  <display value="Screening for drug abuse (procedure)"/>
               </coding>
               <text value="Screening for drug abuse"/>
            </code>
            <subject>
               <reference value="urn:uuid:"/>
               <display value="Marlene Gerlach"/>
            </subject>
            <performedDateTime value="2018-05-27"/>
         </Procedure>
      </resource>
   </entry>
   <entry>
      <fullUrl value="urn:uuid:642aae61-b3d5-41dc-b935-7acfc4ea1fc1"/>
      <resource>
         <Procedure>
            <id value="642aae61-b3d5-41dc-b935-7acfc4ea1fc1"/>
            <meta>
               <profile value="http://hl7.org/fhir/uv/ips/StructureDefinition/Procedure-uv-ips"/>
            </meta>
            <text>
               <status value="generated"/>
               <div xmlns="http://www.w3.org/1999/xhtml">
                  <table class="hl7__ips">
                     <tr>
                        <td>Assessment using Morse Fall Scale</td>
                        <td>
                           <span class="nb">27-May-2018</span>
                        </td>
                        <td>-</td>
                     </tr>
                  </table>
               </div>
            </text>
            <status value="completed"/>
            <code>
               <coding>
                  <system value="http://snomed.info/sct"/>
                  <code value="762993000"/>
                  <display value="Assessment using Morse Fall Scale (procedure)"/>
               </coding>
               <text value="Assessment using Morse Fall Scale"/>
            </code>
            <subject>
               <reference value="urn:uuid:"/>
               <display value="Marlene Gerlach"/>
            </subject>
            <performedDateTime value="2018-05-27"/>
         </Procedure>
      </resource>
   </entry>
   <entry>
      <fullUrl value="urn:uuid:b78c8b58-3d51-4574-a795-c0caffd398d2"/>
      <resource>
         <Procedure>
            <id value="b78c8b58-3d51-4574-a795-c0caffd398d2"/>
            <meta>
               <profile value="http://hl7.org/fhir/uv/ips/StructureDefinition/Procedure-uv-ips"/>
            </meta>
            <text>
               <status value="generated"/>
               <div xmlns="http://www.w3.org/1999/xhtml">
                  <table class="hl7__ips">
                     <tr>
                        <td>Screening for domestic abuse</td>
                        <td>
                           <span class="nb">27-May-2018</span>
                        </td>
                        <td>-</td>
                     </tr>
                  </table>
               </div>
            </text>
            <status value="completed"/>
            <code>
               <coding>
                  <system value="http://snomed.info/sct"/>
                  <code value="866148006"/>
                  <display value="Screening for domestic abuse (procedure)"/>
               </coding>
               <text value="Screening for domestic abuse"/>
            </code>
            <subject>
               <reference value="urn:uuid:"/>
               <display value="Marlene Gerlach"/>
            </subject>
            <performedDateTime value="2018-05-27"/>
         </Procedure>
      </resource>
   </entry>
   <entry>
      <fullUrl value="urn:uuid:e72c065f-ca5a-4971-9865-da44a00cbdda"/>
      <resource>
         <Procedure>
            <id value="e72c065f-ca5a-4971-9865-da44a00cbdda"/>
            <meta>
               <profile value="http://hl7.org/fhir/uv/ips/StructureDefinition/Procedure-uv-ips"/>
            </meta>
            <text>
               <status value="generated"/>
               <div xmlns="http://www.w3.org/1999/xhtml">
                  <table class="hl7__ips">
                     <tr>
                        <td>Assessment of substance use</td>
                        <td>
                           <span class="nb">27-May-2018</span>
                        </td>
                        <td>-</td>
                     </tr>
                  </table>
               </div>
            </text>
            <status value="completed"/>
            <code>
               <coding>
                  <system value="http://snomed.info/sct"/>
                  <code value="428211000124100"/>
                  <display value="Assessment of substance use (procedure)"/>
               </coding>
               <text value="Assessment of substance use"/>
            </code>
            <subject>
               <reference value="urn:uuid:"/>
               <display value="Marlene Gerlach"/>
            </subject>
            <performedDateTime value="2018-05-27"/>
         </Procedure>
      </resource>
   </entry>
   <entry>
      <fullUrl value="urn:uuid:bdce64ca-1ccb-485f-bc86-3a16a86c281b"/>
      <resource>
         <Procedure>
            <id value="bdce64ca-1ccb-485f-bc86-3a16a86c281b"/>
            <meta>
               <profile value="http://hl7.org/fhir/uv/ips/StructureDefinition/Procedure-uv-ips"/>
            </meta>
            <text>
               <status value="generated"/>
               <div xmlns="http://www.w3.org/1999/xhtml">
                  <table class="hl7__ips">
                     <tr>
                        <td>Depression screening using Patient Health Questionnaire Two-Item score (procedure)</td>
                        <td>
                           <span class="nb">27-May-2018</span>
                        </td>
                        <td>-</td>
                     </tr>
                  </table>
               </div>
            </text>
            <status value="completed"/>
            <code>
               <coding>
                  <system value="http://snomed.info/sct"/>
                  <code value="454711000124102"/>
                  <display value="Depression screening using Patient Health Questionnaire Two-Item score (procedure)"/>
               </coding>
            </code>
            <subject>
               <reference value="urn:uuid:"/>
               <display value="Marlene Gerlach"/>
            </subject>
            <performedDateTime value="2018-05-27"/>
         </Procedure>
      </resource>
   </entry>
   <entry>
      <fullUrl value="urn:uuid:13fa552d-d072-4233-bf3a-4a41abd2ad9c"/>
      <resource>
         <AllergyIntolerance>
            <id value="13fa552d-d072-4233-bf3a-4a41abd2ad9c"/>
            <meta>
               <profile value="http://hl7.eu/fhir/eps/StructureDefinition/allergyIntolerance-eu-eps"/>
            </meta>
            <text>
               <status value="generated"/>
               <div xmlns="http://www.w3.org/1999/xhtml">
                  <table class="hl7__ips">
                     <tr>
                        <th>Allergy/Intolerance</th>
                        <th>Onset Date</th>
                        <th>Status</th>
                        <th>Type</th>
                        <th>Reaction</th>
                     </tr>
                     <tr>
                        <td/>
                        <td>?</td>
                        <td>active</td>
                        <td>?</td>
                        <td/>
                     </tr>
                  </table>
               </div>
            </text>
            <clinicalStatus>
               <coding>
                  <system value="http://terminology.hl7.org/CodeSystem/allergyintolerance-clinical"/>
                  <code value="active"/>
               </coding>
            </clinicalStatus>
            <verificationStatus>
               <coding>
                  <system value="http://terminology.hl7.org/CodeSystem/allergyintolerance-verification"/>
                  <code value="confirmed"/>
               </coding>
            </verificationStatus>
            <code>
               <text/>
            </code>
            <patient>
               <reference value="urn:uuid:8e3a9482-4c47-4b1c-986d-919bda392619"/>
               <display value="Marlene Gerlach"/>
            </patient>
            <onsetDateTime>
               <extension url="http://hl7.org/fhir/StructureDefinition/data-absent-reason">
                  <valueCode value="unknown"/>
               </extension>
            </onsetDateTime>
         </AllergyIntolerance>
      </resource>
   </entry>
   <entry>
      <fullUrl value="urn:uuid:2e4dbc50-cc1a-49a2-8134-d4e3e4f82b73"/>
      <resource>
         <CarePlan>
            <id value="2e4dbc50-cc1a-49a2-8134-d4e3e4f82b73"/>
            <text>
               <status value="generated"/>
               <div xmlns="http://www.w3.org/1999/xhtml">
                  <table class="hl7__ips first25">
                     <tr>
                        <th>Active Planned Care / Goals</th>
                        <th>Start Date</th>
                        <th>Reason</th>
                     </tr>
                     <tr>
                        <td>Hyperlipidemia clinical management plan</td>
                        <td>
                           <span class="nb">14-Feb-2010</span>
                        </td>
                        <td>Hyperlipidemia</td>
                     </tr>
                     <tr>
                        <td>
                           <ul>
                              <li>Achieve and maintain LDL cholesterol below 70 mg/dL to reduce cardiovascular risk.</li>
                              <li>Keep total cholesterol below 200 mg/dL.</li>
                              <li>Maintain HDL cholesterol above 50 mg/dL.</li>
                              <li>Keep triglycerides below 150 mg/dL.</li>
                           </ul>
                        </td>
                        <td/>
                        <td/>
                     </tr>
                  </table>
               </div>
            </text>
            <status value="active"/>
            <intent value="plan"/>
            <category>
               <coding>
                  <system value="http://terminology.hl7.org/CodeSystem/care-plan-category"/>
                  <code value="assess-plan"/>
                  <display value="Assessment and Plan"/>
               </coding>
            </category>
            <subject>
               <reference value="urn:uuid:8e3a9482-4c47-4b1c-986d-919bda392619"/>
               <display value="Marlene Gerlach"/>
            </subject>
            <period>
               <start value="2010-02-14"/>
            </period>
            <goal>
               <reference value="urn:uuid:44eb4548-03b3-40f2-a4d6-af75f89094b1"/>
            </goal>
            <goal>
               <reference value="urn:uuid:0b9c4059-45af-402c-9c07-d692c1ea7923"/>
            </goal>
            <goal>
               <reference value="urn:uuid:b05193c1-72a1-4900-81c5-b983c43d4406"/>
            </goal>
            <goal>
               <reference value="urn:uuid:8f1c7613-847b-4fe3-b2d2-0750d6f02ae4"/>
            </goal>
            <activity>
               <detail>
                  <kind value="Appointment"/>
                  <code>
                     <coding>
                        <system value="http://snomed.info/sct"/>
                        <code value="736285004"/>
                        <display value="Hyperlipidemia clinical management plan (record artifact)"/>
                     </coding>
                  </code>
                  <reasonCode>
                     <coding>
                        <system value="http://snomed.info/sct"/>
                        <code value="55822004"/>
                        <display value="Hyperlipidemia"/>
                     </coding>
                  </reasonCode>
                  <status value="unknown"/>
                  <description value="Hyperlipidemia clinical management plan"/>
               </detail>
            </activity>
         </CarePlan>
      </resource>
   </entry>
   <entry>
      <fullUrl value="urn:uuid:a42f0820-e4dc-4674-adef-a655e70d6092"/>
      <resource>
         <CarePlan>
            <id value="a42f0820-e4dc-4674-adef-a655e70d6092"/>
            <text>
               <status value="generated"/>
               <div xmlns="http://www.w3.org/1999/xhtml">
                  <table class="hl7__ips first25">
                     <tr>
                        <th>Active Planned Care / Goals</th>
                        <th>Start Date</th>
                        <th>Reason</th>
                     </tr>
                     <tr>
                        <td>Care plan</td>
                        <td>
                           <span class="nb">08-Apr-1981</span>
                        </td>
                        <td>-</td>
                     </tr>
                  </table>
               </div>
            </text>
            <status value="active"/>
            <intent value="plan"/>
            <category>
               <coding>
                  <system value="http://terminology.hl7.org/CodeSystem/care-plan-category"/>
                  <code value="assess-plan"/>
                  <display value="Assessment and Plan"/>
               </coding>
            </category>
            <subject>
               <reference value="urn:uuid:8e3a9482-4c47-4b1c-986d-919bda392619"/>
               <display value="Marlene Gerlach"/>
            </subject>
            <period>
               <start value="1981-04-08"/>
            </period>
            <activity>
               <detail>
                  <kind value="Appointment"/>
                  <code>
                     <coding>
                        <system value="http://snomed.info/sct"/>
                        <code value="734163000"/>
                        <display value="Care plan (record artifact)"/>
                     </coding>
                  </code>
                  <status value="unknown"/>
                  <description value="Care plan"/>
               </detail>
            </activity>
         </CarePlan>
      </resource>
   </entry>
   <entry>
      <fullUrl value="urn:uuid:bdac0fb2-8ea3-4562-a230-b97c81ba9673"/>
      <resource>
         <CarePlan>
            <id value="bdac0fb2-8ea3-4562-a230-b97c81ba9673"/>
            <text>
               <status value="generated"/>
               <div xmlns="http://www.w3.org/1999/xhtml">
                  <table class="hl7__ips first25">
                     <tr>
                        <th>Active Planned Care / Goals</th>
                        <th>Start Date</th>
                        <th>Reason</th>
                     </tr>
                     <tr>
                        <td>Dialysis care plan</td>
                        <td>
                           <span class="nb">12-Feb-1976</span>
                        </td>
                        <td>-</td>
                     </tr>
                  </table>
               </div>
            </text>
            <status value="active"/>
            <intent value="plan"/>
            <category>
               <coding>
                  <system value="http://terminology.hl7.org/CodeSystem/care-plan-category"/>
                  <code value="assess-plan"/>
                  <display value="Assessment and Plan"/>
               </coding>
            </category>
            <subject>
               <reference value="urn:uuid:8e3a9482-4c47-4b1c-986d-919bda392619"/>
               <display value="Marlene Gerlach"/>
            </subject>
            <period>
               <start value="1976-02-12"/>
            </period>
            <activity>
               <detail>
                  <kind value="Appointment"/>
                  <code>
                     <coding>
                        <system value="http://snomed.info/sct"/>
                        <code value="736690008"/>
                        <display value="Dialysis care plan (record artifact)"/>
                     </coding>
                  </code>
                  <status value="unknown"/>
                  <description value="Dialysis care plan"/>
               </detail>
            </activity>
         </CarePlan>
      </resource>
   </entry>
   <entry>
      <fullUrl value="urn:uuid:0656ca96-1b03-42d3-9824-a2518b964ba2"/>
      <resource>
         <CarePlan>
            <id value="0656ca96-1b03-42d3-9824-a2518b964ba2"/>
            <text>
               <status value="generated"/>
               <div xmlns="http://www.w3.org/1999/xhtml">
                  <table class="hl7__ips first25">
                     <tr>
                        <th>Active Planned Care / Goals</th>
                        <th>Start Date</th>
                        <th>Reason</th>
                     </tr>
                     <tr>
                        <td>Diabetes self management plan</td>
                        <td>
                           <span class="nb">16-May-1965</span>
                        </td>
                        <td>Prediabetes</td>
                     </tr>
                     <tr>
                        <td>
                           <ul>
                              <li>Patient will implement and maintain a diabetes self-management plan to prevent progression to type 2 diabetes, including dietary changes, increased physical activity, and regular blood glucose monitoring.</li>
                           </ul>
                        </td>
                        <td/>
                        <td/>
                     </tr>
                  </table>
               </div>
            </text>
            <status value="active"/>
            <intent value="plan"/>
            <category>
               <coding>
                  <system value="http://terminology.hl7.org/CodeSystem/care-plan-category"/>
                  <code value="assess-plan"/>
                  <display value="Assessment and Plan"/>
               </coding>
            </category>
            <subject>
               <reference value="urn:uuid:8e3a9482-4c47-4b1c-986d-919bda392619"/>
               <display value="Marlene Gerlach"/>
            </subject>
            <period>
               <start value="1965-05-16"/>
            </period>
            <goal>
               <reference value="urn:uuid:96422112-c54f-418d-bcd0-0c34aeec9745"/>
            </goal>
            <activity>
               <detail>
                  <kind value="Appointment"/>
                  <code>
                     <coding>
                        <system value="http://snomed.info/sct"/>
                        <code value="698360004"/>
                        <display value="Diabetes self management plan (qualifier value)"/>
                     </coding>
                  </code>
                  <reasonCode>
                     <coding>
                        <system value="http://snomed.info/sct"/>
                        <code value="15777000"/>
                        <display value="Prediabetes"/>
                     </coding>
                  </reasonCode>
                  <status value="unknown"/>
                  <description value="Diabetes self management plan"/>
               </detail>
            </activity>
         </CarePlan>
      </resource>
   </entry>
   <entry>
      <fullUrl value="urn:uuid:d28fda44-859f-4df4-a931-c8928784c822"/>
      <resource>
         <CarePlan>
            <id value="d28fda44-859f-4df4-a931-c8928784c822"/>
            <text>
               <status value="generated"/>
               <div xmlns="http://www.w3.org/1999/xhtml">
                  <table class="hl7__ips first25">
                     <tr>
                        <th>Active Planned Care / Goals</th>
                        <th>Start Date</th>
                        <th>Reason</th>
                     </tr>
                     <tr>
                        <td>Lifestyle education regarding hypertension</td>
                        <td>
                           <span class="nb">23-Apr-1961</span>
                        </td>
                        <td>Essential hypertension (disorder)</td>
                     </tr>
                     <tr>
                        <td>
                           <ul>
                              <li>Patient will demonstrate understanding of recommended lifestyle changes to manage blood pressure, including dietary sodium reduction, regular physical activity, weight management, and medication adherence.</li>
                              <li>Achieve and maintain blood pressure below 130/80 mmHg as per current guidelines.</li>
                           </ul>
                        </td>
                        <td/>
                        <td/>
                     </tr>
                  </table>
               </div>
            </text>
            <status value="active"/>
            <intent value="plan"/>
            <category>
               <coding>
                  <system value="http://terminology.hl7.org/CodeSystem/care-plan-category"/>
                  <code value="assess-plan"/>
                  <display value="Assessment and Plan"/>
               </coding>
            </category>
            <subject>
               <reference value="urn:uuid:8e3a9482-4c47-4b1c-986d-919bda392619"/>
               <display value="Marlene Gerlach"/>
            </subject>
            <period>
               <start value="1961-04-23"/>
            </period>
            <goal>
               <reference value="urn:uuid:1c8b1445-e8b3-4df4-8d1a-8b285c27a6a1"/>
            </goal>
            <goal>
               <reference value="urn:uuid:565aae49-f7a3-41fc-8ef9-e57f31c352eb"/>
            </goal>
            <activity>
               <detail>
                  <kind value="Appointment"/>
                  <code>
                     <coding>
                        <system value="http://snomed.info/sct"/>
                        <code value="443402002"/>
                        <display value="Lifestyle education regarding hypertension (procedure)"/>
                     </coding>
                  </code>
                  <reasonCode>
                     <coding>
                        <system value="http://snomed.info/sct"/>
                        <code value="59621000"/>
                        <display value="Essential hypertension (disorder)"/>
                     </coding>
                  </reasonCode>
                  <status value="unknown"/>
                  <description value="Lifestyle education regarding hypertension"/>
               </detail>
            </activity>
         </CarePlan>
      </resource>
   </entry>
   <entry>
      <fullUrl value="urn:uuid:e00dfe24-5dab-47aa-bbb9-17c3d7992f13"/>
      <resource>
         <ImmunizationRecommendation>
            <id value="e00dfe24-5dab-47aa-bbb9-17c3d7992f13"/>
            <text>
               <status value="generated"/>
               <div xmlns="http://www.w3.org/1999/xhtml">
                  <table class="hl7__ips">
                     <tr>
                        <td>Vaccine product containing only Influenza virus antigen (medicinal product)</td>
                        <td>
                           <span class="nb">01-Oct-2025</span>
                        </td>
                        <td>Annual seasonal influenza vaccination</td>
                     </tr>
                  </table>
               </div>
            </text>
            <patient>
               <reference value="urn:uuid:8e3a9482-4c47-4b1c-986d-919bda392619"/>
               <display value="Marlene Gerlach"/>
            </patient>
            <date value="2025-10-22"/>
            <recommendation>
               <vaccineCode>
                  <coding>
                     <system value="http://snomed.info/sct"/>
                     <code value="1181000221105"/>
                     <display value="Vaccine product containing only Influenza virus antigen (medicinal product)"/>
                  </coding>
               </vaccineCode>
               <targetDisease>
                  <coding>
                     <system value="http://snomed.info/sct"/>
                     <code value="6142004"/>
                     <display value="Influenza (disorder)"/>
                  </coding>
               </targetDisease>
               <forecastStatus>
                  <coding>
                     <system value="http://terminology.hl7.org/CodeSystem/immunization-recommendation-status"/>
                     <code value="due"/>
                     <display value="Due"/>
                  </coding>
               </forecastStatus>
               <dateCriterion>
                  <code>
                     <coding>
                        <system value="http://loinc.org"/>
                        <code value="30980-7"/>
                        <display value="Date vaccine due"/>
                     </coding>
                  </code>
                  <value value="2025-10-01"/>
               </dateCriterion>
               <series value="Annual seasonal influenza vaccination"/>
            </recommendation>
         </ImmunizationRecommendation>
      </resource>
   </entry>
   <entry>
      <fullUrl value="urn:uuid:0f73354d-8661-409e-91fc-0e8d68f8bb80"/>
      <resource>
         <Observation>
            <id value="0f73354d-8661-409e-91fc-0e8d68f8bb80"/>
            <meta>
               <profile value="http://hl7.org/fhir/StructureDefinition/vitalsigns"/>
            </meta>
            <text>
               <status value="generated"/>
               <div xmlns="http://www.w3.org/1999/xhtml">
                  <table class="hl7__ips">
                     <tr>
                        <th>Vital Sign</th>
                        <th>Date</th>
                        <th>Measurement</th>
                     </tr>
                     <tr>
                        <td>Body Height</td>
                        <td>04-May-2025</td>
                        <td>155.4 cm</td>
                     </tr>
                  </table>
               </div>
            </text>
            <status value="final"/>
            <category>
               <coding>
                  <system value="http://terminology.hl7.org/CodeSystem/observation-category"/>
                  <code value="vital-signs"/>
                  <display value="Vital Signs"/>
               </coding>
            </category>
            <code>
               <coding>
                  <system value="http://loinc.org"/>
                  <code value="$8302-2"/>
                  <display value="Body Height"/>
               </coding>
            </code>
            <subject>
               <reference value="urn:uuid:8e3a9482-4c47-4b1c-986d-919bda392619"/>
               <display value="Marlene Gerlach"/>
            </subject>
            <effectiveDateTime value="2025-05-04"/>
            <valueQuantity>
               <value value="155.4"/>
               <unit value="cm"/>
               <code value="cm"/>
            </valueQuantity>
         </Observation>
      </resource>
   </entry>
   <entry>
      <fullUrl value="urn:uuid:a8de7e45-72a0-4c1a-83d2-d57b5a26dc61"/>
      <resource>
         <Observation>
            <id value="a8de7e45-72a0-4c1a-83d2-d57b5a26dc61"/>
            <meta>
               <profile value="http://hl7.org/fhir/StructureDefinition/vitalsigns"/>
            </meta>
            <text>
               <status value="generated"/>
               <div xmlns="http://www.w3.org/1999/xhtml">
                  <table class="hl7__ips">
                     <tr>
                        <th>Vital Sign</th>
                        <th>Date</th>
                        <th>Measurement</th>
                     </tr>
                     <tr>
                        <td>Pain severity - 0-10 verbal numeric rating [Score] - Reported</td>
                        <td>04-May-2025</td>
                        <td>2 {score}</td>
                     </tr>
                  </table>
               </div>
            </text>
            <status value="final"/>
            <category>
               <coding>
                  <system value="http://terminology.hl7.org/CodeSystem/observation-category"/>
                  <code value="vital-signs"/>
                  <display value="Vital Signs"/>
               </coding>
            </category>
            <code>
               <coding>
                  <system value="http://loinc.org"/>
                  <code value="$72514-3"/>
                  <display value="Pain severity - 0-10 verbal numeric rating [Score] - Reported"/>
               </coding>
            </code>
            <subject>
               <reference value="urn:uuid:8e3a9482-4c47-4b1c-986d-919bda392619"/>
               <display value="Marlene Gerlach"/>
            </subject>
            <effectiveDateTime value="2025-05-04"/>
            <valueQuantity>
               <value value="2"/>
               <unit value="{score}"/>
               <code value="{score}"/>
            </valueQuantity>
         </Observation>
      </resource>
   </entry>
   <entry>
      <fullUrl value="urn:uuid:84ddb1d6-edbb-4325-b29c-04fdca5eeabd"/>
      <resource>
         <Observation>
            <id value="84ddb1d6-edbb-4325-b29c-04fdca5eeabd"/>
            <meta>
               <profile value="http://hl7.org/fhir/StructureDefinition/vitalsigns"/>
            </meta>
            <text>
               <status value="generated"/>
               <div xmlns="http://www.w3.org/1999/xhtml">
                  <table class="hl7__ips">
                     <tr>
                        <th>Vital Sign</th>
                        <th>Date</th>
                        <th>Measurement</th>
                     </tr>
                     <tr>
                        <td>Body Weight</td>
                        <td>04-May-2025</td>
                        <td>66.4 kg</td>
                     </tr>
                  </table>
               </div>
            </text>
            <status value="final"/>
            <category>
               <coding>
                  <system value="http://terminology.hl7.org/CodeSystem/observation-category"/>
                  <code value="vital-signs"/>
                  <display value="Vital Signs"/>
               </coding>
            </category>
            <code>
               <coding>
                  <system value="http://loinc.org"/>
                  <code value="$29463-7"/>
                  <display value="Body Weight"/>
               </coding>
            </code>
            <subject>
               <reference value="urn:uuid:8e3a9482-4c47-4b1c-986d-919bda392619"/>
               <display value="Marlene Gerlach"/>
            </subject>
            <effectiveDateTime value="2025-05-04"/>
            <valueQuantity>
               <value value="66.4"/>
               <unit value="kg"/>
               <code value="kg"/>
            </valueQuantity>
         </Observation>
      </resource>
   </entry>
   <entry>
      <fullUrl value="urn:uuid:c6be8a9e-e25d-447e-a1b2-a994c991fef3"/>
      <resource>
         <Observation>
            <id value="c6be8a9e-e25d-447e-a1b2-a994c991fef3"/>
            <meta>
               <profile value="http://hl7.org/fhir/StructureDefinition/vitalsigns"/>
            </meta>
            <text>
               <status value="generated"/>
               <div xmlns="http://www.w3.org/1999/xhtml">
                  <table class="hl7__ips">
                     <tr>
                        <th>Vital Sign</th>
                        <th>Date</th>
                        <th>Measurement</th>
                     </tr>
                     <tr>
                        <td>Body mass index (BMI) [Ratio]</td>
                        <td>04-May-2025</td>
                        <td>27.5 kg/m2</td>
                     </tr>
                  </table>
               </div>
            </text>
            <status value="final"/>
            <category>
               <coding>
                  <system value="http://terminology.hl7.org/CodeSystem/observation-category"/>
                  <code value="vital-signs"/>
                  <display value="Vital Signs"/>
               </coding>
            </category>
            <code>
               <coding>
                  <system value="http://loinc.org"/>
                  <code value="$39156-5"/>
                  <display value="Body mass index (BMI) [Ratio]"/>
               </coding>
            </code>
            <subject>
               <reference value="urn:uuid:8e3a9482-4c47-4b1c-986d-919bda392619"/>
               <display value="Marlene Gerlach"/>
            </subject>
            <effectiveDateTime value="2025-05-04"/>
            <valueQuantity>
               <value value="27.5"/>
               <unit value="kg/m2"/>
               <code value="kg/m2"/>
            </valueQuantity>
         </Observation>
      </resource>
   </entry>
   <entry>
      <fullUrl value="urn:uuid:d30d8671-bf16-408e-9b4a-00c8330beb64"/>
      <resource>
         <Observation>
            <id value="d30d8671-bf16-408e-9b4a-00c8330beb64"/>
            <meta>
               <profile value="http://hl7.org/fhir/StructureDefinition/vitalsigns"/>
            </meta>
            <text>
               <status value="generated"/>
               <div xmlns="http://www.w3.org/1999/xhtml">
                  <table class="hl7__ips">
                     <tr>
                        <th>Vital Sign</th>
                        <th>Date</th>
                        <th>Measurement</th>
                     </tr>
                     <tr>
                        <td>Diastolic Blood Pressure</td>
                        <td>04-May-2025</td>
                        <td>75 mm[Hg]</td>
                     </tr>
                  </table>
               </div>
            </text>
            <status value="final"/>
            <category>
               <coding>
                  <system value="http://terminology.hl7.org/CodeSystem/observation-category"/>
                  <code value="vital-signs"/>
                  <display value="Vital Signs"/>
               </coding>
            </category>
            <code>
               <coding>
                  <system value="http://loinc.org"/>
                  <code value="$8462-4"/>
                  <display value="Diastolic Blood Pressure"/>
               </coding>
            </code>
            <subject>
               <reference value="urn:uuid:8e3a9482-4c47-4b1c-986d-919bda392619"/>
               <display value="Marlene Gerlach"/>
            </subject>
            <effectiveDateTime value="2025-05-04"/>
            <valueQuantity>
               <value value="75"/>
               <unit value="mm[Hg]"/>
               <code value="mm[Hg]"/>
            </valueQuantity>
         </Observation>
      </resource>
   </entry>
   <entry>
      <fullUrl value="urn:uuid:f9bb1ba7-69d8-42ca-928a-3654597eb26b"/>
      <resource>
         <Observation>
            <id value="f9bb1ba7-69d8-42ca-928a-3654597eb26b"/>
            <meta>
               <profile value="http://hl7.org/fhir/StructureDefinition/vitalsigns"/>
            </meta>
            <text>
               <status value="generated"/>
               <div xmlns="http://www.w3.org/1999/xhtml">
                  <table class="hl7__ips">
                     <tr>
                        <th>Vital Sign</th>
                        <th>Date</th>
                        <th>Measurement</th>
                     </tr>
                     <tr>
                        <td>Systolic Blood Pressure</td>
                        <td>04-May-2025</td>
                        <td>104 mm[Hg]</td>
                     </tr>
                  </table>
               </div>
            </text>
            <status value="final"/>
            <category>
               <coding>
                  <system value="http://terminology.hl7.org/CodeSystem/observation-category"/>
                  <code value="vital-signs"/>
                  <display value="Vital Signs"/>
               </coding>
            </category>
            <code>
               <coding>
                  <system value="http://loinc.org"/>
                  <code value="$8480-6"/>
                  <display value="Systolic Blood Pressure"/>
               </coding>
            </code>
            <subject>
               <reference value="urn:uuid:8e3a9482-4c47-4b1c-986d-919bda392619"/>
               <display value="Marlene Gerlach"/>
            </subject>
            <effectiveDateTime value="2025-05-04"/>
            <valueQuantity>
               <value value="104"/>
               <unit value="mm[Hg]"/>
               <code value="mm[Hg]"/>
            </valueQuantity>
         </Observation>
      </resource>
   </entry>
   <entry>
      <fullUrl value="urn:uuid:1b2f3cc4-3c69-4642-98c4-e16f9aecf2d0"/>
      <resource>
         <Observation>
            <id value="1b2f3cc4-3c69-4642-98c4-e16f9aecf2d0"/>
            <meta>
               <profile value="http://hl7.org/fhir/StructureDefinition/vitalsigns"/>
            </meta>
            <text>
               <status value="generated"/>
               <div xmlns="http://www.w3.org/1999/xhtml">
                  <table class="hl7__ips">
                     <tr>
                        <th>Vital Sign</th>
                        <th>Date</th>
                        <th>Measurement</th>
                     </tr>
                     <tr>
                        <td>Heart rate</td>
                        <td>04-May-2025</td>
                        <td>61 /min</td>
                     </tr>
                  </table>
               </div>
            </text>
            <status value="final"/>
            <category>
               <coding>
                  <system value="http://terminology.hl7.org/CodeSystem/observation-category"/>
                  <code value="vital-signs"/>
                  <display value="Vital Signs"/>
               </coding>
            </category>
            <code>
               <coding>
                  <system value="http://loinc.org"/>
                  <code value="$8867-4"/>
                  <display value="Heart rate"/>
               </coding>
            </code>
            <subject>
               <reference value="urn:uuid:8e3a9482-4c47-4b1c-986d-919bda392619"/>
               <display value="Marlene Gerlach"/>
            </subject>
            <effectiveDateTime value="2025-05-04"/>
            <valueQuantity>
               <value value="61"/>
               <unit value="/min"/>
               <code value="/min"/>
            </valueQuantity>
         </Observation>
      </resource>
   </entry>
   <entry>
      <fullUrl value="urn:uuid:b9c1ca94-523e-400e-947e-6e43db75e059"/>
      <resource>
         <Observation>
            <id value="b9c1ca94-523e-400e-947e-6e43db75e059"/>
            <meta>
               <profile value="http://hl7.org/fhir/StructureDefinition/vitalsigns"/>
            </meta>
            <text>
               <status value="generated"/>
               <div xmlns="http://www.w3.org/1999/xhtml">
                  <table class="hl7__ips">
                     <tr>
                        <th>Vital Sign</th>
                        <th>Date</th>
                        <th>Measurement</th>
                     </tr>
                     <tr>
                        <td>Respiratory rate</td>
                        <td>04-May-2025</td>
                        <td>14 /min</td>
                     </tr>
                  </table>
               </div>
            </text>
            <status value="final"/>
            <category>
               <coding>
                  <system value="http://terminology.hl7.org/CodeSystem/observation-category"/>
                  <code value="vital-signs"/>
                  <display value="Vital Signs"/>
               </coding>
            </category>
            <code>
               <coding>
                  <system value="http://loinc.org"/>
                  <code value="$9279-1"/>
                  <display value="Respiratory rate"/>
               </coding>
            </code>
            <subject>
               <reference value="urn:uuid:8e3a9482-4c47-4b1c-986d-919bda392619"/>
               <display value="Marlene Gerlach"/>
            </subject>
            <effectiveDateTime value="2025-05-04"/>
            <valueQuantity>
               <value value="14"/>
               <unit value="/min"/>
               <code value="/min"/>
            </valueQuantity>
         </Observation>
      </resource>
   </entry>
   <entry>
      <fullUrl value="urn:uuid:3cf68a7c-8b16-48b2-9950-1126b7729500"/>
      <resource>
         <Observation>
            <id value="3cf68a7c-8b16-48b2-9950-1126b7729500"/>
            <meta>
               <profile value="http://hl7.org/fhir/StructureDefinition/vitalsigns"/>
            </meta>
            <text>
               <status value="generated"/>
               <div xmlns="http://www.w3.org/1999/xhtml">
                  <table class="hl7__ips">
                     <tr>
                        <th>Vital Sign</th>
                        <th>Date</th>
                        <th>Measurement</th>
                     </tr>
                     <tr>
                        <td>Body Height</td>
                        <td>28-Apr-2024</td>
                        <td>155.4 cm</td>
                     </tr>
                  </table>
               </div>
            </text>
            <status value="final"/>
            <category>
               <coding>
                  <system value="http://terminology.hl7.org/CodeSystem/observation-category"/>
                  <code value="vital-signs"/>
                  <display value="Vital Signs"/>
               </coding>
            </category>
            <code>
               <coding>
                  <system value="http://loinc.org"/>
                  <code value="$8302-2"/>
                  <display value="Body Height"/>
               </coding>
            </code>
            <subject>
               <reference value="urn:uuid:8e3a9482-4c47-4b1c-986d-919bda392619"/>
               <display value="Marlene Gerlach"/>
            </subject>
            <effectiveDateTime value="2024-04-28"/>
            <valueQuantity>
               <value value="155.4"/>
               <unit value="cm"/>
               <code value="cm"/>
            </valueQuantity>
         </Observation>
      </resource>
   </entry>
   <entry>
      <fullUrl value="urn:uuid:785326a5-ecea-4100-9dc3-2bd6018d7e87"/>
      <resource>
         <Observation>
            <id value="785326a5-ecea-4100-9dc3-2bd6018d7e87"/>
            <meta>
               <profile value="http://hl7.org/fhir/StructureDefinition/vitalsigns"/>
            </meta>
            <text>
               <status value="generated"/>
               <div xmlns="http://www.w3.org/1999/xhtml">
                  <table class="hl7__ips">
                     <tr>
                        <th>Vital Sign</th>
                        <th>Date</th>
                        <th>Measurement</th>
                     </tr>
                     <tr>
                        <td>Pain severity - 0-10 verbal numeric rating [Score] - Reported</td>
                        <td>28-Apr-2024</td>
                        <td>3 {score}</td>
                     </tr>
                  </table>
               </div>
            </text>
            <status value="final"/>
            <category>
               <coding>
                  <system value="http://terminology.hl7.org/CodeSystem/observation-category"/>
                  <code value="vital-signs"/>
                  <display value="Vital Signs"/>
               </coding>
            </category>
            <code>
               <coding>
                  <system value="http://loinc.org"/>
                  <code value="$72514-3"/>
                  <display value="Pain severity - 0-10 verbal numeric rating [Score] - Reported"/>
               </coding>
            </code>
            <subject>
               <reference value="urn:uuid:8e3a9482-4c47-4b1c-986d-919bda392619"/>
               <display value="Marlene Gerlach"/>
            </subject>
            <effectiveDateTime value="2024-04-28"/>
            <valueQuantity>
               <value value="3"/>
               <unit value="{score}"/>
               <code value="{score}"/>
            </valueQuantity>
         </Observation>
      </resource>
   </entry>
   <entry>
      <fullUrl value="urn:uuid:75f10f63-80e3-4404-a7e6-b5a65409d98c"/>
      <resource>
         <Observation>
            <id value="75f10f63-80e3-4404-a7e6-b5a65409d98c"/>
            <meta>
               <profile value="http://hl7.org/fhir/StructureDefinition/vitalsigns"/>
            </meta>
            <text>
               <status value="generated"/>
               <div xmlns="http://www.w3.org/1999/xhtml">
                  <table class="hl7__ips">
                     <tr>
                        <th>Vital Sign</th>
                        <th>Date</th>
                        <th>Measurement</th>
                     </tr>
                     <tr>
                        <td>Body Weight</td>
                        <td>28-Apr-2024</td>
                        <td>66.4 kg</td>
                     </tr>
                  </table>
               </div>
            </text>
            <status value="final"/>
            <category>
               <coding>
                  <system value="http://terminology.hl7.org/CodeSystem/observation-category"/>
                  <code value="vital-signs"/>
                  <display value="Vital Signs"/>
               </coding>
            </category>
            <code>
               <coding>
                  <system value="http://loinc.org"/>
                  <code value="$29463-7"/>
                  <display value="Body Weight"/>
               </coding>
            </code>
            <subject>
               <reference value="urn:uuid:8e3a9482-4c47-4b1c-986d-919bda392619"/>
               <display value="Marlene Gerlach"/>
            </subject>
            <effectiveDateTime value="2024-04-28"/>
            <valueQuantity>
               <value value="66.4"/>
               <unit value="kg"/>
               <code value="kg"/>
            </valueQuantity>
         </Observation>
      </resource>
   </entry>
   <entry>
      <fullUrl value="urn:uuid:0aa03d7d-7921-4dab-a958-42dd642cfbff"/>
      <resource>
         <Observation>
            <id value="0aa03d7d-7921-4dab-a958-42dd642cfbff"/>
            <meta>
               <profile value="http://hl7.org/fhir/StructureDefinition/vitalsigns"/>
            </meta>
            <text>
               <status value="generated"/>
               <div xmlns="http://www.w3.org/1999/xhtml">
                  <table class="hl7__ips">
                     <tr>
                        <th>Vital Sign</th>
                        <th>Date</th>
                        <th>Measurement</th>
                     </tr>
                     <tr>
                        <td>Body mass index (BMI) [Ratio]</td>
                        <td>28-Apr-2024</td>
                        <td>27.5 kg/m2</td>
                     </tr>
                  </table>
               </div>
            </text>
            <status value="final"/>
            <category>
               <coding>
                  <system value="http://terminology.hl7.org/CodeSystem/observation-category"/>
                  <code value="vital-signs"/>
                  <display value="Vital Signs"/>
               </coding>
            </category>
            <code>
               <coding>
                  <system value="http://loinc.org"/>
                  <code value="$39156-5"/>
                  <display value="Body mass index (BMI) [Ratio]"/>
               </coding>
            </code>
            <subject>
               <reference value="urn:uuid:8e3a9482-4c47-4b1c-986d-919bda392619"/>
               <display value="Marlene Gerlach"/>
            </subject>
            <effectiveDateTime value="2024-04-28"/>
            <valueQuantity>
               <value value="27.5"/>
               <unit value="kg/m2"/>
               <code value="kg/m2"/>
            </valueQuantity>
         </Observation>
      </resource>
   </entry>
   <entry>
      <fullUrl value="urn:uuid:7ce5fc1a-19d8-4f70-a880-af9e5eb9f939"/>
      <resource>
         <Observation>
            <id value="7ce5fc1a-19d8-4f70-a880-af9e5eb9f939"/>
            <meta>
               <profile value="http://hl7.org/fhir/StructureDefinition/vitalsigns"/>
            </meta>
            <text>
               <status value="generated"/>
               <div xmlns="http://www.w3.org/1999/xhtml">
                  <table class="hl7__ips">
                     <tr>
                        <th>Vital Sign</th>
                        <th>Date</th>
                        <th>Measurement</th>
                     </tr>
                     <tr>
                        <td>Diastolic Blood Pressure</td>
                        <td>28-Apr-2024</td>
                        <td>77 mm[Hg]</td>
                     </tr>
                  </table>
               </div>
            </text>
            <status value="final"/>
            <category>
               <coding>
                  <system value="http://terminology.hl7.org/CodeSystem/observation-category"/>
                  <code value="vital-signs"/>
                  <display value="Vital Signs"/>
               </coding>
            </category>
            <code>
               <coding>
                  <system value="http://loinc.org"/>
                  <code value="$8462-4"/>
                  <display value="Diastolic Blood Pressure"/>
               </coding>
            </code>
            <subject>
               <reference value="urn:uuid:8e3a9482-4c47-4b1c-986d-919bda392619"/>
               <display value="Marlene Gerlach"/>
            </subject>
            <effectiveDateTime value="2024-04-28"/>
            <valueQuantity>
               <value value="77"/>
               <unit value="mm[Hg]"/>
               <code value="mm[Hg]"/>
            </valueQuantity>
         </Observation>
      </resource>
   </entry>
   <entry>
      <fullUrl value="urn:uuid:b8c2a6c4-6b1f-4435-9fc9-440bba3a9c17"/>
      <resource>
         <Observation>
            <id value="b8c2a6c4-6b1f-4435-9fc9-440bba3a9c17"/>
            <meta>
               <profile value="http://hl7.org/fhir/StructureDefinition/vitalsigns"/>
            </meta>
            <text>
               <status value="generated"/>
               <div xmlns="http://www.w3.org/1999/xhtml">
                  <table class="hl7__ips">
                     <tr>
                        <th>Vital Sign</th>
                        <th>Date</th>
                        <th>Measurement</th>
                     </tr>
                     <tr>
                        <td>Systolic Blood Pressure</td>
                        <td>28-Apr-2024</td>
                        <td>108 mm[Hg]</td>
                     </tr>
                  </table>
               </div>
            </text>
            <status value="final"/>
            <category>
               <coding>
                  <system value="http://terminology.hl7.org/CodeSystem/observation-category"/>
                  <code value="vital-signs"/>
                  <display value="Vital Signs"/>
               </coding>
            </category>
            <code>
               <coding>
                  <system value="http://loinc.org"/>
                  <code value="$8480-6"/>
                  <display value="Systolic Blood Pressure"/>
               </coding>
            </code>
            <subject>
               <reference value="urn:uuid:8e3a9482-4c47-4b1c-986d-919bda392619"/>
               <display value="Marlene Gerlach"/>
            </subject>
            <effectiveDateTime value="2024-04-28"/>
            <valueQuantity>
               <value value="108"/>
               <unit value="mm[Hg]"/>
               <code value="mm[Hg]"/>
            </valueQuantity>
         </Observation>
      </resource>
   </entry>
   <entry>
      <fullUrl value="urn:uuid:a5851dc3-c9d7-46b5-bda8-cb803a9430d2"/>
      <resource>
         <Observation>
            <id value="a5851dc3-c9d7-46b5-bda8-cb803a9430d2"/>
            <meta>
               <profile value="http://hl7.org/fhir/StructureDefinition/vitalsigns"/>
            </meta>
            <text>
               <status value="generated"/>
               <div xmlns="http://www.w3.org/1999/xhtml">
                  <table class="hl7__ips">
                     <tr>
                        <th>Vital Sign</th>
                        <th>Date</th>
                        <th>Measurement</th>
                     </tr>
                     <tr>
                        <td>Heart rate</td>
                        <td>28-Apr-2024</td>
                        <td>76 /min</td>
                     </tr>
                  </table>
               </div>
            </text>
            <status value="final"/>
            <category>
               <coding>
                  <system value="http://terminology.hl7.org/CodeSystem/observation-category"/>
                  <code value="vital-signs"/>
                  <display value="Vital Signs"/>
               </coding>
            </category>
            <code>
               <coding>
                  <system value="http://loinc.org"/>
                  <code value="$8867-4"/>
                  <display value="Heart rate"/>
               </coding>
            </code>
            <subject>
               <reference value="urn:uuid:8e3a9482-4c47-4b1c-986d-919bda392619"/>
               <display value="Marlene Gerlach"/>
            </subject>
            <effectiveDateTime value="2024-04-28"/>
            <valueQuantity>
               <value value="76"/>
               <unit value="/min"/>
               <code value="/min"/>
            </valueQuantity>
         </Observation>
      </resource>
   </entry>
   <entry>
      <fullUrl value="urn:uuid:d64280df-ccbd-46ec-ae28-05d4c2cadcfb"/>
      <resource>
         <Observation>
            <id value="d64280df-ccbd-46ec-ae28-05d4c2cadcfb"/>
            <meta>
               <profile value="http://hl7.org/fhir/StructureDefinition/vitalsigns"/>
            </meta>
            <text>
               <status value="generated"/>
               <div xmlns="http://www.w3.org/1999/xhtml">
                  <table class="hl7__ips">
                     <tr>
                        <th>Vital Sign</th>
                        <th>Date</th>
                        <th>Measurement</th>
                     </tr>
                     <tr>
                        <td>Respiratory rate</td>
                        <td>28-Apr-2024</td>
                        <td>13 /min</td>
                     </tr>
                  </table>
               </div>
            </text>
            <status value="final"/>
            <category>
               <coding>
                  <system value="http://terminology.hl7.org/CodeSystem/observation-category"/>
                  <code value="vital-signs"/>
                  <display value="Vital Signs"/>
               </coding>
            </category>
            <code>
               <coding>
                  <system value="http://loinc.org"/>
                  <code value="$9279-1"/>
                  <display value="Respiratory rate"/>
               </coding>
            </code>
            <subject>
               <reference value="urn:uuid:8e3a9482-4c47-4b1c-986d-919bda392619"/>
               <display value="Marlene Gerlach"/>
            </subject>
            <effectiveDateTime value="2024-04-28"/>
            <valueQuantity>
               <value value="13"/>
               <unit value="/min"/>
               <code value="/min"/>
            </valueQuantity>
         </Observation>
      </resource>
   </entry>
   <entry>
      <fullUrl value="urn:uuid:aea06e42-8443-458f-8fb5-3bccac373b4d"/>
      <resource>
         <Observation>
            <id value="aea06e42-8443-458f-8fb5-3bccac373b4d"/>
            <meta>
               <profile value="http://hl7.eu/fhir/laboratory/StructureDefinition/Observation-resultslab-eu-lab"/>
            </meta>
            <text>
               <status value="generated"/>
               <div xmlns="http://www.w3.org/1999/xhtml">
                  <table class="hl7__eu__lab__report">
                     <tr>
                        <th>Test</th>
                        <th>04-May-2025</th>
                        <th>Reference Range</th>
                        <th>Unit</th>
                     </tr>
                     <tr>
                        <td>Hemoglobin A1c/Hemoglobin.total in Blood</td>
                        <td>3.9</td>
                        <td>4 - 6</td>
                        <td>L</td>
                        <td>%</td>
                     </tr>
                  </table>
               </div>
            </text>
            <status value="final"/>
            <category>
               <coding>
                  <system value="http://terminology.hl7.org/CodeSystem/observation-category"/>
                  <code value="laboratory"/>
               </coding>
            </category>
            <code>
               <coding>
                  <system value="http://loinc.org"/>
                  <code value="4548-4"/>
                  <display value="Hemoglobin A1c/Hemoglobin.total in Blood"/>
               </coding>
               <text value="Hemoglobin A1c/Hemoglobin.total in Blood"/>
            </code>
            <subject>
               <reference value="urn:uuid:8e3a9482-4c47-4b1c-986d-919bda392619"/>
               <display value="Marlene Gerlach"/>
            </subject>
            <effectiveDateTime value="2025-05-04T19:24:33Z"/>
            <performer>
               <display value="The Central European Lab"/>
            </performer>
            <valueQuantity>
               <value value="3.9"/>
               <unit value="%"/>
               <system value="http://unitsofmeasure.org"/>
               <code value="%"/>
            </valueQuantity>
            <interpretation>
               <coding>
                  <system value="http://terminology.hl7.org/CodeSystem/v3-ObservationInterpretation"/>
                  <code value="L"/>
                  <display value="Low"/>
               </coding>
            </interpretation>
            <referenceRange>
               <low>
                  <value value="4"/>
                  <system value="http://unitsofmeasure.org"/>
                  <code value="%"/>
               </low>
            </referenceRange>
            <referenceRange>
               <high>
                  <value value="6"/>
                  <system value="http://unitsofmeasure.org"/>
                  <code value="%"/>
               </high>
            </referenceRange>
         </Observation>
      </resource>
   </entry>
   <entry>
      <fullUrl value="urn:uuid:cba6a6a7-9fcc-4f96-aede-76c9d0aea0d9"/>
      <resource>
         <Observation>
            <id value="cba6a6a7-9fcc-4f96-aede-76c9d0aea0d9"/>
            <meta>
               <profile value="http://hl7.eu/fhir/laboratory/StructureDefinition/Observation-resultslab-eu-lab"/>
            </meta>
            <text>
               <status value="generated"/>
               <div xmlns="http://www.w3.org/1999/xhtml">
                  <table class="hl7__eu__lab__report">
                     <tr>
                        <th>Test</th>
                        <th>04-May-2025</th>
                        <th>Reference Range</th>
                        <th>Unit</th>
                     </tr>
                     <tr>
                        <td>Glucose [Mass/volume] in Blood</td>
                        <td>68.9</td>
                        <td>70 - 140</td>
                        <td>L</td>
                        <td>mg/dL</td>
                     </tr>
                  </table>
               </div>
            </text>
            <status value="final"/>
            <category>
               <coding>
                  <system value="http://terminology.hl7.org/CodeSystem/observation-category"/>
                  <code value="laboratory"/>
               </coding>
            </category>
            <code>
               <coding>
                  <system value="http://loinc.org"/>
                  <code value="2339-0"/>
                  <display value="Glucose [Mass/volume] in Blood"/>
               </coding>
               <text value="Glucose [Mass/volume] in Blood"/>
            </code>
            <subject>
               <reference value="urn:uuid:8e3a9482-4c47-4b1c-986d-919bda392619"/>
               <display value="Marlene Gerlach"/>
            </subject>
            <effectiveDateTime value="2025-05-04T19:24:33Z"/>
            <performer>
               <display value="The Central European Lab"/>
            </performer>
            <valueQuantity>
               <value value="68.9"/>
               <unit value="mg/dL"/>
               <system value="http://unitsofmeasure.org"/>
               <code value="mg/dL"/>
            </valueQuantity>
            <interpretation>
               <coding>
                  <system value="http://terminology.hl7.org/CodeSystem/v3-ObservationInterpretation"/>
                  <code value="L"/>
                  <display value="Low"/>
               </coding>
            </interpretation>
            <referenceRange>
               <low>
                  <value value="70"/>
                  <system value="http://unitsofmeasure.org"/>
                  <code value="mg/dL"/>
               </low>
            </referenceRange>
            <referenceRange>
               <high>
                  <value value="140"/>
                  <system value="http://unitsofmeasure.org"/>
                  <code value="mg/dL"/>
               </high>
            </referenceRange>
         </Observation>
      </resource>
   </entry>
   <entry>
      <fullUrl value="urn:uuid:a7e73d03-f130-4e24-a8a8-5dac2d0af50a"/>
      <resource>
         <Observation>
            <id value="a7e73d03-f130-4e24-a8a8-5dac2d0af50a"/>
            <meta>
               <profile value="http://hl7.eu/fhir/laboratory/StructureDefinition/Observation-resultslab-eu-lab"/>
            </meta>
            <text>
               <status value="generated"/>
               <div xmlns="http://www.w3.org/1999/xhtml">
                  <table class="hl7__eu__lab__report">
                     <tr>
                        <th>Test</th>
                        <th>04-May-2025</th>
                        <th>Reference Range</th>
                        <th>Unit</th>
                     </tr>
                     <tr>
                        <td>Urea nitrogen [Mass/volume] in Blood</td>
                        <td>17.9</td>
                        <td>7 - 20</td>
                        <td/>
                        <td>mg/dL</td>
                     </tr>
                  </table>
               </div>
            </text>
            <status value="final"/>
            <category>
               <coding>
                  <system value="http://terminology.hl7.org/CodeSystem/observation-category"/>
                  <code value="laboratory"/>
               </coding>
            </category>
            <code>
               <coding>
                  <system value="http://loinc.org"/>
                  <code value="6299-2"/>
                  <display value="Urea nitrogen [Mass/volume] in Blood"/>
               </coding>
               <text value="Urea nitrogen [Mass/volume] in Blood"/>
            </code>
            <subject>
               <reference value="urn:uuid:8e3a9482-4c47-4b1c-986d-919bda392619"/>
               <display value="Marlene Gerlach"/>
            </subject>
            <effectiveDateTime value="2025-05-04T19:24:33Z"/>
            <performer>
               <display value="The Central European Lab"/>
            </performer>
            <valueQuantity>
               <value value="17.9"/>
               <unit value="mg/dL"/>
               <system value="http://unitsofmeasure.org"/>
               <code value="mg/dL"/>
            </valueQuantity>
            <referenceRange>
               <low>
                  <value value="7"/>
                  <system value="http://unitsofmeasure.org"/>
                  <code value="mg/dL"/>
               </low>
            </referenceRange>
            <referenceRange>
               <high>
                  <value value="20"/>
                  <system value="http://unitsofmeasure.org"/>
                  <code value="mg/dL"/>
               </high>
            </referenceRange>
         </Observation>
      </resource>
   </entry>
   <entry>
      <fullUrl value="urn:uuid:3be48cf8-e70e-4b64-8bbe-b7587b31d99f"/>
      <resource>
         <Observation>
            <id value="3be48cf8-e70e-4b64-8bbe-b7587b31d99f"/>
            <meta>
               <profile value="http://hl7.eu/fhir/laboratory/StructureDefinition/Observation-resultslab-eu-lab"/>
            </meta>
            <text>
               <status value="generated"/>
               <div xmlns="http://www.w3.org/1999/xhtml">
                  <table class="hl7__eu__lab__report">
                     <tr>
                        <th>Test</th>
                        <th>04-May-2025</th>
                        <th>Reference Range</th>
                        <th>Unit</th>
                     </tr>
                     <tr>
                        <td>Creatinine [Mass/volume] in Blood</td>
                        <td>0.4</td>
                        <td>0.5 - 1.3</td>
                        <td>L</td>
                        <td>mg/dL</td>
                     </tr>
                  </table>
               </div>
            </text>
            <status value="final"/>
            <category>
               <coding>
                  <system value="http://terminology.hl7.org/CodeSystem/observation-category"/>
                  <code value="laboratory"/>
               </coding>
            </category>
            <code>
               <coding>
                  <system value="http://loinc.org"/>
                  <code value="38483-4"/>
                  <display value="Creatinine [Mass/volume] in Blood"/>
               </coding>
               <text value="Creatinine [Mass/volume] in Blood"/>
            </code>
            <subject>
               <reference value="urn:uuid:8e3a9482-4c47-4b1c-986d-919bda392619"/>
               <display value="Marlene Gerlach"/>
            </subject>
            <effectiveDateTime value="2025-05-04T19:24:33Z"/>
            <performer>
               <display value="The Central European Lab"/>
            </performer>
            <valueQuantity>
               <value value="0.4"/>
               <unit value="mg/dL"/>
               <system value="http://unitsofmeasure.org"/>
               <code value="mg/dL"/>
            </valueQuantity>
            <interpretation>
               <coding>
                  <system value="http://terminology.hl7.org/CodeSystem/v3-ObservationInterpretation"/>
                  <code value="L"/>
                  <display value="Low"/>
               </coding>
            </interpretation>
            <referenceRange>
               <low>
                  <value value="0.5"/>
                  <system value="http://unitsofmeasure.org"/>
                  <code value="mg/dL"/>
               </low>
            </referenceRange>
            <referenceRange>
               <high>
                  <value value="1.3"/>
                  <system value="http://unitsofmeasure.org"/>
                  <code value="mg/dL"/>
               </high>
            </referenceRange>
         </Observation>
      </resource>
   </entry>
   <entry>
      <fullUrl value="urn:uuid:b78a7b3c-9b0c-4b14-ad8b-b5cb519d90b7"/>
      <resource>
         <Observation>
            <id value="b78a7b3c-9b0c-4b14-ad8b-b5cb519d90b7"/>
            <meta>
               <profile value="http://hl7.eu/fhir/laboratory/StructureDefinition/Observation-resultslab-eu-lab"/>
            </meta>
            <text>
               <status value="generated"/>
               <div xmlns="http://www.w3.org/1999/xhtml">
                  <table class="hl7__eu__lab__report">
                     <tr>
                        <th>Test</th>
                        <th>04-May-2025</th>
                        <th>Reference Range</th>
                        <th>Unit</th>
                     </tr>
                     <tr>
                        <td>Calcium [Mass/volume] in Blood</td>
                        <td>10.2</td>
                        <td>8.5 - 10.5</td>
                        <td/>
                        <td>mg/dL</td>
                     </tr>
                  </table>
               </div>
            </text>
            <status value="final"/>
            <category>
               <coding>
                  <system value="http://terminology.hl7.org/CodeSystem/observation-category"/>
                  <code value="laboratory"/>
               </coding>
            </category>
            <code>
               <coding>
                  <system value="http://loinc.org"/>
                  <code value="49765-1"/>
                  <display value="Calcium [Mass/volume] in Blood"/>
               </coding>
               <text value="Calcium [Mass/volume] in Blood"/>
            </code>
            <subject>
               <reference value="urn:uuid:8e3a9482-4c47-4b1c-986d-919bda392619"/>
               <display value="Marlene Gerlach"/>
            </subject>
            <effectiveDateTime value="2025-05-04T19:24:33Z"/>
            <performer>
               <display value="The Central European Lab"/>
            </performer>
            <valueQuantity>
               <value value="10.2"/>
               <unit value="mg/dL"/>
               <system value="http://unitsofmeasure.org"/>
               <code value="mg/dL"/>
            </valueQuantity>
            <referenceRange>
               <low>
                  <value value="8.5"/>
                  <system value="http://unitsofmeasure.org"/>
                  <code value="mg/dL"/>
               </low>
            </referenceRange>
            <referenceRange>
               <high>
                  <value value="10.5"/>
                  <system value="http://unitsofmeasure.org"/>
                  <code value="mg/dL"/>
               </high>
            </referenceRange>
         </Observation>
      </resource>
   </entry>
   <entry>
      <fullUrl value="urn:uuid:ac2ebe39-0af5-461d-97ff-4cd53ea0ded2"/>
      <resource>
         <Observation>
            <id value="ac2ebe39-0af5-461d-97ff-4cd53ea0ded2"/>
            <meta>
               <profile value="http://hl7.eu/fhir/laboratory/StructureDefinition/Observation-resultslab-eu-lab"/>
            </meta>
            <text>
               <status value="generated"/>
               <div xmlns="http://www.w3.org/1999/xhtml">
                  <table class="hl7__eu__lab__report">
                     <tr>
                        <th>Test</th>
                        <th>04-May-2025</th>
                        <th>Reference Range</th>
                        <th>Unit</th>
                     </tr>
                     <tr>
                        <td>Sodium [Moles/volume] in Blood</td>
                        <td>136.8</td>
                        <td>135 - 145</td>
                        <td/>
                        <td>mmol/L</td>
                     </tr>
                  </table>
               </div>
            </text>
            <status value="final"/>
            <category>
               <coding>
                  <system value="http://terminology.hl7.org/CodeSystem/observation-category"/>
                  <code value="laboratory"/>
               </coding>
            </category>
            <code>
               <coding>
                  <system value="http://loinc.org"/>
                  <code value="2947-0"/>
                  <display value="Sodium [Moles/volume] in Blood"/>
               </coding>
               <text value="Sodium [Moles/volume] in Blood"/>
            </code>
            <subject>
               <reference value="urn:uuid:8e3a9482-4c47-4b1c-986d-919bda392619"/>
               <display value="Marlene Gerlach"/>
            </subject>
            <effectiveDateTime value="2025-05-04T19:24:33Z"/>
            <performer>
               <display value="The Central European Lab"/>
            </performer>
            <valueQuantity>
               <value value="136.8"/>
               <unit value="mmol/L"/>
               <system value="http://unitsofmeasure.org"/>
               <code value="mmol/L"/>
            </valueQuantity>
            <referenceRange>
               <low>
                  <value value="135"/>
                  <system value="http://unitsofmeasure.org"/>
                  <code value="mmol/L"/>
               </low>
            </referenceRange>
            <referenceRange>
               <high>
                  <value value="145"/>
                  <system value="http://unitsofmeasure.org"/>
                  <code value="mmol/L"/>
               </high>
            </referenceRange>
         </Observation>
      </resource>
   </entry>
   <entry>
      <fullUrl value="urn:uuid:8cfe891c-d615-4614-8f13-c16e368675b5"/>
      <resource>
         <Observation>
            <id value="8cfe891c-d615-4614-8f13-c16e368675b5"/>
            <meta>
               <profile value="http://hl7.eu/fhir/laboratory/StructureDefinition/Observation-resultslab-eu-lab"/>
            </meta>
            <text>
               <status value="generated"/>
               <div xmlns="http://www.w3.org/1999/xhtml">
                  <table class="hl7__eu__lab__report">
                     <tr>
                        <th>Test</th>
                        <th>04-May-2025</th>
                        <th>Reference Range</th>
                        <th>Unit</th>
                     </tr>
                     <tr>
                        <td>Potassium [Moles/volume] in Blood</td>
                        <td>4.5</td>
                        <td>3.5 - 5.1</td>
                        <td/>
                        <td>mmol/L</td>
                     </tr>
                  </table>
               </div>
            </text>
            <status value="final"/>
            <category>
               <coding>
                  <system value="http://terminology.hl7.org/CodeSystem/observation-category"/>
                  <code value="laboratory"/>
               </coding>
            </category>
            <code>
               <coding>
                  <system value="http://loinc.org"/>
                  <code value="6298-4"/>
                  <display value="Potassium [Moles/volume] in Blood"/>
               </coding>
               <text value="Potassium [Moles/volume] in Blood"/>
            </code>
            <subject>
               <reference value="urn:uuid:8e3a9482-4c47-4b1c-986d-919bda392619"/>
               <display value="Marlene Gerlach"/>
            </subject>
            <effectiveDateTime value="2025-05-04T19:24:33Z"/>
            <performer>
               <display value="The Central European Lab"/>
            </performer>
            <valueQuantity>
               <value value="4.5"/>
               <unit value="mmol/L"/>
               <system value="http://unitsofmeasure.org"/>
               <code value="mmol/L"/>
            </valueQuantity>
            <referenceRange>
               <low>
                  <value value="3.5"/>
                  <system value="http://unitsofmeasure.org"/>
                  <code value="mmol/L"/>
               </low>
            </referenceRange>
            <referenceRange>
               <high>
                  <value value="5.1"/>
                  <system value="http://unitsofmeasure.org"/>
                  <code value="mmol/L"/>
               </high>
            </referenceRange>
         </Observation>
      </resource>
   </entry>
   <entry>
      <fullUrl value="urn:uuid:01d38a32-19c2-45b5-9aa4-e5e66edb1e79"/>
      <resource>
         <Observation>
            <id value="01d38a32-19c2-45b5-9aa4-e5e66edb1e79"/>
            <meta>
               <profile value="http://hl7.eu/fhir/laboratory/StructureDefinition/Observation-resultslab-eu-lab"/>
            </meta>
            <text>
               <status value="generated"/>
               <div xmlns="http://www.w3.org/1999/xhtml">
                  <table class="hl7__eu__lab__report">
                     <tr>
                        <th>Test</th>
                        <th>04-May-2025</th>
                        <th>Reference Range</th>
                        <th>Unit</th>
                     </tr>
                     <tr>
                        <td>Chloride [Moles/volume] in Blood</td>
                        <td>102.8</td>
                        <td>98 - 108</td>
                        <td/>
                        <td>mmol/L</td>
                     </tr>
                  </table>
               </div>
            </text>
            <status value="final"/>
            <category>
               <coding>
                  <system value="http://terminology.hl7.org/CodeSystem/observation-category"/>
                  <code value="laboratory"/>
               </coding>
            </category>
            <code>
               <coding>
                  <system value="http://loinc.org"/>
                  <code value="2069-3"/>
                  <display value="Chloride [Moles/volume] in Blood"/>
               </coding>
               <text value="Chloride [Moles/volume] in Blood"/>
            </code>
            <subject>
               <reference value="urn:uuid:8e3a9482-4c47-4b1c-986d-919bda392619"/>
               <display value="Marlene Gerlach"/>
            </subject>
            <effectiveDateTime value="2025-05-04T19:24:33Z"/>
            <performer>
               <display value="The Central European Lab"/>
            </performer>
            <valueQuantity>
               <value value="102.8"/>
               <unit value="mmol/L"/>
               <system value="http://unitsofmeasure.org"/>
               <code value="mmol/L"/>
            </valueQuantity>
            <referenceRange>
               <low>
                  <value value="98"/>
                  <system value="http://unitsofmeasure.org"/>
                  <code value="mmol/L"/>
               </low>
            </referenceRange>
            <referenceRange>
               <high>
                  <value value="108"/>
                  <system value="http://unitsofmeasure.org"/>
                  <code value="mmol/L"/>
               </high>
            </referenceRange>
         </Observation>
      </resource>
   </entry>
   <entry>
      <fullUrl value="urn:uuid:b09f2bba-5d8d-4025-be67-075da456240a"/>
      <resource>
         <Observation>
            <id value="b09f2bba-5d8d-4025-be67-075da456240a"/>
            <meta>
               <profile value="http://hl7.eu/fhir/laboratory/StructureDefinition/Observation-resultslab-eu-lab"/>
            </meta>
            <text>
               <status value="generated"/>
               <div xmlns="http://www.w3.org/1999/xhtml">
                  <table class="hl7__eu__lab__report">
                     <tr>
                        <th>Test</th>
                        <th>04-May-2025</th>
                        <th>Reference Range</th>
                        <th>Unit</th>
                     </tr>
                     <tr>
                        <td>Carbon dioxide, total [Moles/volume] in Blood</td>
                        <td>20.0</td>
                        <td>22 - 29</td>
                        <td>L</td>
                        <td>mmol/L</td>
                     </tr>
                  </table>
               </div>
            </text>
            <status value="final"/>
            <category>
               <coding>
                  <system value="http://terminology.hl7.org/CodeSystem/observation-category"/>
                  <code value="laboratory"/>
               </coding>
            </category>
            <code>
               <coding>
                  <system value="http://loinc.org"/>
                  <code value="20565-8"/>
                  <display value="Carbon dioxide, total [Moles/volume] in Blood"/>
               </coding>
               <text value="Carbon dioxide, total [Moles/volume] in Blood"/>
            </code>
            <subject>
               <reference value="urn:uuid:8e3a9482-4c47-4b1c-986d-919bda392619"/>
               <display value="Marlene Gerlach"/>
            </subject>
            <effectiveDateTime value="2025-05-04T19:24:33Z"/>
            <performer>
               <display value="The Central European Lab"/>
            </performer>
            <valueQuantity>
               <value value="20"/>
               <unit value="mmol/L"/>
               <system value="http://unitsofmeasure.org"/>
               <code value="mmol/L"/>
            </valueQuantity>
            <interpretation>
               <coding>
                  <system value="http://terminology.hl7.org/CodeSystem/v3-ObservationInterpretation"/>
                  <code value="L"/>
                  <display value="Low"/>
               </coding>
            </interpretation>
            <referenceRange>
               <low>
                  <value value="22"/>
                  <system value="http://unitsofmeasure.org"/>
                  <code value="mmol/L"/>
               </low>
            </referenceRange>
            <referenceRange>
               <high>
                  <value value="29"/>
                  <system value="http://unitsofmeasure.org"/>
                  <code value="mmol/L"/>
               </high>
            </referenceRange>
         </Observation>
      </resource>
   </entry>
   <entry>
      <fullUrl value="urn:uuid:a8bbaa8f-0456-4a01-a176-6680346ccaec"/>
      <resource>
         <DeviceUseStatement>
            <id value="a8bbaa8f-0456-4a01-a176-6680346ccaec"/>
            <meta>
               <profile value="http://hl7.eu/fhir/eps/StructureDefinition/deviceUseStatement-eu-eps"/>
            </meta>
            <text>
               <status value="generated"/>
               <div xmlns="http://www.w3.org/1999/xhtml">
                  <table class="hl7__ips">
                     <tr>
                        <td>Blood glucose meter (physical object)</td>
                        <td>
                           <span class="nb">16-May-1965</span>
                        </td>
                     </tr>
                  </table>
               </div>
            </text>
            <status value="active"/>
            <subject>
               <reference value="urn:uuid:8e3a9482-4c47-4b1c-986d-919bda392619"/>
               <display value="Marlene Gerlach"/>
            </subject>
            <timingPeriod>
               <start value="1965-05-16"/>
            </timingPeriod>
            <device>
               <reference value="urn:uuid:6573e948-95b2-4b5f-ab4c-df80c9ced1ac"/>
               <display value="Blood glucose meter (physical object)"/>
            </device>
         </DeviceUseStatement>
      </resource>
   </entry>
   <entry>
      <fullUrl value="urn:uuid:6573e948-95b2-4b5f-ab4c-df80c9ced1ac"/>
      <resource>
         <Device>
            <id value="6573e948-95b2-4b5f-ab4c-df80c9ced1ac"/>
            <meta>
               <profile value="http://hl7.eu/fhir/eps/StructureDefinition/device-eu-eps"/>
            </meta>
            <udiCarrier id="(01)31965918068425(11)650425(17)900510(10)38794298304(21)7421"/>
            <status value="active"/>
            <type>
               <coding>
                  <system value="http://snomed.info/sct"/>
                  <code value="337414009"/>
                  <display value="Blood glucose meter (physical object)"/>
               </coding>
            </type>
            <patient>
               <reference value="urn:uuid:8e3a9482-4c47-4b1c-986d-919bda392619"/>
               <display value="Marlene Gerlach"/>
            </patient>
         </Device>
      </resource>
   </entry>
   <entry>
      <fullUrl value="urn:uuid:ad5adced-cfc0-4b2c-9980-4c1d23059d37"/>
      <resource>
         <Device>
            <id value="ad5adced-cfc0-4b2c-9980-4c1d23059d37"/>
            <text>
               <status value="generated"/>
               <div xmlns="http://www.w3.org/1999/xhtml">SYNDERAI Synthetic Generator v5.0</div>
            </text>
            <status value="active&#34;"/>
            <distinctIdentifier value="synderai-generator-50"/>
            <manufacturer value="SYNDERAI Project"/>
            <deviceName>
               <name value="SYNDERAI Synthetic Generator"/>
               <type value="manufacturer-name"/>
            </deviceName>
            <version>
               <value value="5.0"/>
            </version>
         </Device>
      </resource>
   </entry>
   <entry>
      <fullUrl value="urn:uuid:dc88da87-2630-4c15-b753-ad722969f510"/>
      <resource>
         <Provenance>
            <id value="dc88da87-2630-4c15-b753-ad722969f510"/>
            <text>
               <status value="generated"/>
               <div xmlns="http://www.w3.org/1999/xhtml">Provenance for SYNDERAI Synthetic Example Data Resource</div>
            </text>
            <target>
               <reference value="Patient/8e3a9482-4c47-4b1c-986d-919bda392619"/>
            </target>
            <target>
               <reference value="Bundle/af43057d-7a7e-4038-abfe-fe357262cfbd"/>
            </target>
            <target>
               <reference value="Composition/92aa53e0-3795-45a3-a684-d4f58d27c776"/>
            </target>
            <target>
               <reference value="PractitionerRole/046cb880-c625-4ff2-9988-b0c66c8edb60"/>
            </target>
            <target>
               <reference value="Organization/36802fdc-3e9c-4b7a-982f-44dec698bf28"/>
            </target>
            <target>
               <reference value="Practitioner/2564f2a6-2488-428c-9202-dbb4f7b4eb5a"/>
            </target>
            <recorded value="2025-05-04T19:24:33Z"/>
            <policy value="https://synderai.net/synderai-synthetic-data-policy"/>
            <reason>
               <text value="Interoperability Testing and Training (non-clinical use)"/>
            </reason>
            <activity>
               <text value="Synthetic Example Data Generation"/>
            </activity>
            <agent>
               <type>
                  <text value="author"/>
               </type>
               <who>
                  <reference value="Device/ad5adced-cfc0-4b2c-9980-4c1d23059d37"/>
               </who>
            </agent>
         </Provenance>
      </resource>
   </entry>
</Bundle>