{
  "resourceType": "Bundle",
  "id": "5a29a07f-bdae-42d8-86c8-8e12042e3e85",
  "meta": {
    "profile": [
      "http://hl7.eu/fhir/eps/StructureDefinition/bundle-eu-eps"
    ]
  },
  "identifier": {
    "assigner": {
      "display": "HL7 Europe"
    },
    "system": "urn:oid:2.16.840.1.113883.2.51.999",
    "value": "08de38bd-cf6d-4287-ba37-bf64571f7431"
  },
  "entry": [
    {
      "fullUrl": "urn:uuid:6128d4c8-8ac3-46a7-8a03-c716d62995a7",
      "resource": {
        "resourceType": "Composition",
        "id": "6128d4c8-8ac3-46a7-8a03-c716d62995a7",
        "meta": {
          "security": [
            {
              "system": "http://terminology.hl7.org/CodeSystem/v3-ActReason",
              "code": "HTEST"
            },
            {
              "system": "http://terminology.hl7.org/CodeSystem/v3-ActReason",
              "code": "TRAIN"
            }
          ],
          "tag": [
            {
              "system": "https://synderai.net/fhir/CodeSystem/tags",
              "code": "synthetic",
              "display": "SYNDERAI Synthetic data"
            }
          ],
          "profile": [
            "http://hl7.eu/fhir/eps/StructureDefinition/composition-eu-eps"
          ]
        },
        "identifier": {
          "assigner": {
            "display": "HL7 Europe"
          },
          "system": "urn:oid:2.16.840.1.113883.2.51.999",
          "value": "b09575d4-9298-46ce-98aa-43a756894822"
        },
        "type": {
          "coding": [
            {
              "system": "http://loinc.org",
              "code": "60591-5",
              "display": "Patient summary Document"
            }
          ],
          "text": "Patient summary Document"
        },
        "author": [
          {
            "reference": "urn:uuid:f8c5c6cd-d472-48b1-a4a4-7708ccc6cdb6"
          }
        ],
        "section": [
          {
            "text": {
              "status": "generated",
              "div": "<div xmlns=\"http://www.w3.org/1999/xhtml\"><table class=\"hl7__ips\"><tr><th>Condition</th><th>Onset Date</th><th>Status</th></tr><tr><td>Osteoporosis</td><td><span class=\"nb\">29-May-2021</span></td><td>active</td></tr><tr><td>Hyperlipidemia</td><td><span class=\"nb\">06-May-2017</span></td><td>active</td></tr><tr><td>Ischemic heart disease</td><td><span class=\"nb\">06-May-2017</span></td><td>active</td></tr><tr><td>Essential hypertension</td><td><span class=\"nb\">24-Sep-1977</span></td><td>active</td></tr><tr><td>Chronic sinusitis</td><td><span class=\"nb\">12-Jun-1948</span></td><td>active</td></tr></table></div>"
            },
            "entry": [
              {
                "reference": "urn:uuid:4ff2a2d4-7301-4c86-9949-0de8c1f314a4"
              },
              {
                "reference": "urn:uuid:01496b31-1cec-458b-8ae5-be6609b99079"
              },
              {
                "reference": "urn:uuid:4553dcf0-e983-4c26-a2a7-366e092b4414"
              },
              {
                "reference": "urn:uuid:5b05abba-45f5-410a-a6e1-82fe7976707d"
              },
              {
                "reference": "urn:uuid:1547e4aa-d9bc-4a01-9a33-7c1d2e7fb988"
              }
            ],
            "code": {
              "coding": [
                {
                  "system": "http://loinc.org",
                  "code": "11450-4",
                  "display": "Problem list - Reported"
                }
              ]
            },
            "title": "Problem list"
          },
          {
            "text": {
              "status": "generated",
              "div": "<div xmlns=\"http://www.w3.org/1999/xhtml\"><table class=\"hl7__ips\"><tr><th>Medication</th><th>Since</th><th>Form</th><th>Dosage</th><th>Reason</th></tr><tr><td>Amlodipine (as amlodipine besylate) 2.5 mg oral tablet</td><td><span class=\"nb\">2025-07-05</span></td><td>-</td><td>1 tablet (2.5 mg) by mouth once daily</td><td>Essential hypertension (disorder)</td></tr><tr><td>Hydrochlorothiazide 25 mg oral tablet</td><td><span class=\"nb\">2025-07-05</span></td><td>-</td><td>1 tablet (25 mg) by mouth once daily</td><td>Essential hypertension (disorder)</td></tr><tr><td>Lisinopril 10 mg oral tablet</td><td><span class=\"nb\">2025-07-05</span></td><td>-</td><td>1 tablet (10 mg) by mouth once daily</td><td>Essential hypertension (disorder)</td></tr><tr><td>Alendronic acid (as alendronate sodium) 10 mg oral tablet</td><td><span class=\"nb\">2025-07-05</span></td><td>-</td><td>1 tablet (10 mg) once daily</td><td>Osteoporosis (disorder)</td></tr><tr><td>Simvastatin 10 mg oral tablet</td><td><span class=\"nb\">2025-06-16</span></td><td>-</td><td>1 tablet (10 mg) by mouth once daily</td><td>Hyperlipidemia</td></tr><tr><td>Clopidogrel (as clopidogrel bisulfate) 75 mg oral tablet</td><td><span class=\"nb\">2017-05-13</span></td><td>-</td><td>1 tablet (75 mg) once daily</td><td>-</td></tr><tr><td>Simvastatin 20 mg oral tablet</td><td><span class=\"nb\">2017-05-13</span></td><td>-</td><td>1 tablet (20 mg) by mouth once daily</td><td>-</td></tr><tr><td>Nitroglycerin 400 microgram/actuation sublingual spray</td><td><span class=\"nb\">2017-05-13</span></td><td>-</td><td>400 micrograms (1 spray) sublingually as needed for chest pain, may repeat every 5 minutes as needed, up to 3 sprays in 15 minutes</td><td>-</td></tr><tr><td>Metoprolol tartrate (as metoprolol succinate) 100 mg prolonged-release oral tablet</td><td><span class=\"nb\">2017-05-13</span></td><td>-</td><td>1 tablet (100 mg) once daily</td><td>-</td></tr></table></div>"
            },
            "entry": [
              {
                "reference": "urn:uuid:0351003d-f178-43cc-825d-2f39bd4705af"
              },
              {
                "reference": "urn:uuid:0f8658fe-c339-406b-a043-0ea46c137c7b"
              },
              {
                "reference": "urn:uuid:aaece49c-9711-44b8-b8a6-3afcdeb41c07"
              },
              {
                "reference": "urn:uuid:9ba6f6ac-ee3a-44f0-99a0-5d4947ee1aee"
              },
              {
                "reference": "urn:uuid:d944bb77-733f-44be-ae54-a08bce479f2b"
              },
              {
                "reference": "urn:uuid:7cf6ce8a-85f6-4416-9ed2-d2d155e6e184"
              },
              {
                "reference": "urn:uuid:fffe0fb0-eb99-4de7-b473-4bf63dfc6982"
              },
              {
                "reference": "urn:uuid:694e0298-6834-4b02-9b0d-638b68437e5c"
              },
              {
                "reference": "urn:uuid:8a8ef8b2-ccc8-4582-a800-e8d89a068d6d"
              }
            ],
            "code": {
              "coding": [
                {
                  "system": "http://loinc.org",
                  "code": "10160-0",
                  "display": "History of Medication use Narrative"
                }
              ]
            },
            "title": "Medication list"
          },
          {
            "text": {
              "status": "generated",
              "div": "<div xmlns=\"http://www.w3.org/1999/xhtml\"><table class=\"hl7__ips\"><tr><th>Vaccine</th><th>Date</th></tr><tr><td>Influenza virus antigen only vaccine product</td><td><span class=\"nb\">05-Jul-2025</span></td></tr><tr><td>Clostridium tetani toxoid antigen adsorbed only vaccine product</td><td><span class=\"nb\">04-Jun-2022</span></td></tr><tr><td>SARS-CoV-2 mRNA vaccine</td><td><span class=\"nb\">27-Mar-2021</span></td></tr></table></div>"
            },
            "entry": [
              {
                "reference": "urn:uuid:5389e584-2b2e-4754-900f-4a30b96ec43e"
              },
              {
                "reference": "urn:uuid:8a1bb4ed-7593-498a-8ca8-06f11697b7ce"
              },
              {
                "reference": "urn:uuid:4305237a-d175-46b6-badb-4c760f9cea37"
              }
            ],
            "code": {
              "coding": [
                {
                  "system": "http://loinc.org",
                  "code": "11369-6",
                  "display": "History of Immunization note"
                }
              ]
            },
            "title": "Immunizations list"
          },
          {
            "text": {
              "status": "generated",
              "div": "<div xmlns=\"http://www.w3.org/1999/xhtml\"><table class=\"hl7__ips\"><tr><th>Procedure</th><th>Date</th><th>Reason</th></tr><tr><td>Pre-discharge assessment</td><td><span class=\"nb\">19-Jun-2024</span></td><td>-</td></tr><tr><td>Discharge from skilled nursing facility (procedure)</td><td><span class=\"nb\">19-Jun-2024</span></td><td>-</td></tr><tr><td>Physical therapy procedure</td><td><span class=\"nb\">18-Jun-2024</span></td><td>-</td></tr><tr><td>Nursing care/supplementary surveillance</td><td><span class=\"nb\">18-Jun-2024</span></td><td>-</td></tr><tr><td>Professional / ancillary services care</td><td><span class=\"nb\">15-Jun-2024</span></td><td>-</td></tr><tr><td>Speech and language therapy regime</td><td><span class=\"nb\">10-Jun-2024</span></td><td>-</td></tr><tr><td>Occupational therapy</td><td><span class=\"nb\">26-May-2024</span></td><td>-</td></tr><tr><td>Radiography of humerus</td><td><span class=\"nb\">17-May-2024</span></td><td>-</td></tr><tr><td>History AND physical examination</td><td><span class=\"nb\">17-May-2024</span></td><td>-</td></tr><tr><td>Bone immobilization</td><td><span class=\"nb\">17-May-2024</span></td><td>Fracture of forearm</td></tr><tr><td>Initial patient assessment</td><td><span class=\"nb\">17-May-2024</span></td><td>-</td></tr><tr><td>Development of individualized plan of care</td><td><span class=\"nb\">17-May-2024</span></td><td>-</td></tr><tr><td>Suture open wound</td><td><span class=\"nb\">07-May-2022</span></td><td>Facial laceration</td></tr><tr><td>Radiography of wrist</td><td><span class=\"nb\">05-Mar-2020</span></td><td>-</td></tr><tr><td>Bone density scan</td><td><span class=\"nb\">05-Mar-2020</span></td><td>Fracture subluxation of wrist</td></tr><tr><td>Postoperative procedure education</td><td><span class=\"nb\">26-May-2017</span></td><td>History of coronary artery bypass grafting (situation)</td></tr><tr><td>Stair-climbing test</td><td><span class=\"nb\">26-May-2017</span></td><td>History of coronary artery bypass grafting (situation)</td></tr><tr><td>Walking exercise test</td><td><span class=\"nb\">26-May-2017</span></td><td>History of coronary artery bypass grafting (situation)</td></tr><tr><td>Discharge to ward</td><td><span class=\"nb\">26-May-2017</span></td><td>-</td></tr><tr><td>Discharge from hospital</td><td><span class=\"nb\">26-May-2017</span></td><td>History of coronary artery bypass grafting (situation)</td></tr><tr><td>Electrocardiographic procedure</td><td><span class=\"nb\">25-May-2017</span></td><td>-</td></tr><tr><td>Plain X-ray of chest</td><td><span class=\"nb\">25-May-2017</span></td><td>-</td></tr><tr><td>Induced cardioplegia</td><td><span class=\"nb\">22-May-2017</span></td><td>-</td></tr><tr><td>Documentation procedure</td><td><span class=\"nb\">22-May-2017</span></td><td>-</td></tr><tr><td>Coronary artery bypass graft</td><td><span class=\"nb\">22-May-2017</span></td><td>Ischemic heart disease (disorder)</td></tr><tr><td>Vascular cannula removal</td><td><span class=\"nb\">22-May-2017</span></td><td>-</td></tr><tr><td>Removal of endotracheal tube</td><td><span class=\"nb\">22-May-2017</span></td><td>-</td></tr><tr><td>Placement of aortic cross clamp</td><td><span class=\"nb\">22-May-2017</span></td><td>-</td></tr><tr><td>Removal of aortic cross clamp</td><td><span class=\"nb\">22-May-2017</span></td><td>-</td></tr><tr><td>Median sternotomy</td><td><span class=\"nb\">22-May-2017</span></td><td>-</td></tr><tr><td>Echocardiography</td><td><span class=\"nb\">21-May-2017</span></td><td>-</td></tr><tr><td>Cannulation</td><td><span class=\"nb\">21-May-2017</span></td><td>-</td></tr><tr><td>Blood group typing</td><td><span class=\"nb\">21-May-2017</span></td><td>-</td></tr><tr><td>Intubation</td><td><span class=\"nb\">21-May-2017</span></td><td>-</td></tr><tr><td>Cardiopulmonary bypass operation</td><td><span class=\"nb\">21-May-2017</span></td><td>-</td></tr><tr><td>Pulmonary catheterization with Swan-Ganz catheter</td><td><span class=\"nb\">21-May-2017</span></td><td>-</td></tr><tr><td>Pre-surgery testing</td><td><span class=\"nb\">21-May-2017</span></td><td>-</td></tr><tr><td>Preparation of patient for procedure</td><td><span class=\"nb\">21-May-2017</span></td><td>-</td></tr><tr><td>Insertion of catheter into artery</td><td><span class=\"nb\">21-May-2017</span></td><td>-</td></tr><tr><td>Scheduling</td><td><span class=\"nb\">21-May-2017</span></td><td>Abnormal findings diagnostic imaging heart+coronary circulat (finding)</td></tr><tr><td>Administration of anesthesia for procedure</td><td><span class=\"nb\">21-May-2017</span></td><td>-</td></tr><tr><td>Notification of treatment plan</td><td><span class=\"nb\">21-May-2017</span></td><td>-</td></tr></table></div>"
            },
            "entry": [
              {
                "reference": "urn:uuid:143902e4-3869-4d59-a745-f4b1994cd342"
              },
              {
                "reference": "urn:uuid:ad955562-3013-4050-9725-bb882daa0f96"
              },
              {
                "reference": "urn:uuid:a628aa57-2230-4ea6-8846-f0c40fe3e053"
              },
              {
                "reference": "urn:uuid:a027fd82-e449-42e4-94ac-e0f6b945a941"
              },
              {
                "reference": "urn:uuid:2865dc5c-9ce8-42d1-b418-ef4c4031e400"
              },
              {
                "reference": "urn:uuid:d0c6c494-cc89-4c9d-9edc-bd8ebb35b261"
              },
              {
                "reference": "urn:uuid:36c9af10-ab83-400b-bd10-c1d5c1ddace4"
              },
              {
                "reference": "urn:uuid:1149c1d4-380a-480e-8ca2-bab0105ea14c"
              },
              {
                "reference": "urn:uuid:8e0ffe91-96b2-4b04-8d78-adecb2510090"
              },
              {
                "reference": "urn:uuid:bc5cf832-d9ef-4a33-bcbf-73c6a8c16636"
              },
              {
                "reference": "urn:uuid:cb7c0308-7911-4614-a354-f1c9ff45267c"
              },
              {
                "reference": "urn:uuid:d3f52855-b05f-41ce-89ff-8bd6f4bd0775"
              },
              {
                "reference": "urn:uuid:1f53e07f-6af8-4c21-9bd2-9a5c5e229197"
              },
              {
                "reference": "urn:uuid:81966d1f-39f4-4d5a-afae-e7f65903828e"
              },
              {
                "reference": "urn:uuid:5e016fa5-1699-41c5-8240-9bb4b6ccaf75"
              },
              {
                "reference": "urn:uuid:a8342225-76e0-4ef3-9356-01aad8a017f3"
              },
              {
                "reference": "urn:uuid:b74a0d8d-3714-42af-9d9e-325019b784da"
              },
              {
                "reference": "urn:uuid:a9092e5e-cf97-4c77-8a79-37fbc4bb284a"
              },
              {
                "reference": "urn:uuid:6319e4c7-1ece-476d-9703-17987fa761fd"
              },
              {
                "reference": "urn:uuid:807ae495-fc18-453b-9abf-4892682e3c79"
              },
              {
                "reference": "urn:uuid:2638be20-9a77-4f29-b180-87a2cb1f3710"
              },
              {
                "reference": "urn:uuid:c6078403-2e88-44a2-bd08-bb49b8b4eeb3"
              },
              {
                "reference": "urn:uuid:71d5f4ba-40bf-44bc-ad64-5c6df2ed4714"
              },
              {
                "reference": "urn:uuid:3ee5ae41-1999-4c48-9165-c43b546e67e0"
              },
              {
                "reference": "urn:uuid:67649e4b-68c1-4b2c-a8db-c5f1f546ae1b"
              },
              {
                "reference": "urn:uuid:e50ecb8d-505e-455e-ab60-05f196209431"
              },
              {
                "reference": "urn:uuid:3b6e8cdb-7125-4fdb-be05-5579a254a697"
              },
              {
                "reference": "urn:uuid:d1d1bf1e-fa9d-401b-8bd3-f7438d04484f"
              },
              {
                "reference": "urn:uuid:3cae1152-8952-4c2c-8912-4d14066924e3"
              },
              {
                "reference": "urn:uuid:fdb95ef5-453c-4d98-908b-ebd564accbdd"
              },
              {
                "reference": "urn:uuid:48311c31-2493-45ce-89d2-fd38ca3bd381"
              },
              {
                "reference": "urn:uuid:0fd925fd-21ba-432b-b263-2c3beb8f4183"
              },
              {
                "reference": "urn:uuid:c8a87e5d-fc6b-414a-83a2-ae1e470cf477"
              },
              {
                "reference": "urn:uuid:0fec6179-73ae-48af-9ac6-b1e3735a1c13"
              },
              {
                "reference": "urn:uuid:ba53c4a1-af89-42b5-8e5c-92d87dbea3a4"
              },
              {
                "reference": "urn:uuid:e170d623-2a3c-4233-8097-0079f2faefc6"
              },
              {
                "reference": "urn:uuid:184b88db-be21-49d6-bc23-d186630efc38"
              },
              {
                "reference": "urn:uuid:3ba12ef4-9566-4454-b13f-efb83fc42809"
              },
              {
                "reference": "urn:uuid:334ab3fc-3e55-4370-8e97-7cbe0ca5e6e3"
              },
              {
                "reference": "urn:uuid:a56a0ebc-1cef-4c32-83ac-f867e6518024"
              },
              {
                "reference": "urn:uuid:495c9089-ddc9-4058-b05b-80362abb0b28"
              },
              {
                "reference": "urn:uuid:c908312f-48e4-433c-ad19-22868a9c69f1"
              }
            ],
            "code": {
              "coding": [
                {
                  "system": "http://loinc.org",
                  "code": "47519-4",
                  "display": "History of Procedures Document"
                }
              ]
            },
            "title": "Procedure History list"
          },
          {
            "text": {
              "status": "generated",
              "div": "<div xmlns=\"http://www.w3.org/1999/xhtml\"><table class=\"hl7__ips\"><tr><th>Allergy/Intolerance</th><th>Onset Date</th><th>Status</th><th>Type</th><th>Reaction</th></tr><tr><td></td><td>?</td><td>active</td><td>?</td><td></td></tr></table></div>"
            },
            "entry": [
              {
                "reference": "urn:uuid:7e87041c-d3e5-4d36-980c-b4c967ec0a51"
              }
            ],
            "code": {
              "coding": [
                {
                  "system": "http://loinc.org",
                  "code": "48765-2",
                  "display": "Allergies and adverse reactions Document"
                }
              ]
            },
            "title": "Allergies and Intolerances"
          },
          {
            "text": {
              "status": "generated",
              "div": "<div xmlns=\"http://www.w3.org/1999/xhtml\"><table class=\"hl7__ips\"><tr><th>Active Planned Care / Goals</th><th>Start Date</th><th>Reason</th></tr><tr><td>Hyperlipidemia clinical management plan</td><td><span class=\"nb\">27-May-2017</span></td><td>Hyperlipidemia</td></tr><tr><td><ul><li>Achieve and maintain LDL cholesterol below 70 mg/dL to reduce cardiovascular risk.</li><li>Maintain total cholesterol below 200 mg/dL.</li><li>Maintain HDL cholesterol above 50 mg/dL.</li><li>Maintain triglycerides below 150 mg/dL.</li></ul></td><td></td><td></td></tr><tr><td>Lifestyle education regarding hypertension</td><td><span class=\"nb\">24-Sep-1977</span></td><td>Essential hypertension (disorder)</td></tr><tr><td><ul><li>Maintain blood pressure below 130/80 mmHg through lifestyle modifications.</li></ul></td><td></td><td></td></tr><tr><th>Immunization Recommendation</th><th>Due Date</th><th>Reason</th></tr><tr><td>Vaccine product containing only Influenza virus antigen (medicinal product)</td><td><span class=\"nb\">01-Oct-2025</span></td><td>Annual seasonal influenza vaccination</td></tr></table></div>"
            },
            "entry": [
              {
                "reference": "urn:uuid:19456473-bfb0-4c0e-ba6b-60d068242a4c"
              },
              {
                "reference": "urn:uuid:9d7bee35-3fb8-4dc0-b0d1-f7cd843312dc"
              },
              {
                "reference": "urn:uuid:de8bb751-afb2-4cff-a797-bdbc9fe22489"
              }
            ],
            "code": {
              "coding": [
                {
                  "system": "http://loinc.org",
                  "code": "18776-5",
                  "display": "Plan of care note"
                }
              ]
            },
            "title": "Care Plan"
          },
          {
            "text": {
              "status": "generated",
              "div": "<div xmlns=\"http://www.w3.org/1999/xhtml\"><table class=\"hl7__ips\"><tr><th>Vital Signs</th><th>2025-07-05</th><th>2024-06-29</th></tr><tr><td>Body Height</td><td>166 cm</td><td>166 cm</td></tr><tr><td>Pain severity - 0-10 verbal numeric rating [Score] - Reported</td><td>2 {score}</td><td>1 {score}</td></tr><tr><td>Body Weight</td><td>75.5 kg</td><td>75.5 kg</td></tr><tr><td>Body mass index (BMI) [Ratio]</td><td>27.4 kg/m2</td><td>27.4 kg/m2</td></tr><tr><td>Diastolic Blood Pressure</td><td>42 mm[Hg]</td><td>46 mm[Hg]</td></tr><tr><td>Systolic Blood Pressure</td><td>96 mm[Hg]</td><td>87 mm[Hg]</td></tr><tr><td>Heart rate</td><td>72 /min</td><td>68 /min</td></tr><tr><td>Respiratory rate</td><td>12 /min</td><td>14 /min</td></tr></table></div>"
            },
            "entry": [
              {
                "reference": "urn:uuid:4365ef93-d3b9-47f1-b3ce-2995c7e698ac"
              },
              {
                "reference": "urn:uuid:1cfc831b-507b-4b37-96d7-cd91fcfa81ba"
              },
              {
                "reference": "urn:uuid:7ed3bae4-b41c-44d9-80c3-9e850790187d"
              },
              {
                "reference": "urn:uuid:592659ee-aaa7-4596-a34b-62c42318fe6d"
              },
              {
                "reference": "urn:uuid:6c9e5696-b29f-4608-8525-8c48ceaf4ddd"
              },
              {
                "reference": "urn:uuid:c0de08fa-1f3b-48d3-981d-683c5e16dff4"
              },
              {
                "reference": "urn:uuid:17a06101-640d-4a73-bfe1-62deb96831b0"
              },
              {
                "reference": "urn:uuid:302ce142-9888-4654-bbc7-73d51eb3377d"
              },
              {
                "reference": "urn:uuid:10c0f90e-dae9-4357-95a3-bd696e174933"
              },
              {
                "reference": "urn:uuid:a0e61601-5e26-43bc-b7f4-479de47adb11"
              },
              {
                "reference": "urn:uuid:19b77caf-10a1-4cef-bd9d-12e89e529083"
              },
              {
                "reference": "urn:uuid:b15a4a8e-8d01-48ed-8e5d-87ea6b9bf00a"
              },
              {
                "reference": "urn:uuid:d13f6635-7a96-44e3-ba7a-381e30b90bd5"
              },
              {
                "reference": "urn:uuid:7d5a92e2-c26b-45ff-b003-42b386ef23d3"
              },
              {
                "reference": "urn:uuid:d7d2ae95-6559-489b-86c5-8fe16defce97"
              },
              {
                "reference": "urn:uuid:d3ddb42f-1299-4a37-9f34-030d59469f93"
              }
            ],
            "code": {
              "coding": [
                {
                  "system": "http://loinc.org",
                  "code": "8716-3",
                  "display": "Vital signs note"
                }
              ]
            },
            "title": "Vital Signs"
          },
          {
            "text": {
              "status": "generated",
              "div": "<div xmlns=\"http://www.w3.org/1999/xhtml\"><table class=\"hl7__ips\"><table class=\"hl7__ips\"><thead><tr><th>Recent Lab Observations</th><th>05-JUL-2025</th><th>Reference&#xA0;Range</th><th>Unit</th></tr></thead><tbody><tr><td>Leukocytes [#/volume] in Blood by Automated count</td><td>9.2</td><td>4 - 11</td><td>10*3/uL</td></tr><tr><td>Erythrocytes [#/volume] in Blood by Automated count</td><td>4.8</td><td>3.8 - 5.7</td><td>10*6/uL</td></tr><tr><td>Hemoglobin [Mass/volume] in Blood</td><td><strong>17.1 H</strong></td><td>12 - 16</td><td>g/dL</td></tr><tr><td>Hematocrit [Volume Fraction] of Blood by Automated count</td><td>43.3</td><td>38 - 56</td><td>%</td></tr><tr><td>MCV [Entitic volume] by Automated count</td><td>81.7</td><td>78 - 98</td><td>fL</td></tr><tr><td>MCH [Entitic mass] by Automated count</td><td>29.8</td><td>27 - 34</td><td>pg</td></tr><tr><td>MCHC [Mass/volume] by Automated count</td><td><strong>35.8 H</strong></td><td>32 - 35</td><td>g/dL</td></tr><tr><td>Erythrocyte distribution width [Entitic volume] by Automated count</td><td>44.1</td><td>36 - 55</td><td>fL</td></tr><tr><td>Platelets [#/volume] in Blood by Automated count</td><td>211.7</td><td>157 - 415</td><td>10*3/uL</td></tr><tr><td>Platelet distribution width [Entitic volume] in Blood by Automated count</td><td><strong>491.4 H</strong></td><td>13.4 - 17.4</td><td>fL</td></tr><tr><td>Platelet mean volume [Entitic volume] in Blood by Automated count</td><td>9.8</td><td>7.4 - 12</td><td>fL</td></tr></tbody></table></table></div>"
            },
            "entry": [
              {
                "reference": "urn:uuid:44803de0-85d8-4941-90e8-9ab134626b8f"
              },
              {
                "reference": "urn:uuid:437924f6-d339-4b6a-a205-d7506dfaf8aa"
              },
              {
                "reference": "urn:uuid:42f20cfe-1d23-4dfd-9fee-4336375ff86d"
              },
              {
                "reference": "urn:uuid:e70d8b6c-4092-45de-a254-0042a4964c42"
              },
              {
                "reference": "urn:uuid:0942d11c-e287-4b09-900b-b19ab62cc5ad"
              },
              {
                "reference": "urn:uuid:5b6c998d-dba1-4ce6-a184-c1f8bfe99ada"
              },
              {
                "reference": "urn:uuid:369e49e0-9241-4e54-b471-69c02bb422bd"
              },
              {
                "reference": "urn:uuid:605da193-f6a6-4b19-8a26-80edba235d56"
              },
              {
                "reference": "urn:uuid:7a1b6448-b4d3-4347-bd14-cd72fd5e0543"
              },
              {
                "reference": "urn:uuid:325feea1-40ef-4a9b-84cc-d650198fb20a"
              },
              {
                "reference": "urn:uuid:9cebd235-fbed-4622-87d7-9d42b1e12fc0"
              }
            ],
            "code": {
              "coding": [
                {
                  "system": "http://loinc.org",
                  "code": "30954-2",
                  "display": "Relevant diagnostic tests/laboratory data note"
                }
              ]
            },
            "title": "Relevant diagnostic tests/laboratory data"
          },
          {
            "text": {
              "status": "generated",
              "div": "<div xmlns=\"http://www.w3.org/1999/xhtml\"><table class=\"hl7__ips\"><tr><th>Device</th><th>Date (since)</th></tr><tr><td>Home nebulizer (physical object)</td><td><span class=\"nb\">12-Jun-1948</span></td></tr></table></div>"
            },
            "entry": [
              {
                "reference": "urn:uuid:d2738d39-6556-49cb-afc1-c3d6ed6b5801"
              }
            ],
            "code": {
              "coding": [
                {
                  "system": "http://loinc.org",
                  "code": "46264-8",
                  "display": "History of medical device use"
                }
              ]
            },
            "title": "Device Use"
          }
        ],
        "title": "European Patient Summary",
        "status": "final",
        "subject": {
          "reference": "urn:uuid:b4ca464b-a38d-406a-a1fc-1266c1f70e3f",
          "display": "Aniela Prażmo"
        },
        "custodian": {
          "reference": "urn:uuid:1e45132c-baf8-4b2e-9f63-61b1d29c7342"
        },
        "date": "2025-07-05",
        "confidentiality": "N"
      }
    },
    {
      "fullUrl": "urn:uuid:b4ca464b-a38d-406a-a1fc-1266c1f70e3f",
      "resource": {
        "resourceType": "Patient",
        "id": "b4ca464b-a38d-406a-a1fc-1266c1f70e3f",
        "meta": {
          "security": [
            {
              "system": "http://terminology.hl7.org/CodeSystem/v3-ActReason",
              "code": "HTEST"
            },
            {
              "system": "http://terminology.hl7.org/CodeSystem/v3-ActReason",
              "code": "TRAIN"
            }
          ],
          "tag": [
            {
              "system": "https://synderai.net/fhir/CodeSystem/tags",
              "code": "synthetic",
              "display": "SYNDERAI Synthetic data"
            }
          ],
          "profile": [
            "http://hl7.eu/fhir/eps/StructureDefinition/patient-eu-eps"
          ]
        },
        "identifier": [
          {
            "type": {
              "coding": [
                {
                  "code": "PT",
                  "system": "http://terminology.hl7.org/CodeSystem/v2-0203"
                }
              ]
            },
            "system": "http://ec.europa.eu/identifier/eci",
            "value": "9657-869171-7"
          },
          {
            "type": {
              "coding": [
                {
                  "code": "MR",
                  "system": "http://terminology.hl7.org/CodeSystem/v2-0203"
                }
              ]
            },
            "system": "http://local.setting.eu/identifier",
            "value": "ab00158c-e2d0-01e4-6cf5-730949937551"
          }
        ],
        "name": [
          {
            "family": "Prażmo"
          },
          {
            "given": [
              "Aniela"
            ]
          },
          {
            "text": "Aniela Prażmo"
          }
        ],
        "address": [
          {
            "line": [
              "pl. Kołłątaja 62/43"
            ],
            "use": "home",
            "type": "physical",
            "postalCode": "97-200",
            "city": "Tomaszów Mazowiecki",
            "country": "Poland"
          }
        ],
        "telecom": [
          {
            "system": "phone",
            "value": "+48 782 809 233"
          }
        ],
        "extension": [
          {
            "url": "http://hl7.org/fhir/StructureDefinition/patient-nationality",
            "valueCodeableConcept": {
              "coding": [
                {
                  "code": "PL",
                  "system": "http://hl7.org/fhir/ValueSet/country"
                }
              ]
            }
          }
        ],
        "text": {
          "status": "generated",
          "div": "<div xmlns=\"http://www.w3.org/1999/xhtml\"><table class=\"hl7__ips\"><tr><td>Aniela Prażmo</td><td>female</td><td>08-Feb-1941</td></tr></table></div>"
        },
        "gender": "female",
        "birthDate": "1941-02-08"
      }
    },
    {
      "fullUrl": "urn:uuid:f8c5c6cd-d472-48b1-a4a4-7708ccc6cdb6",
      "resource": {
        "resourceType": "PractitionerRole",
        "id": "f8c5c6cd-d472-48b1-a4a4-7708ccc6cdb6",
        "meta": {
          "profile": [
            "http://hl7.eu/fhir/base/StructureDefinition/practitionerRole-eu"
          ]
        },
        "text": {
          "status": "generated",
          "div": "<div xmlns=\"http://www.w3.org/1999/xhtml\"><table class=\"hl7__ips\">Provider Role Id f8c5c6cd-d472-48b1-a4a4-7708ccc6cdb6</table></div>"
        },
        "practitioner": {
          "reference": "urn:uuid:1622d0b7-1d7a-443e-a9b8-14c61d415a7b"
        },
        "organization": {
          "reference": "urn:uuid:1e45132c-baf8-4b2e-9f63-61b1d29c7342"
        }
      }
    },
    {
      "fullUrl": "urn:uuid:1622d0b7-1d7a-443e-a9b8-14c61d415a7b",
      "resource": {
        "resourceType": "Practitioner",
        "id": "1622d0b7-1d7a-443e-a9b8-14c61d415a7b",
        "meta": {
          "profile": [
            "http://hl7.eu/fhir/base/StructureDefinition/practitioner-eu"
          ]
        },
        "name": [
          {
            "prefix": [
              "Dr."
            ],
            "given": [
              "Hel"
            ],
            "family": "Ping"
          }
        ],
        "text": {
          "status": "generated",
          "div": "<div xmlns=\"http://www.w3.org/1999/xhtml\"><table class=\"hl7__ips\">Dr. Hel Ping</table></div>"
        }
      }
    },
    {
      "fullUrl": "urn:uuid:1e45132c-baf8-4b2e-9f63-61b1d29c7342",
      "resource": {
        "resourceType": "Organization",
        "id": "1e45132c-baf8-4b2e-9f63-61b1d29c7342",
        "meta": {
          "profile": [
            "http://hl7.eu/fhir/base/StructureDefinition/organization-eu"
          ]
        },
        "identifier": [
          {
            "assigner": {
              "display": "HL7 Europe"
            },
            "system": "urn:oid:2.16.840.1.113883.2.51.999",
            "value": "7d9b1968-48d4-4c2f-8127-140bddfd0c4c"
          }
        ],
        "address": [
          {
            "city": "Tomaszów Mazowiecki",
            "postalCode": "97-200",
            "country": "Poland"
          }
        ],
        "text": {
          "status": "generated",
          "div": "<div xmlns=\"http://www.w3.org/1999/xhtml\"><table class=\"hl7__ips\">Poradnia rehabilitacyjna</table></div>"
        },
        "name": "Poradnia rehabilitacyjna"
      }
    },
    {
      "fullUrl": "urn:uuid:4ff2a2d4-7301-4c86-9949-0de8c1f314a4",
      "resource": {
        "resourceType": "Condition",
        "id": "4ff2a2d4-7301-4c86-9949-0de8c1f314a4",
        "meta": {
          "profile": [
            "http://hl7.org/fhir/uv/ips/StructureDefinition/Condition-uv-ips"
          ]
        },
        "category": [
          {
            "coding": [
              {
                "code": "problem-list-item",
                "system": "http://terminology.hl7.org/CodeSystem/condition-category",
                "display": "Problem List Item"
              }
            ]
          }
        ],
        "code": {
          "coding": [
            {
              "code": "64859006",
              "system": "http://snomed.info/sct",
              "display": "Osteoporosis (disorder)"
            }
          ],
          "text": "Osteoporosis"
        },
        "text": {
          "status": "generated",
          "div": "<div xmlns=\"http://www.w3.org/1999/xhtml\"><table class=\"hl7__ips\"><tr><td>Osteoporosis</td><td><span class=\"nb\">29-May-2021</span></td><td>active</td></tr></table></div>"
        },
        "onsetDateTime": "2021-05-29",
        "subject": {
          "reference": "urn:uuid:",
          "display": "Aniela Prażmo"
        },
        "asserter": {
          "reference": "urn:uuid:",
          "display": "Poradnia rehabilitacyjna"
        }
      }
    },
    {
      "fullUrl": "urn:uuid:01496b31-1cec-458b-8ae5-be6609b99079",
      "resource": {
        "resourceType": "Condition",
        "id": "01496b31-1cec-458b-8ae5-be6609b99079",
        "meta": {
          "profile": [
            "http://hl7.org/fhir/uv/ips/StructureDefinition/Condition-uv-ips"
          ]
        },
        "category": [
          {
            "coding": [
              {
                "code": "problem-list-item",
                "system": "http://terminology.hl7.org/CodeSystem/condition-category",
                "display": "Problem List Item"
              }
            ]
          }
        ],
        "code": {
          "coding": [
            {
              "code": "55822004",
              "system": "http://snomed.info/sct",
              "display": "Hyperlipidemia (disorder)"
            }
          ],
          "text": "Hyperlipidemia"
        },
        "text": {
          "status": "generated",
          "div": "<div xmlns=\"http://www.w3.org/1999/xhtml\"><table class=\"hl7__ips\"><tr><td>Hyperlipidemia</td><td><span class=\"nb\">06-May-2017</span></td><td>active</td></tr></table></div>"
        },
        "onsetDateTime": "2017-05-06",
        "subject": {
          "reference": "urn:uuid:",
          "display": "Aniela Prażmo"
        },
        "asserter": {
          "reference": "urn:uuid:",
          "display": "Poradnia rehabilitacyjna"
        }
      }
    },
    {
      "fullUrl": "urn:uuid:4553dcf0-e983-4c26-a2a7-366e092b4414",
      "resource": {
        "resourceType": "Condition",
        "id": "4553dcf0-e983-4c26-a2a7-366e092b4414",
        "meta": {
          "profile": [
            "http://hl7.org/fhir/uv/ips/StructureDefinition/Condition-uv-ips"
          ]
        },
        "category": [
          {
            "coding": [
              {
                "code": "problem-list-item",
                "system": "http://terminology.hl7.org/CodeSystem/condition-category",
                "display": "Problem List Item"
              }
            ]
          }
        ],
        "code": {
          "coding": [
            {
              "code": "414545008",
              "system": "http://snomed.info/sct",
              "display": "Ischemic heart disease (disorder)"
            }
          ],
          "text": "Ischemic heart disease"
        },
        "text": {
          "status": "generated",
          "div": "<div xmlns=\"http://www.w3.org/1999/xhtml\"><table class=\"hl7__ips\"><tr><td>Ischemic heart disease</td><td><span class=\"nb\">06-May-2017</span></td><td>active</td></tr></table></div>"
        },
        "onsetDateTime": "2017-05-06",
        "subject": {
          "reference": "urn:uuid:",
          "display": "Aniela Prażmo"
        },
        "asserter": {
          "reference": "urn:uuid:",
          "display": "Poradnia rehabilitacyjna"
        }
      }
    },
    {
      "fullUrl": "urn:uuid:5b05abba-45f5-410a-a6e1-82fe7976707d",
      "resource": {
        "resourceType": "Condition",
        "id": "5b05abba-45f5-410a-a6e1-82fe7976707d",
        "meta": {
          "profile": [
            "http://hl7.org/fhir/uv/ips/StructureDefinition/Condition-uv-ips"
          ]
        },
        "category": [
          {
            "coding": [
              {
                "code": "problem-list-item",
                "system": "http://terminology.hl7.org/CodeSystem/condition-category",
                "display": "Problem List Item"
              }
            ]
          }
        ],
        "code": {
          "coding": [
            {
              "code": "59621000",
              "system": "http://snomed.info/sct",
              "display": "Essential hypertension (disorder)"
            }
          ],
          "text": "Essential hypertension"
        },
        "text": {
          "status": "generated",
          "div": "<div xmlns=\"http://www.w3.org/1999/xhtml\"><table class=\"hl7__ips\"><tr><td>Essential hypertension</td><td><span class=\"nb\">24-Sep-1977</span></td><td>active</td></tr></table></div>"
        },
        "onsetDateTime": "1977-09-24",
        "subject": {
          "reference": "urn:uuid:",
          "display": "Aniela Prażmo"
        },
        "asserter": {
          "reference": "urn:uuid:",
          "display": "Poradnia rehabilitacyjna"
        }
      }
    },
    {
      "fullUrl": "urn:uuid:1547e4aa-d9bc-4a01-9a33-7c1d2e7fb988",
      "resource": {
        "resourceType": "Condition",
        "id": "1547e4aa-d9bc-4a01-9a33-7c1d2e7fb988",
        "meta": {
          "profile": [
            "http://hl7.org/fhir/uv/ips/StructureDefinition/Condition-uv-ips"
          ]
        },
        "category": [
          {
            "coding": [
              {
                "code": "problem-list-item",
                "system": "http://terminology.hl7.org/CodeSystem/condition-category",
                "display": "Problem List Item"
              }
            ]
          }
        ],
        "code": {
          "coding": [
            {
              "code": "40055000",
              "system": "http://snomed.info/sct",
              "display": "Chronic sinusitis (disorder)"
            }
          ],
          "text": "Chronic sinusitis"
        },
        "text": {
          "status": "generated",
          "div": "<div xmlns=\"http://www.w3.org/1999/xhtml\"><table class=\"hl7__ips\"><tr><td>Chronic sinusitis</td><td><span class=\"nb\">12-Jun-1948</span></td><td>active</td></tr></table></div>"
        },
        "onsetDateTime": "1948-06-12",
        "subject": {
          "reference": "urn:uuid:",
          "display": "Aniela Prażmo"
        },
        "asserter": {
          "reference": "urn:uuid:",
          "display": "Poradnia rehabilitacyjna"
        }
      }
    },
    {
      "fullUrl": "urn:uuid:47aa5fe5-dc9f-4c12-b4eb-35b71dfefbcb",
      "resource": {
        "resourceType": "Condition",
        "id": "47aa5fe5-dc9f-4c12-b4eb-35b71dfefbcb",
        "meta": {
          "profile": [
            "http://hl7.org/fhir/uv/ips/StructureDefinition/Condition-uv-ips"
          ]
        },
        "category": [
          {
            "coding": [
              {
                "code": "problem-list-item",
                "system": "http://terminology.hl7.org/CodeSystem/condition-category",
                "display": "Problem List Item"
              }
            ]
          }
        ],
        "code": {
          "coding": [
            {
              "code": "65966004",
              "system": "http://snomed.info/sct",
              "display": "Fracture of forearm (disorder)"
            }
          ],
          "text": "Fracture of forearm"
        },
        "text": {
          "status": "generated",
          "div": "<div xmlns=\"http://www.w3.org/1999/xhtml\"><table class=\"hl7__ips\"><tr><td><span class=\"grayedout\">Fracture of forearm</span></td><td><span class=\"nb\">17-May-2024 - 30-Jul-2024</span></td><td><span class=\"grayedout\">inactive</span></td></tr></table></div>"
        },
        "onsetDateTime": "2024-05-17",
        "abatementDateTime": "2024-07-30",
        "subject": {
          "reference": "urn:uuid:",
          "display": "Aniela Prażmo"
        },
        "asserter": {
          "reference": "urn:uuid:",
          "display": "Poradnia rehabilitacyjna"
        }
      }
    },
    {
      "fullUrl": "urn:uuid:75ad8307-6d7a-4796-835a-3bdc79c4a5d3",
      "resource": {
        "resourceType": "Condition",
        "id": "75ad8307-6d7a-4796-835a-3bdc79c4a5d3",
        "meta": {
          "profile": [
            "http://hl7.org/fhir/uv/ips/StructureDefinition/Condition-uv-ips"
          ]
        },
        "category": [
          {
            "coding": [
              {
                "code": "problem-list-item",
                "system": "http://terminology.hl7.org/CodeSystem/condition-category",
                "display": "Problem List Item"
              }
            ]
          }
        ],
        "code": {
          "coding": [
            {
              "code": "125605004",
              "system": "http://snomed.info/sct",
              "display": "Fracture of bone (disorder)"
            }
          ],
          "text": "Fracture of bone"
        },
        "text": {
          "status": "generated",
          "div": "<div xmlns=\"http://www.w3.org/1999/xhtml\"><table class=\"hl7__ips\"><tr><td><span class=\"grayedout\">Fracture of bone</span></td><td><span class=\"nb\">17-May-2024 - 30-Jul-2024</span></td><td><span class=\"grayedout\">inactive</span></td></tr></table></div>"
        },
        "onsetDateTime": "2024-05-17",
        "abatementDateTime": "2024-07-30",
        "subject": {
          "reference": "urn:uuid:",
          "display": "Aniela Prażmo"
        },
        "asserter": {
          "reference": "urn:uuid:",
          "display": "Poradnia rehabilitacyjna"
        }
      }
    },
    {
      "fullUrl": "urn:uuid:1f70547a-44b5-4db6-99b7-b3b8d985c68f",
      "resource": {
        "resourceType": "Condition",
        "id": "1f70547a-44b5-4db6-99b7-b3b8d985c68f",
        "meta": {
          "profile": [
            "http://hl7.org/fhir/uv/ips/StructureDefinition/Condition-uv-ips"
          ]
        },
        "category": [
          {
            "coding": [
              {
                "code": "problem-list-item",
                "system": "http://terminology.hl7.org/CodeSystem/condition-category",
                "display": "Problem List Item"
              }
            ]
          }
        ],
        "code": {
          "coding": [
            {
              "code": "443165006",
              "system": "http://snomed.info/sct",
              "display": "Osteoporotic fracture of bone (disorder)"
            }
          ],
          "text": "Osteoporotic fracture"
        },
        "text": {
          "status": "generated",
          "div": "<div xmlns=\"http://www.w3.org/1999/xhtml\"><table class=\"hl7__ips\"><tr><td><span class=\"grayedout\">Osteoporotic fracture</span></td><td><span class=\"nb\">17-May-2024 - 30-Jul-2024</span></td><td><span class=\"grayedout\">inactive</span></td></tr></table></div>"
        },
        "onsetDateTime": "2024-05-17",
        "abatementDateTime": "2024-07-30",
        "subject": {
          "reference": "urn:uuid:",
          "display": "Aniela Prażmo"
        },
        "asserter": {
          "reference": "urn:uuid:",
          "display": "Poradnia rehabilitacyjna"
        }
      }
    },
    {
      "fullUrl": "urn:uuid:20b87878-8972-4253-be21-eb4492f01eea",
      "resource": {
        "resourceType": "Condition",
        "id": "20b87878-8972-4253-be21-eb4492f01eea",
        "meta": {
          "profile": [
            "http://hl7.org/fhir/uv/ips/StructureDefinition/Condition-uv-ips"
          ]
        },
        "category": [
          {
            "coding": [
              {
                "code": "problem-list-item",
                "system": "http://terminology.hl7.org/CodeSystem/condition-category",
                "display": "Problem List Item"
              }
            ]
          }
        ],
        "code": {
          "coding": [
            {
              "code": "312608009",
              "system": "http://snomed.info/sct",
              "display": "Laceration - injury (disorder)"
            }
          ],
          "text": "Laceration - injury"
        },
        "text": {
          "status": "generated",
          "div": "<div xmlns=\"http://www.w3.org/1999/xhtml\"><table class=\"hl7__ips\"><tr><td><span class=\"grayedout\">Laceration - injury</span></td><td><span class=\"nb\">07-May-2022 - 26-May-2022</span></td><td><span class=\"grayedout\">inactive</span></td></tr></table></div>"
        },
        "onsetDateTime": "2022-05-07",
        "abatementDateTime": "2022-05-26",
        "subject": {
          "reference": "urn:uuid:",
          "display": "Aniela Prażmo"
        },
        "asserter": {
          "reference": "urn:uuid:",
          "display": "Poradnia rehabilitacyjna"
        }
      }
    },
    {
      "fullUrl": "urn:uuid:b36a1432-be4e-434e-896b-7aa455243709",
      "resource": {
        "resourceType": "Condition",
        "id": "b36a1432-be4e-434e-896b-7aa455243709",
        "meta": {
          "profile": [
            "http://hl7.org/fhir/uv/ips/StructureDefinition/Condition-uv-ips"
          ]
        },
        "category": [
          {
            "coding": [
              {
                "code": "problem-list-item",
                "system": "http://terminology.hl7.org/CodeSystem/condition-category",
                "display": "Problem List Item"
              }
            ]
          }
        ],
        "code": {
          "coding": [
            {
              "code": "370247008",
              "system": "http://snomed.info/sct",
              "display": "Facial laceration (disorder)"
            }
          ],
          "text": "Facial laceration"
        },
        "text": {
          "status": "generated",
          "div": "<div xmlns=\"http://www.w3.org/1999/xhtml\"><table class=\"hl7__ips\"><tr><td><span class=\"grayedout\">Facial laceration</span></td><td><span class=\"nb\">07-May-2022 - 26-May-2022</span></td><td><span class=\"grayedout\">inactive</span></td></tr></table></div>"
        },
        "onsetDateTime": "2022-05-07",
        "abatementDateTime": "2022-05-26",
        "subject": {
          "reference": "urn:uuid:",
          "display": "Aniela Prażmo"
        },
        "asserter": {
          "reference": "urn:uuid:",
          "display": "Poradnia rehabilitacyjna"
        }
      }
    },
    {
      "fullUrl": "urn:uuid:b20002cf-d623-4ca1-a56a-8bfa87f4ae14",
      "resource": {
        "resourceType": "Condition",
        "id": "b20002cf-d623-4ca1-a56a-8bfa87f4ae14",
        "meta": {
          "profile": [
            "http://hl7.org/fhir/uv/ips/StructureDefinition/Condition-uv-ips"
          ]
        },
        "category": [
          {
            "coding": [
              {
                "code": "problem-list-item",
                "system": "http://terminology.hl7.org/CodeSystem/condition-category",
                "display": "Problem List Item"
              }
            ]
          }
        ],
        "code": {
          "coding": [
            {
              "code": "125605004",
              "system": "http://snomed.info/sct",
              "display": "Fracture of bone (disorder)"
            }
          ],
          "text": "Fracture of bone"
        },
        "text": {
          "status": "generated",
          "div": "<div xmlns=\"http://www.w3.org/1999/xhtml\"><table class=\"hl7__ips\"><tr><td><span class=\"grayedout\">Fracture of bone</span></td><td><span class=\"nb\">05-Mar-2020 - 13-Jun-2020</span></td><td><span class=\"grayedout\">inactive</span></td></tr></table></div>"
        },
        "onsetDateTime": "2020-03-05",
        "abatementDateTime": "2020-06-13",
        "subject": {
          "reference": "urn:uuid:",
          "display": "Aniela Prażmo"
        },
        "asserter": {
          "reference": "urn:uuid:",
          "display": "Poradnia rehabilitacyjna"
        }
      }
    },
    {
      "fullUrl": "urn:uuid:314f95a6-fa5e-4177-ad93-819cac39b099",
      "resource": {
        "resourceType": "Condition",
        "id": "314f95a6-fa5e-4177-ad93-819cac39b099",
        "meta": {
          "profile": [
            "http://hl7.org/fhir/uv/ips/StructureDefinition/Condition-uv-ips"
          ]
        },
        "category": [
          {
            "coding": [
              {
                "code": "problem-list-item",
                "system": "http://terminology.hl7.org/CodeSystem/condition-category",
                "display": "Problem List Item"
              }
            ]
          }
        ],
        "code": {
          "coding": [
            {
              "code": "263102004",
              "system": "http://snomed.info/sct",
              "display": "Fracture subluxation of wrist (disorder)"
            }
          ],
          "text": "Fracture subluxation of wrist"
        },
        "text": {
          "status": "generated",
          "div": "<div xmlns=\"http://www.w3.org/1999/xhtml\"><table class=\"hl7__ips\"><tr><td><span class=\"grayedout\">Fracture subluxation of wrist</span></td><td><span class=\"nb\">05-Mar-2020 - 13-Jun-2020</span></td><td><span class=\"grayedout\">inactive</span></td></tr></table></div>"
        },
        "onsetDateTime": "2020-03-05",
        "abatementDateTime": "2020-06-13",
        "subject": {
          "reference": "urn:uuid:",
          "display": "Aniela Prażmo"
        },
        "asserter": {
          "reference": "urn:uuid:",
          "display": "Poradnia rehabilitacyjna"
        }
      }
    },
    {
      "fullUrl": "urn:uuid:3e795086-51b9-4847-afb6-9ceecfa830ae",
      "resource": {
        "resourceType": "Condition",
        "id": "3e795086-51b9-4847-afb6-9ceecfa830ae",
        "meta": {
          "profile": [
            "http://hl7.org/fhir/uv/ips/StructureDefinition/Condition-uv-ips"
          ]
        },
        "category": [
          {
            "coding": [
              {
                "code": "problem-list-item",
                "system": "http://terminology.hl7.org/CodeSystem/condition-category",
                "display": "Problem List Item"
              }
            ]
          }
        ],
        "code": {
          "coding": [
            {
              "code": "312608009",
              "system": "http://snomed.info/sct",
              "display": "Laceration - injury (disorder)"
            }
          ],
          "text": "Laceration - injury"
        },
        "text": {
          "status": "generated",
          "div": "<div xmlns=\"http://www.w3.org/1999/xhtml\"><table class=\"hl7__ips\"><tr><td><span class=\"grayedout\">Laceration - injury</span></td><td><span class=\"nb\">14-Feb-2016 - 01-Mar-2016</span></td><td><span class=\"grayedout\">inactive</span></td></tr></table></div>"
        },
        "onsetDateTime": "2016-02-14",
        "abatementDateTime": "2016-03-01",
        "subject": {
          "reference": "urn:uuid:",
          "display": "Aniela Prażmo"
        },
        "asserter": {
          "reference": "urn:uuid:",
          "display": "Poradnia rehabilitacyjna"
        }
      }
    },
    {
      "fullUrl": "urn:uuid:bc43920f-e01d-415b-835a-5aaffd404473",
      "resource": {
        "resourceType": "Condition",
        "id": "bc43920f-e01d-415b-835a-5aaffd404473",
        "meta": {
          "profile": [
            "http://hl7.org/fhir/uv/ips/StructureDefinition/Condition-uv-ips"
          ]
        },
        "category": [
          {
            "coding": [
              {
                "code": "problem-list-item",
                "system": "http://terminology.hl7.org/CodeSystem/condition-category",
                "display": "Problem List Item"
              }
            ]
          }
        ],
        "code": {
          "coding": [
            {
              "code": "370247008",
              "system": "http://snomed.info/sct",
              "display": "Facial laceration (disorder)"
            }
          ],
          "text": "Facial laceration"
        },
        "text": {
          "status": "generated",
          "div": "<div xmlns=\"http://www.w3.org/1999/xhtml\"><table class=\"hl7__ips\"><tr><td><span class=\"grayedout\">Facial laceration</span></td><td><span class=\"nb\">14-Feb-2016 - 01-Mar-2016</span></td><td><span class=\"grayedout\">inactive</span></td></tr></table></div>"
        },
        "onsetDateTime": "2016-02-14",
        "abatementDateTime": "2016-03-01",
        "subject": {
          "reference": "urn:uuid:",
          "display": "Aniela Prażmo"
        },
        "asserter": {
          "reference": "urn:uuid:",
          "display": "Poradnia rehabilitacyjna"
        }
      }
    },
    {
      "fullUrl": "urn:uuid:d5030900-9a37-4f13-88e9-66e32020c484",
      "resource": {
        "resourceType": "Medication",
        "id": "d5030900-9a37-4f13-88e9-66e32020c484",
        "meta": {
          "profile": [
            "http://hl7.eu/fhir/eps/StructureDefinition/Medication-eu-eps"
          ]
        },
        "code": {
          "coding": [
            {
              "code": "1153431000",
              "system": "http://snomed.info/sct",
              "display": "Amlodipine (as amlodipine besylate) 2.5 mg oral tablet"
            }
          ],
          "text": "Amlodipine (as amlodipine besylate) 2.5 mg oral tablet"
        },
        "text": {
          "status": "generated",
          "div": "<div xmlns=\"http://www.w3.org/1999/xhtml\">Amlodipine (as amlodipine besylate) 2.5 mg oral tablet</div>"
        }
      }
    },
    {
      "fullUrl": "urn:uuid:0351003d-f178-43cc-825d-2f39bd4705af",
      "resource": {
        "resourceType": "MedicationStatement",
        "id": "0351003d-f178-43cc-825d-2f39bd4705af",
        "meta": {
          "profile": [
            "http://hl7.eu/fhir/eps/StructureDefinition/MedicationStatement-eu-eps"
          ]
        },
        "effectivePeriod": {
          "start": "2025-07-05"
        },
        "dosage": [
          {
            "doseAndRate": [
              {
                "doseQuantity": {
                  "value": 1,
                  "unit": "{tbl} (2.5 mg)",
                  "system": "$ucum",
                  "code": "{tbl}"
                }
              }
            ],
            "timing": {
              "repeat": {
                "frequency": 1,
                "period": 1,
                "periodUnit": "d"
              }
            },
            "text": "1 tablet (2.5 mg) by mouth once daily",
            "asNeededBoolean": false
          }
        ],
        "reasonCode": [
          {
            "coding": [
              {
                "code": "59621000",
                "system": "http://snomed.info/sct",
                "display": "Essential hypertension (disorder)"
              }
            ]
          }
        ],
        "text": {
          "status": "generated",
          "div": "<div xmlns=\"http://www.w3.org/1999/xhtml\"><table class=\"hl7__ips first25\"><tr><th>Medication</th><th>Since</th><th>Form</th><th>Dosage</th><th>Reason</th></tr><tr><td>Amlodipine (as amlodipine besylate) 2.5 mg oral tablet</td><td><span class=\"nb\">2025-07-05</span></td><td>-</td><td>1 tablet (2.5 mg) by mouth once daily</td><td>Essential hypertension (disorder)</td></tr></table></div>"
        },
        "status": "active",
        "medicationReference": {
          "reference": "urn:uuid:d5030900-9a37-4f13-88e9-66e32020c484",
          "display": "Amlodipine (as amlodipine besylate) 2.5 mg oral tablet"
        },
        "subject": {
          "reference": "urn:uuid:b4ca464b-a38d-406a-a1fc-1266c1f70e3f",
          "display": "Aniela Prażmo"
        }
      }
    },
    {
      "fullUrl": "urn:uuid:3259b0a8-6d31-4fa8-a6ca-1b86b9e1cb1d",
      "resource": {
        "resourceType": "Medication",
        "id": "3259b0a8-6d31-4fa8-a6ca-1b86b9e1cb1d",
        "meta": {
          "profile": [
            "http://hl7.eu/fhir/eps/StructureDefinition/Medication-eu-eps"
          ]
        },
        "code": {
          "coding": [
            {
              "code": "376209006",
              "system": "http://snomed.info/sct",
              "display": "Hydrochlorothiazide 25 mg oral tablet"
            }
          ],
          "text": "Hydrochlorothiazide 25 mg oral tablet"
        },
        "text": {
          "status": "generated",
          "div": "<div xmlns=\"http://www.w3.org/1999/xhtml\">Hydrochlorothiazide 25 mg oral tablet</div>"
        }
      }
    },
    {
      "fullUrl": "urn:uuid:0f8658fe-c339-406b-a043-0ea46c137c7b",
      "resource": {
        "resourceType": "MedicationStatement",
        "id": "0f8658fe-c339-406b-a043-0ea46c137c7b",
        "meta": {
          "profile": [
            "http://hl7.eu/fhir/eps/StructureDefinition/MedicationStatement-eu-eps"
          ]
        },
        "effectivePeriod": {
          "start": "2025-07-05"
        },
        "dosage": [
          {
            "doseAndRate": [
              {
                "doseQuantity": {
                  "value": 1,
                  "unit": "{tbl}",
                  "system": "$ucum",
                  "code": "{tbl}"
                }
              }
            ],
            "timing": {
              "repeat": {
                "frequency": 1,
                "period": 1,
                "periodUnit": "d"
              }
            },
            "text": "1 tablet (25 mg) by mouth once daily",
            "asNeededBoolean": false
          }
        ],
        "reasonCode": [
          {
            "coding": [
              {
                "code": "59621000",
                "system": "http://snomed.info/sct",
                "display": "Essential hypertension (disorder)"
              }
            ]
          }
        ],
        "text": {
          "status": "generated",
          "div": "<div xmlns=\"http://www.w3.org/1999/xhtml\"><table class=\"hl7__ips first25\"><tr><th>Medication</th><th>Since</th><th>Form</th><th>Dosage</th><th>Reason</th></tr><tr><td>Hydrochlorothiazide 25 mg oral tablet</td><td><span class=\"nb\">2025-07-05</span></td><td>-</td><td>1 tablet (25 mg) by mouth once daily</td><td>Essential hypertension (disorder)</td></tr></table></div>"
        },
        "status": "active",
        "medicationReference": {
          "reference": "urn:uuid:3259b0a8-6d31-4fa8-a6ca-1b86b9e1cb1d",
          "display": "Hydrochlorothiazide 25 mg oral tablet"
        },
        "subject": {
          "reference": "urn:uuid:b4ca464b-a38d-406a-a1fc-1266c1f70e3f",
          "display": "Aniela Prażmo"
        }
      }
    },
    {
      "fullUrl": "urn:uuid:01758ab5-1b3a-4072-b358-b4fe5cff4c6b",
      "resource": {
        "resourceType": "Medication",
        "id": "01758ab5-1b3a-4072-b358-b4fe5cff4c6b",
        "meta": {
          "profile": [
            "http://hl7.eu/fhir/eps/StructureDefinition/Medication-eu-eps"
          ]
        },
        "code": {
          "coding": [
            {
              "code": "318859000",
              "system": "http://snomed.info/sct",
              "display": "Lisinopril 10 mg oral tablet"
            }
          ],
          "text": "Lisinopril 10 mg oral tablet"
        },
        "text": {
          "status": "generated",
          "div": "<div xmlns=\"http://www.w3.org/1999/xhtml\">Lisinopril 10 mg oral tablet</div>"
        }
      }
    },
    {
      "fullUrl": "urn:uuid:aaece49c-9711-44b8-b8a6-3afcdeb41c07",
      "resource": {
        "resourceType": "MedicationStatement",
        "id": "aaece49c-9711-44b8-b8a6-3afcdeb41c07",
        "meta": {
          "profile": [
            "http://hl7.eu/fhir/eps/StructureDefinition/MedicationStatement-eu-eps"
          ]
        },
        "effectivePeriod": {
          "start": "2025-07-05"
        },
        "dosage": [
          {
            "doseAndRate": [
              {
                "doseQuantity": {
                  "value": 1,
                  "unit": "{tbl}",
                  "system": "$ucum",
                  "code": "{tbl}"
                }
              }
            ],
            "timing": {
              "repeat": {
                "frequency": 1,
                "period": 1,
                "periodUnit": "d"
              }
            },
            "text": "1 tablet (10 mg) by mouth once daily",
            "asNeededBoolean": false
          }
        ],
        "reasonCode": [
          {
            "coding": [
              {
                "code": "59621000",
                "system": "http://snomed.info/sct",
                "display": "Essential hypertension (disorder)"
              }
            ]
          }
        ],
        "text": {
          "status": "generated",
          "div": "<div xmlns=\"http://www.w3.org/1999/xhtml\"><table class=\"hl7__ips first25\"><tr><th>Medication</th><th>Since</th><th>Form</th><th>Dosage</th><th>Reason</th></tr><tr><td>Lisinopril 10 mg oral tablet</td><td><span class=\"nb\">2025-07-05</span></td><td>-</td><td>1 tablet (10 mg) by mouth once daily</td><td>Essential hypertension (disorder)</td></tr></table></div>"
        },
        "status": "active",
        "medicationReference": {
          "reference": "urn:uuid:01758ab5-1b3a-4072-b358-b4fe5cff4c6b",
          "display": "Lisinopril 10 mg oral tablet"
        },
        "subject": {
          "reference": "urn:uuid:b4ca464b-a38d-406a-a1fc-1266c1f70e3f",
          "display": "Aniela Prażmo"
        }
      }
    },
    {
      "fullUrl": "urn:uuid:cc1f3c38-708a-4960-9920-7f13480132a9",
      "resource": {
        "resourceType": "Medication",
        "id": "cc1f3c38-708a-4960-9920-7f13480132a9",
        "meta": {
          "profile": [
            "http://hl7.eu/fhir/eps/StructureDefinition/Medication-eu-eps"
          ]
        },
        "code": {
          "coding": [
            {
              "code": "783144007",
              "system": "http://snomed.info/sct",
              "display": "Alendronic acid (as alendronate sodium) 10 mg oral tablet"
            }
          ],
          "text": "Alendronic acid (as alendronate sodium) 10 mg oral tablet"
        },
        "text": {
          "status": "generated",
          "div": "<div xmlns=\"http://www.w3.org/1999/xhtml\">Alendronic acid (as alendronate sodium) 10 mg oral tablet</div>"
        }
      }
    },
    {
      "fullUrl": "urn:uuid:9ba6f6ac-ee3a-44f0-99a0-5d4947ee1aee",
      "resource": {
        "resourceType": "MedicationStatement",
        "id": "9ba6f6ac-ee3a-44f0-99a0-5d4947ee1aee",
        "meta": {
          "profile": [
            "http://hl7.eu/fhir/eps/StructureDefinition/MedicationStatement-eu-eps"
          ]
        },
        "effectivePeriod": {
          "start": "2025-07-05"
        },
        "dosage": [
          {
            "doseAndRate": [
              {
                "doseQuantity": {
                  "value": 1,
                  "unit": "{tbl} (10 mg)",
                  "system": "$ucum",
                  "code": "{tbl}"
                }
              }
            ],
            "timing": {
              "repeat": {
                "frequency": 1,
                "period": 1,
                "periodUnit": "d"
              }
            },
            "text": "1 tablet (10 mg) once daily",
            "asNeededBoolean": false
          }
        ],
        "reasonCode": [
          {
            "coding": [
              {
                "code": "64859006",
                "system": "http://snomed.info/sct",
                "display": "Osteoporosis (disorder)"
              }
            ]
          }
        ],
        "text": {
          "status": "generated",
          "div": "<div xmlns=\"http://www.w3.org/1999/xhtml\"><table class=\"hl7__ips first25\"><tr><th>Medication</th><th>Since</th><th>Form</th><th>Dosage</th><th>Reason</th></tr><tr><td>Alendronic acid (as alendronate sodium) 10 mg oral tablet</td><td><span class=\"nb\">2025-07-05</span></td><td>-</td><td>1 tablet (10 mg) once daily</td><td>Osteoporosis (disorder)</td></tr></table></div>"
        },
        "status": "active",
        "medicationReference": {
          "reference": "urn:uuid:cc1f3c38-708a-4960-9920-7f13480132a9",
          "display": "Alendronic acid (as alendronate sodium) 10 mg oral tablet"
        },
        "subject": {
          "reference": "urn:uuid:b4ca464b-a38d-406a-a1fc-1266c1f70e3f",
          "display": "Aniela Prażmo"
        }
      }
    },
    {
      "fullUrl": "urn:uuid:2670db6b-922e-4dd5-828b-e0430318660e",
      "resource": {
        "resourceType": "Medication",
        "id": "2670db6b-922e-4dd5-828b-e0430318660e",
        "meta": {
          "profile": [
            "http://hl7.eu/fhir/eps/StructureDefinition/Medication-eu-eps"
          ]
        },
        "code": {
          "coding": [
            {
              "code": "319996000",
              "system": "http://snomed.info/sct",
              "display": "Simvastatin 10 mg oral tablet"
            }
          ],
          "text": "Simvastatin 10 mg oral tablet"
        },
        "text": {
          "status": "generated",
          "div": "<div xmlns=\"http://www.w3.org/1999/xhtml\">Simvastatin 10 mg oral tablet</div>"
        }
      }
    },
    {
      "fullUrl": "urn:uuid:d944bb77-733f-44be-ae54-a08bce479f2b",
      "resource": {
        "resourceType": "MedicationStatement",
        "id": "d944bb77-733f-44be-ae54-a08bce479f2b",
        "meta": {
          "profile": [
            "http://hl7.eu/fhir/eps/StructureDefinition/MedicationStatement-eu-eps"
          ]
        },
        "effectivePeriod": {
          "start": "2025-06-16"
        },
        "dosage": [
          {
            "doseAndRate": [
              {
                "doseQuantity": {
                  "value": 1,
                  "unit": "{tbl}",
                  "system": "$ucum",
                  "code": "{tbl}"
                }
              }
            ],
            "timing": {
              "repeat": {
                "frequency": 1,
                "period": 1,
                "periodUnit": "d"
              }
            },
            "text": "1 tablet (10 mg) by mouth once daily",
            "asNeededBoolean": false
          }
        ],
        "reasonCode": [
          {
            "coding": [
              {
                "code": "55822004",
                "system": "http://snomed.info/sct",
                "display": "Hyperlipidemia"
              }
            ]
          }
        ],
        "text": {
          "status": "generated",
          "div": "<div xmlns=\"http://www.w3.org/1999/xhtml\"><table class=\"hl7__ips first25\"><tr><th>Medication</th><th>Since</th><th>Form</th><th>Dosage</th><th>Reason</th></tr><tr><td>Simvastatin 10 mg oral tablet</td><td><span class=\"nb\">2025-06-16</span></td><td>-</td><td>1 tablet (10 mg) by mouth once daily</td><td>Hyperlipidemia</td></tr></table></div>"
        },
        "status": "active",
        "medicationReference": {
          "reference": "urn:uuid:2670db6b-922e-4dd5-828b-e0430318660e",
          "display": "Simvastatin 10 mg oral tablet"
        },
        "subject": {
          "reference": "urn:uuid:b4ca464b-a38d-406a-a1fc-1266c1f70e3f",
          "display": "Aniela Prażmo"
        }
      }
    },
    {
      "fullUrl": "urn:uuid:76482738-355c-400a-af1b-a91dfdcc62bd",
      "resource": {
        "resourceType": "Medication",
        "id": "76482738-355c-400a-af1b-a91dfdcc62bd",
        "meta": {
          "profile": [
            "http://hl7.eu/fhir/eps/StructureDefinition/Medication-eu-eps"
          ]
        },
        "code": {
          "coding": [
            {
              "code": "783586007",
              "system": "http://snomed.info/sct",
              "display": "Clopidogrel (as clopidogrel bisulfate) 75 mg oral tablet"
            }
          ],
          "text": "Clopidogrel (as clopidogrel bisulfate) 75 mg oral tablet"
        },
        "text": {
          "status": "generated",
          "div": "<div xmlns=\"http://www.w3.org/1999/xhtml\">Clopidogrel (as clopidogrel bisulfate) 75 mg oral tablet</div>"
        }
      }
    },
    {
      "fullUrl": "urn:uuid:7cf6ce8a-85f6-4416-9ed2-d2d155e6e184",
      "resource": {
        "resourceType": "MedicationStatement",
        "id": "7cf6ce8a-85f6-4416-9ed2-d2d155e6e184",
        "meta": {
          "profile": [
            "http://hl7.eu/fhir/eps/StructureDefinition/MedicationStatement-eu-eps"
          ]
        },
        "effectivePeriod": {
          "start": "2017-05-13"
        },
        "dosage": [
          {
            "doseAndRate": [
              {
                "doseQuantity": {
                  "value": 1,
                  "unit": "{tbl}",
                  "system": "$ucum",
                  "code": "{tbl}"
                }
              }
            ],
            "timing": {
              "repeat": {
                "frequency": 1,
                "period": 1,
                "periodUnit": "d"
              }
            },
            "text": "1 tablet (75 mg) once daily",
            "asNeededBoolean": false
          }
        ],
        "text": {
          "status": "generated",
          "div": "<div xmlns=\"http://www.w3.org/1999/xhtml\"><table class=\"hl7__ips first25\"><tr><th>Medication</th><th>Since</th><th>Form</th><th>Dosage</th><th>Reason</th></tr><tr><td>Clopidogrel (as clopidogrel bisulfate) 75 mg oral tablet</td><td><span class=\"nb\">2017-05-13</span></td><td>-</td><td>1 tablet (75 mg) once daily</td><td>-</td></tr></table></div>"
        },
        "status": "active",
        "medicationReference": {
          "reference": "urn:uuid:76482738-355c-400a-af1b-a91dfdcc62bd",
          "display": "Clopidogrel (as clopidogrel bisulfate) 75 mg oral tablet"
        },
        "subject": {
          "reference": "urn:uuid:b4ca464b-a38d-406a-a1fc-1266c1f70e3f",
          "display": "Aniela Prażmo"
        }
      }
    },
    {
      "fullUrl": "urn:uuid:83010443-0246-44d0-b40a-c53238cbf498",
      "resource": {
        "resourceType": "Medication",
        "id": "83010443-0246-44d0-b40a-c53238cbf498",
        "meta": {
          "profile": [
            "http://hl7.eu/fhir/eps/StructureDefinition/Medication-eu-eps"
          ]
        },
        "code": {
          "coding": [
            {
              "code": "319997009",
              "system": "http://snomed.info/sct",
              "display": "Simvastatin 20 mg oral tablet"
            }
          ],
          "text": "Simvastatin 20 mg oral tablet"
        },
        "text": {
          "status": "generated",
          "div": "<div xmlns=\"http://www.w3.org/1999/xhtml\">Simvastatin 20 mg oral tablet</div>"
        }
      }
    },
    {
      "fullUrl": "urn:uuid:fffe0fb0-eb99-4de7-b473-4bf63dfc6982",
      "resource": {
        "resourceType": "MedicationStatement",
        "id": "fffe0fb0-eb99-4de7-b473-4bf63dfc6982",
        "meta": {
          "profile": [
            "http://hl7.eu/fhir/eps/StructureDefinition/MedicationStatement-eu-eps"
          ]
        },
        "effectivePeriod": {
          "start": "2017-05-13"
        },
        "dosage": [
          {
            "doseAndRate": [
              {
                "doseQuantity": {
                  "value": 1,
                  "unit": "{tbl} (20 mg)",
                  "system": "$ucum",
                  "code": "{tbl}"
                }
              }
            ],
            "timing": {
              "repeat": {
                "frequency": 1,
                "period": 1,
                "periodUnit": "d"
              }
            },
            "text": "1 tablet (20 mg) by mouth once daily",
            "asNeededBoolean": false
          }
        ],
        "text": {
          "status": "generated",
          "div": "<div xmlns=\"http://www.w3.org/1999/xhtml\"><table class=\"hl7__ips first25\"><tr><th>Medication</th><th>Since</th><th>Form</th><th>Dosage</th><th>Reason</th></tr><tr><td>Simvastatin 20 mg oral tablet</td><td><span class=\"nb\">2017-05-13</span></td><td>-</td><td>1 tablet (20 mg) by mouth once daily</td><td>-</td></tr></table></div>"
        },
        "status": "active",
        "medicationReference": {
          "reference": "urn:uuid:83010443-0246-44d0-b40a-c53238cbf498",
          "display": "Simvastatin 20 mg oral tablet"
        },
        "subject": {
          "reference": "urn:uuid:b4ca464b-a38d-406a-a1fc-1266c1f70e3f",
          "display": "Aniela Prażmo"
        }
      }
    },
    {
      "fullUrl": "urn:uuid:bd0c0cfa-e3f4-4e84-9a56-79ea4e909351",
      "resource": {
        "resourceType": "Medication",
        "id": "bd0c0cfa-e3f4-4e84-9a56-79ea4e909351",
        "meta": {
          "profile": [
            "http://hl7.eu/fhir/eps/StructureDefinition/Medication-eu-eps"
          ]
        },
        "code": {
          "coding": [
            {
              "code": "425176000",
              "system": "http://snomed.info/sct",
              "display": "Nitroglycerin 400 microgram/actuation sublingual spray"
            }
          ],
          "text": "Nitroglycerin 400 microgram/actuation sublingual spray"
        },
        "text": {
          "status": "generated",
          "div": "<div xmlns=\"http://www.w3.org/1999/xhtml\">Nitroglycerin 400 microgram/actuation sublingual spray</div>"
        }
      }
    },
    {
      "fullUrl": "urn:uuid:694e0298-6834-4b02-9b0d-638b68437e5c",
      "resource": {
        "resourceType": "MedicationStatement",
        "id": "694e0298-6834-4b02-9b0d-638b68437e5c",
        "meta": {
          "profile": [
            "http://hl7.eu/fhir/eps/StructureDefinition/MedicationStatement-eu-eps"
          ]
        },
        "effectivePeriod": {
          "start": "2017-05-13"
        },
        "dosage": [
          {
            "doseAndRate": [
              {
                "doseQuantity": {
                  "value": 400,
                  "unit": "mcg",
                  "system": "$ucum",
                  "code": "mcg"
                }
              }
            ],
            "timing": {
              "repeat": {
                "frequency": 1,
                "period": 5,
                "periodUnit": "min"
              }
            },
            "text": "400 micrograms (1 spray) sublingually as needed for chest pain, may repeat every 5 minutes as needed, up to 3 sprays in 15 minutes",
            "asNeededBoolean": true
          }
        ],
        "text": {
          "status": "generated",
          "div": "<div xmlns=\"http://www.w3.org/1999/xhtml\"><table class=\"hl7__ips first25\"><tr><th>Medication</th><th>Since</th><th>Form</th><th>Dosage</th><th>Reason</th></tr><tr><td>Nitroglycerin 400 microgram/actuation sublingual spray</td><td><span class=\"nb\">2017-05-13</span></td><td>-</td><td>400 micrograms (1 spray) sublingually as needed for chest pain, may repeat every 5 minutes as needed, up to 3 sprays in 15 minutes</td><td>-</td></tr></table></div>"
        },
        "status": "active",
        "medicationReference": {
          "reference": "urn:uuid:bd0c0cfa-e3f4-4e84-9a56-79ea4e909351",
          "display": "Nitroglycerin 400 microgram/actuation sublingual spray"
        },
        "subject": {
          "reference": "urn:uuid:b4ca464b-a38d-406a-a1fc-1266c1f70e3f",
          "display": "Aniela Prażmo"
        }
      }
    },
    {
      "fullUrl": "urn:uuid:930beecc-c141-4f21-a52c-ffd5be5afe22",
      "resource": {
        "resourceType": "Medication",
        "id": "930beecc-c141-4f21-a52c-ffd5be5afe22",
        "meta": {
          "profile": [
            "http://hl7.eu/fhir/eps/StructureDefinition/Medication-eu-eps"
          ]
        },
        "code": {
          "coding": [
            {
              "code": "879980009",
              "system": "http://snomed.info/sct",
              "display": "Metoprolol tartrate (as metoprolol succinate) 100 mg prolonged-release oral tablet"
            }
          ],
          "text": "Metoprolol tartrate (as metoprolol succinate) 100 mg prolonged-release oral tablet"
        },
        "text": {
          "status": "generated",
          "div": "<div xmlns=\"http://www.w3.org/1999/xhtml\">Metoprolol tartrate (as metoprolol succinate) 100 mg prolonged-release oral tablet</div>"
        }
      }
    },
    {
      "fullUrl": "urn:uuid:8a8ef8b2-ccc8-4582-a800-e8d89a068d6d",
      "resource": {
        "resourceType": "MedicationStatement",
        "id": "8a8ef8b2-ccc8-4582-a800-e8d89a068d6d",
        "meta": {
          "profile": [
            "http://hl7.eu/fhir/eps/StructureDefinition/MedicationStatement-eu-eps"
          ]
        },
        "effectivePeriod": {
          "start": "2017-05-13"
        },
        "dosage": [
          {
            "doseAndRate": [
              {
                "doseQuantity": {
                  "value": 1,
                  "unit": "{tbl} (100 mg)",
                  "system": "$ucum",
                  "code": "{tbl}"
                }
              }
            ],
            "timing": {
              "repeat": {
                "frequency": 1,
                "period": 1,
                "periodUnit": "d"
              }
            },
            "text": "1 tablet (100 mg) once daily",
            "asNeededBoolean": false
          }
        ],
        "text": {
          "status": "generated",
          "div": "<div xmlns=\"http://www.w3.org/1999/xhtml\"><table class=\"hl7__ips first25\"><tr><th>Medication</th><th>Since</th><th>Form</th><th>Dosage</th><th>Reason</th></tr><tr><td>Metoprolol tartrate (as metoprolol succinate) 100 mg prolonged-release oral tablet</td><td><span class=\"nb\">2017-05-13</span></td><td>-</td><td>1 tablet (100 mg) once daily</td><td>-</td></tr></table></div>"
        },
        "status": "active",
        "medicationReference": {
          "reference": "urn:uuid:930beecc-c141-4f21-a52c-ffd5be5afe22",
          "display": "Metoprolol tartrate (as metoprolol succinate) 100 mg prolonged-release oral tablet"
        },
        "subject": {
          "reference": "urn:uuid:b4ca464b-a38d-406a-a1fc-1266c1f70e3f",
          "display": "Aniela Prażmo"
        }
      }
    },
    {
      "fullUrl": "urn:uuid:5389e584-2b2e-4754-900f-4a30b96ec43e",
      "resource": {
        "resourceType": "Immunization",
        "id": "5389e584-2b2e-4754-900f-4a30b96ec43e",
        "meta": {
          "profile": [
            "http://hl7.org/fhir/uv/ips/StructureDefinition/Immunization-uv-ips"
          ]
        },
        "vaccineCode": {
          "coding": [
            {
              "code": "1181000221105",
              "system": "http://snomed.info/sct",
              "display": "Vaccine product containing Influenza virus antigen"
            },
            {
              "code": "J07BB02",
              "system": "http://www.whocc.no/atc",
              "display": "Influenza, inactivated, split virus"
            }
          ],
          "text": "Influenza virus antigen only vaccine product"
        },
        "site": {
          "coding": [
            {
              "code": "244979005",
              "system": "http://snomed.info/sct",
              "display": "Entire muscle of upper arm"
            }
          ],
          "text": "Entire muscle of upper arm"
        },
        "route": {
          "coding": [
            {
              "code": "78421000",
              "system": "http://snomed.info/sct",
              "display": "Intramuscular route"
            }
          ],
          "text": "Intramuscular route"
        },
        "text": {
          "status": "generated",
          "div": "<div xmlns=\"http://www.w3.org/1999/xhtml\"><table class=\"hl7__ips\"><tr><td>Influenza virus antigen only vaccine product</td><td><span class=\"nb\">05-Jul-2025</span></td></tr></table></div>"
        },
        "status": "completed",
        "patient": {
          "reference": "urn:uuid:b4ca464b-a38d-406a-a1fc-1266c1f70e3f",
          "display": "Aniela Prażmo"
        },
        "occurrenceDateTime": "2025-07-05",
        "lotNumber": "HJ-pFZEl",
        "expirationDate": "2025-09-27"
      }
    },
    {
      "fullUrl": "urn:uuid:8a1bb4ed-7593-498a-8ca8-06f11697b7ce",
      "resource": {
        "resourceType": "Immunization",
        "id": "8a1bb4ed-7593-498a-8ca8-06f11697b7ce",
        "meta": {
          "profile": [
            "http://hl7.org/fhir/uv/ips/StructureDefinition/Immunization-uv-ips"
          ]
        },
        "vaccineCode": {
          "coding": [
            {
              "code": "777725002",
              "system": "http://snomed.info/sct",
              "display": "Vaccine product containing only Clostridium tetani toxoid antigen adsorbed"
            },
            {
              "code": "J07AM51",
              "system": "http://www.whocc.no/atc",
              "display": "Diphtheria-tetanus vaccines, adult type"
            }
          ],
          "text": "Clostridium tetani toxoid antigen adsorbed only vaccine product"
        },
        "site": {
          "coding": [
            {
              "code": "244979005",
              "system": "http://snomed.info/sct",
              "display": "Entire muscle of upper arm"
            }
          ],
          "text": "Entire muscle of upper arm"
        },
        "route": {
          "coding": [
            {
              "code": "78421000",
              "system": "http://snomed.info/sct",
              "display": "Intramuscular route"
            }
          ],
          "text": "Intramuscular route"
        },
        "text": {
          "status": "generated",
          "div": "<div xmlns=\"http://www.w3.org/1999/xhtml\"><table class=\"hl7__ips\"><tr><td>Clostridium tetani toxoid antigen adsorbed only vaccine product</td><td><span class=\"nb\">04-Jun-2022</span></td></tr></table></div>"
        },
        "status": "completed",
        "patient": {
          "reference": "urn:uuid:b4ca464b-a38d-406a-a1fc-1266c1f70e3f",
          "display": "Aniela Prażmo"
        },
        "occurrenceDateTime": "2022-06-04",
        "lotNumber": "XX-rarJrny",
        "expirationDate": "2023-05-25"
      }
    },
    {
      "fullUrl": "urn:uuid:4305237a-d175-46b6-badb-4c760f9cea37",
      "resource": {
        "resourceType": "Immunization",
        "id": "4305237a-d175-46b6-badb-4c760f9cea37",
        "meta": {
          "profile": [
            "http://hl7.org/fhir/uv/ips/StructureDefinition/Immunization-uv-ips"
          ]
        },
        "vaccineCode": {
          "coding": [
            {
              "code": "1119349007",
              "system": "http://snomed.info/sct",
              "display": "Vaccine product containing SARS-CoV-2 mRNA"
            },
            {
              "code": "J07BX03",
              "system": "http://www.whocc.no/atc",
              "display": "COVID-19 mRNA vaccines"
            }
          ],
          "text": "SARS-CoV-2 mRNA vaccine"
        },
        "site": {
          "coding": [
            {
              "code": "244979005",
              "system": "http://snomed.info/sct",
              "display": "Entire muscle of upper arm"
            }
          ],
          "text": "Entire muscle of upper arm"
        },
        "route": {
          "coding": [
            {
              "code": "78421000",
              "system": "http://snomed.info/sct",
              "display": "Intramuscular route"
            }
          ],
          "text": "Intramuscular route"
        },
        "text": {
          "status": "generated",
          "div": "<div xmlns=\"http://www.w3.org/1999/xhtml\"><table class=\"hl7__ips\"><tr><td>SARS-CoV-2 mRNA vaccine</td><td><span class=\"nb\">27-Mar-2021</span></td></tr></table></div>"
        },
        "status": "completed",
        "patient": {
          "reference": "urn:uuid:b4ca464b-a38d-406a-a1fc-1266c1f70e3f",
          "display": "Aniela Prażmo"
        },
        "occurrenceDateTime": "2021-03-27",
        "lotNumber": "XI-WLvOIOIp",
        "expirationDate": "2021-05-13"
      }
    },
    {
      "fullUrl": "urn:uuid:143902e4-3869-4d59-a745-f4b1994cd342",
      "resource": {
        "resourceType": "Procedure",
        "id": "143902e4-3869-4d59-a745-f4b1994cd342",
        "meta": {
          "profile": [
            "http://hl7.org/fhir/uv/ips/StructureDefinition/Procedure-uv-ips"
          ]
        },
        "code": {
          "coding": [
            {
              "code": "225386006",
              "system": "http://snomed.info/sct",
              "display": "Pre-discharge assessment (procedure)"
            }
          ],
          "text": "Pre-discharge assessment"
        },
        "text": {
          "status": "generated",
          "div": "<div xmlns=\"http://www.w3.org/1999/xhtml\"><table class=\"hl7__ips\"><tr><td>Pre-discharge assessment</td><td><span class=\"nb\">19-Jun-2024</span></td><td>-</td></tr></table></div>"
        },
        "status": "completed",
        "performedDateTime": "2024-06-19",
        "subject": {
          "reference": "urn:uuid:",
          "display": "Aniela Prażmo"
        }
      }
    },
    {
      "fullUrl": "urn:uuid:ad955562-3013-4050-9725-bb882daa0f96",
      "resource": {
        "resourceType": "Procedure",
        "id": "ad955562-3013-4050-9725-bb882daa0f96",
        "meta": {
          "profile": [
            "http://hl7.org/fhir/uv/ips/StructureDefinition/Procedure-uv-ips"
          ]
        },
        "code": {
          "coding": [
            {
              "code": "449381000124108",
              "system": "http://snomed.info/sct",
              "display": "Discharge from skilled nursing facility (procedure)"
            }
          ]
        },
        "text": {
          "status": "generated",
          "div": "<div xmlns=\"http://www.w3.org/1999/xhtml\"><table class=\"hl7__ips\"><tr><td>Discharge from skilled nursing facility (procedure)</td><td><span class=\"nb\">19-Jun-2024</span></td><td>-</td></tr></table></div>"
        },
        "status": "completed",
        "performedDateTime": "2024-06-19",
        "subject": {
          "reference": "urn:uuid:",
          "display": "Aniela Prażmo"
        }
      }
    },
    {
      "fullUrl": "urn:uuid:a628aa57-2230-4ea6-8846-f0c40fe3e053",
      "resource": {
        "resourceType": "Procedure",
        "id": "a628aa57-2230-4ea6-8846-f0c40fe3e053",
        "meta": {
          "profile": [
            "http://hl7.org/fhir/uv/ips/StructureDefinition/Procedure-uv-ips"
          ]
        },
        "code": {
          "coding": [
            {
              "code": "91251008",
              "system": "http://snomed.info/sct",
              "display": "Physical therapy procedure (regime/therapy)"
            }
          ],
          "text": "Physical therapy procedure"
        },
        "text": {
          "status": "generated",
          "div": "<div xmlns=\"http://www.w3.org/1999/xhtml\"><table class=\"hl7__ips\"><tr><td>Physical therapy procedure</td><td><span class=\"nb\">18-Jun-2024</span></td><td>-</td></tr></table></div>"
        },
        "status": "completed",
        "performedDateTime": "2024-06-18",
        "subject": {
          "reference": "urn:uuid:",
          "display": "Aniela Prażmo"
        }
      }
    },
    {
      "fullUrl": "urn:uuid:a027fd82-e449-42e4-94ac-e0f6b945a941",
      "resource": {
        "resourceType": "Procedure",
        "id": "a027fd82-e449-42e4-94ac-e0f6b945a941",
        "meta": {
          "profile": [
            "http://hl7.org/fhir/uv/ips/StructureDefinition/Procedure-uv-ips"
          ]
        },
        "code": {
          "coding": [
            {
              "code": "410401003",
              "system": "http://snomed.info/sct",
              "display": "Nursing care/supplementary surveillance (regime/therapy)"
            }
          ],
          "text": "Nursing care/supplementary surveillance"
        },
        "text": {
          "status": "generated",
          "div": "<div xmlns=\"http://www.w3.org/1999/xhtml\"><table class=\"hl7__ips\"><tr><td>Nursing care/supplementary surveillance</td><td><span class=\"nb\">18-Jun-2024</span></td><td>-</td></tr></table></div>"
        },
        "status": "completed",
        "performedDateTime": "2024-06-18",
        "subject": {
          "reference": "urn:uuid:",
          "display": "Aniela Prażmo"
        }
      }
    },
    {
      "fullUrl": "urn:uuid:2865dc5c-9ce8-42d1-b418-ef4c4031e400",
      "resource": {
        "resourceType": "Procedure",
        "id": "2865dc5c-9ce8-42d1-b418-ef4c4031e400",
        "meta": {
          "profile": [
            "http://hl7.org/fhir/uv/ips/StructureDefinition/Procedure-uv-ips"
          ]
        },
        "code": {
          "coding": [
            {
              "code": "409023009",
              "system": "http://snomed.info/sct",
              "display": "Professional / ancillary services care (regime/therapy)"
            }
          ],
          "text": "Professional / ancillary services care"
        },
        "text": {
          "status": "generated",
          "div": "<div xmlns=\"http://www.w3.org/1999/xhtml\"><table class=\"hl7__ips\"><tr><td>Professional / ancillary services care</td><td><span class=\"nb\">15-Jun-2024</span></td><td>-</td></tr></table></div>"
        },
        "status": "completed",
        "performedDateTime": "2024-06-15",
        "subject": {
          "reference": "urn:uuid:",
          "display": "Aniela Prażmo"
        }
      }
    },
    {
      "fullUrl": "urn:uuid:d0c6c494-cc89-4c9d-9edc-bd8ebb35b261",
      "resource": {
        "resourceType": "Procedure",
        "id": "d0c6c494-cc89-4c9d-9edc-bd8ebb35b261",
        "meta": {
          "profile": [
            "http://hl7.org/fhir/uv/ips/StructureDefinition/Procedure-uv-ips"
          ]
        },
        "code": {
          "coding": [
            {
              "code": "311555007",
              "system": "http://snomed.info/sct",
              "display": "Speech and language therapy regime (regime/therapy)"
            }
          ],
          "text": "Speech and language therapy regime"
        },
        "text": {
          "status": "generated",
          "div": "<div xmlns=\"http://www.w3.org/1999/xhtml\"><table class=\"hl7__ips\"><tr><td>Speech and language therapy regime</td><td><span class=\"nb\">10-Jun-2024</span></td><td>-</td></tr></table></div>"
        },
        "status": "completed",
        "performedDateTime": "2024-06-10",
        "subject": {
          "reference": "urn:uuid:",
          "display": "Aniela Prażmo"
        }
      }
    },
    {
      "fullUrl": "urn:uuid:36c9af10-ab83-400b-bd10-c1d5c1ddace4",
      "resource": {
        "resourceType": "Procedure",
        "id": "36c9af10-ab83-400b-bd10-c1d5c1ddace4",
        "meta": {
          "profile": [
            "http://hl7.org/fhir/uv/ips/StructureDefinition/Procedure-uv-ips"
          ]
        },
        "code": {
          "coding": [
            {
              "code": "84478008",
              "system": "http://snomed.info/sct",
              "display": "Occupational therapy (regime/therapy)"
            }
          ],
          "text": "Occupational therapy"
        },
        "text": {
          "status": "generated",
          "div": "<div xmlns=\"http://www.w3.org/1999/xhtml\"><table class=\"hl7__ips\"><tr><td>Occupational therapy</td><td><span class=\"nb\">26-May-2024</span></td><td>-</td></tr></table></div>"
        },
        "status": "completed",
        "performedDateTime": "2024-05-26",
        "subject": {
          "reference": "urn:uuid:",
          "display": "Aniela Prażmo"
        }
      }
    },
    {
      "fullUrl": "urn:uuid:1149c1d4-380a-480e-8ca2-bab0105ea14c",
      "resource": {
        "resourceType": "Procedure",
        "id": "1149c1d4-380a-480e-8ca2-bab0105ea14c",
        "meta": {
          "profile": [
            "http://hl7.org/fhir/uv/ips/StructureDefinition/Procedure-uv-ips"
          ]
        },
        "code": {
          "coding": [
            {
              "code": "1225002",
              "system": "http://snomed.info/sct",
              "display": "Upper arm X-ray"
            }
          ],
          "text": "Radiography of humerus"
        },
        "text": {
          "status": "generated",
          "div": "<div xmlns=\"http://www.w3.org/1999/xhtml\"><table class=\"hl7__ips\"><tr><td>Radiography of humerus</td><td><span class=\"nb\">17-May-2024</span></td><td>-</td></tr></table></div>"
        },
        "status": "completed",
        "performedDateTime": "2024-05-17",
        "subject": {
          "reference": "urn:uuid:",
          "display": "Aniela Prażmo"
        }
      }
    },
    {
      "fullUrl": "urn:uuid:8e0ffe91-96b2-4b04-8d78-adecb2510090",
      "resource": {
        "resourceType": "Procedure",
        "id": "8e0ffe91-96b2-4b04-8d78-adecb2510090",
        "meta": {
          "profile": [
            "http://hl7.org/fhir/uv/ips/StructureDefinition/Procedure-uv-ips"
          ]
        },
        "code": {
          "coding": [
            {
              "code": "63332003",
              "system": "http://snomed.info/sct",
              "display": "History AND physical examination (procedure)"
            }
          ],
          "text": "History AND physical examination"
        },
        "text": {
          "status": "generated",
          "div": "<div xmlns=\"http://www.w3.org/1999/xhtml\"><table class=\"hl7__ips\"><tr><td>History AND physical examination</td><td><span class=\"nb\">17-May-2024</span></td><td>-</td></tr></table></div>"
        },
        "status": "completed",
        "performedDateTime": "2024-05-17",
        "subject": {
          "reference": "urn:uuid:",
          "display": "Aniela Prażmo"
        }
      }
    },
    {
      "fullUrl": "urn:uuid:bc5cf832-d9ef-4a33-bcbf-73c6a8c16636",
      "resource": {
        "resourceType": "Procedure",
        "id": "bc5cf832-d9ef-4a33-bcbf-73c6a8c16636",
        "meta": {
          "profile": [
            "http://hl7.org/fhir/uv/ips/StructureDefinition/Procedure-uv-ips"
          ]
        },
        "code": {
          "coding": [
            {
              "code": "274474001",
              "system": "http://snomed.info/sct",
              "display": "Bone immobilization"
            }
          ],
          "text": "Bone immobilization"
        },
        "reasonCode": [
          {
            "coding": [
              {
                "code": "65966004",
                "system": "http://snomed.info/sct",
                "display": "Fracture of forearm"
              }
            ]
          }
        ],
        "text": {
          "status": "generated",
          "div": "<div xmlns=\"http://www.w3.org/1999/xhtml\"><table class=\"hl7__ips\"><tr><td>Bone immobilization</td><td><span class=\"nb\">17-May-2024</span></td><td>Fracture of forearm</td></tr></table></div>"
        },
        "status": "completed",
        "performedDateTime": "2024-05-17",
        "subject": {
          "reference": "urn:uuid:",
          "display": "Aniela Prażmo"
        }
      }
    },
    {
      "fullUrl": "urn:uuid:cb7c0308-7911-4614-a354-f1c9ff45267c",
      "resource": {
        "resourceType": "Procedure",
        "id": "cb7c0308-7911-4614-a354-f1c9ff45267c",
        "meta": {
          "profile": [
            "http://hl7.org/fhir/uv/ips/StructureDefinition/Procedure-uv-ips"
          ]
        },
        "code": {
          "coding": [
            {
              "code": "315639002",
              "system": "http://snomed.info/sct",
              "display": "Initial patient assessment (procedure)"
            }
          ],
          "text": "Initial patient assessment"
        },
        "text": {
          "status": "generated",
          "div": "<div xmlns=\"http://www.w3.org/1999/xhtml\"><table class=\"hl7__ips\"><tr><td>Initial patient assessment</td><td><span class=\"nb\">17-May-2024</span></td><td>-</td></tr></table></div>"
        },
        "status": "completed",
        "performedDateTime": "2024-05-17",
        "subject": {
          "reference": "urn:uuid:",
          "display": "Aniela Prażmo"
        }
      }
    },
    {
      "fullUrl": "urn:uuid:d3f52855-b05f-41ce-89ff-8bd6f4bd0775",
      "resource": {
        "resourceType": "Procedure",
        "id": "d3f52855-b05f-41ce-89ff-8bd6f4bd0775",
        "meta": {
          "profile": [
            "http://hl7.org/fhir/uv/ips/StructureDefinition/Procedure-uv-ips"
          ]
        },
        "code": {
          "coding": [
            {
              "code": "370789001",
              "system": "http://snomed.info/sct",
              "display": "Development of individualized plan of care (procedure)"
            }
          ],
          "text": "Development of individualized plan of care"
        },
        "text": {
          "status": "generated",
          "div": "<div xmlns=\"http://www.w3.org/1999/xhtml\"><table class=\"hl7__ips\"><tr><td>Development of individualized plan of care</td><td><span class=\"nb\">17-May-2024</span></td><td>-</td></tr></table></div>"
        },
        "status": "completed",
        "performedDateTime": "2024-05-17",
        "subject": {
          "reference": "urn:uuid:",
          "display": "Aniela Prażmo"
        }
      }
    },
    {
      "fullUrl": "urn:uuid:1f53e07f-6af8-4c21-9bd2-9a5c5e229197",
      "resource": {
        "resourceType": "Procedure",
        "id": "1f53e07f-6af8-4c21-9bd2-9a5c5e229197",
        "meta": {
          "profile": [
            "http://hl7.org/fhir/uv/ips/StructureDefinition/Procedure-uv-ips"
          ]
        },
        "code": {
          "coding": [
            {
              "code": "288086009",
              "system": "http://snomed.info/sct",
              "display": "Suture open wound"
            }
          ],
          "text": "Suture open wound"
        },
        "reasonCode": [
          {
            "coding": [
              {
                "code": "370247008",
                "system": "http://snomed.info/sct",
                "display": "Facial laceration"
              }
            ]
          }
        ],
        "text": {
          "status": "generated",
          "div": "<div xmlns=\"http://www.w3.org/1999/xhtml\"><table class=\"hl7__ips\"><tr><td>Suture open wound</td><td><span class=\"nb\">07-May-2022</span></td><td>Facial laceration</td></tr></table></div>"
        },
        "status": "completed",
        "performedDateTime": "2022-05-07",
        "subject": {
          "reference": "urn:uuid:",
          "display": "Aniela Prażmo"
        }
      }
    },
    {
      "fullUrl": "urn:uuid:81966d1f-39f4-4d5a-afae-e7f65903828e",
      "resource": {
        "resourceType": "Procedure",
        "id": "81966d1f-39f4-4d5a-afae-e7f65903828e",
        "meta": {
          "profile": [
            "http://hl7.org/fhir/uv/ips/StructureDefinition/Procedure-uv-ips"
          ]
        },
        "code": {
          "coding": [
            {
              "code": "60027007",
              "system": "http://snomed.info/sct",
              "display": "Radiography of wrist (procedure)"
            }
          ],
          "text": "Radiography of wrist"
        },
        "text": {
          "status": "generated",
          "div": "<div xmlns=\"http://www.w3.org/1999/xhtml\"><table class=\"hl7__ips\"><tr><td>Radiography of wrist</td><td><span class=\"nb\">05-Mar-2020</span></td><td>-</td></tr></table></div>"
        },
        "status": "completed",
        "performedDateTime": "2020-03-05",
        "subject": {
          "reference": "urn:uuid:",
          "display": "Aniela Prażmo"
        }
      }
    },
    {
      "fullUrl": "urn:uuid:5e016fa5-1699-41c5-8240-9bb4b6ccaf75",
      "resource": {
        "resourceType": "Procedure",
        "id": "5e016fa5-1699-41c5-8240-9bb4b6ccaf75",
        "meta": {
          "profile": [
            "http://hl7.org/fhir/uv/ips/StructureDefinition/Procedure-uv-ips"
          ]
        },
        "code": {
          "coding": [
            {
              "code": "312681000",
              "system": "http://snomed.info/sct",
              "display": "Bone density scan (procedure)"
            }
          ],
          "text": "Bone density scan"
        },
        "reasonCode": [
          {
            "coding": [
              {
                "code": "263102004",
                "system": "http://snomed.info/sct",
                "display": "Fracture subluxation of wrist"
              }
            ]
          }
        ],
        "text": {
          "status": "generated",
          "div": "<div xmlns=\"http://www.w3.org/1999/xhtml\"><table class=\"hl7__ips\"><tr><td>Bone density scan</td><td><span class=\"nb\">05-Mar-2020</span></td><td>Fracture subluxation of wrist</td></tr></table></div>"
        },
        "status": "completed",
        "performedDateTime": "2020-03-05",
        "subject": {
          "reference": "urn:uuid:",
          "display": "Aniela Prażmo"
        }
      }
    },
    {
      "fullUrl": "urn:uuid:a8342225-76e0-4ef3-9356-01aad8a017f3",
      "resource": {
        "resourceType": "Procedure",
        "id": "a8342225-76e0-4ef3-9356-01aad8a017f3",
        "meta": {
          "profile": [
            "http://hl7.org/fhir/uv/ips/StructureDefinition/Procedure-uv-ips"
          ]
        },
        "code": {
          "coding": [
            {
              "code": "243063003",
              "system": "http://snomed.info/sct",
              "display": "Postoperative procedure education (procedure)"
            }
          ],
          "text": "Postoperative procedure education"
        },
        "reasonCode": [
          {
            "coding": [
              {
                "code": "399261000",
                "system": "http://snomed.info/sct",
                "display": "History of coronary artery bypass grafting (situation)"
              }
            ]
          }
        ],
        "text": {
          "status": "generated",
          "div": "<div xmlns=\"http://www.w3.org/1999/xhtml\"><table class=\"hl7__ips\"><tr><td>Postoperative procedure education</td><td><span class=\"nb\">26-May-2017</span></td><td>History of coronary artery bypass grafting (situation)</td></tr></table></div>"
        },
        "status": "completed",
        "performedDateTime": "2017-05-26",
        "subject": {
          "reference": "urn:uuid:",
          "display": "Aniela Prażmo"
        }
      }
    },
    {
      "fullUrl": "urn:uuid:b74a0d8d-3714-42af-9d9e-325019b784da",
      "resource": {
        "resourceType": "Procedure",
        "id": "b74a0d8d-3714-42af-9d9e-325019b784da",
        "meta": {
          "profile": [
            "http://hl7.org/fhir/uv/ips/StructureDefinition/Procedure-uv-ips"
          ]
        },
        "code": {
          "coding": [
            {
              "code": "252482003",
              "system": "http://snomed.info/sct",
              "display": "Stair-climbing test (procedure)"
            }
          ],
          "text": "Stair-climbing test"
        },
        "reasonCode": [
          {
            "coding": [
              {
                "code": "399261000",
                "system": "http://snomed.info/sct",
                "display": "History of coronary artery bypass grafting (situation)"
              }
            ]
          }
        ],
        "text": {
          "status": "generated",
          "div": "<div xmlns=\"http://www.w3.org/1999/xhtml\"><table class=\"hl7__ips\"><tr><td>Stair-climbing test</td><td><span class=\"nb\">26-May-2017</span></td><td>History of coronary artery bypass grafting (situation)</td></tr></table></div>"
        },
        "status": "completed",
        "performedDateTime": "2017-05-26",
        "subject": {
          "reference": "urn:uuid:",
          "display": "Aniela Prażmo"
        }
      }
    },
    {
      "fullUrl": "urn:uuid:a9092e5e-cf97-4c77-8a79-37fbc4bb284a",
      "resource": {
        "resourceType": "Procedure",
        "id": "a9092e5e-cf97-4c77-8a79-37fbc4bb284a",
        "meta": {
          "profile": [
            "http://hl7.org/fhir/uv/ips/StructureDefinition/Procedure-uv-ips"
          ]
        },
        "code": {
          "coding": [
            {
              "code": "302761001",
              "system": "http://snomed.info/sct",
              "display": "Walking exercise test (procedure)"
            }
          ],
          "text": "Walking exercise test"
        },
        "reasonCode": [
          {
            "coding": [
              {
                "code": "399261000",
                "system": "http://snomed.info/sct",
                "display": "History of coronary artery bypass grafting (situation)"
              }
            ]
          }
        ],
        "text": {
          "status": "generated",
          "div": "<div xmlns=\"http://www.w3.org/1999/xhtml\"><table class=\"hl7__ips\"><tr><td>Walking exercise test</td><td><span class=\"nb\">26-May-2017</span></td><td>History of coronary artery bypass grafting (situation)</td></tr></table></div>"
        },
        "status": "completed",
        "performedDateTime": "2017-05-26",
        "subject": {
          "reference": "urn:uuid:",
          "display": "Aniela Prażmo"
        }
      }
    },
    {
      "fullUrl": "urn:uuid:6319e4c7-1ece-476d-9703-17987fa761fd",
      "resource": {
        "resourceType": "Procedure",
        "id": "6319e4c7-1ece-476d-9703-17987fa761fd",
        "meta": {
          "profile": [
            "http://hl7.org/fhir/uv/ips/StructureDefinition/Procedure-uv-ips"
          ]
        },
        "code": {
          "coding": [
            {
              "code": "306706006",
              "system": "http://snomed.info/sct",
              "display": "Discharge to ward (procedure)"
            }
          ],
          "text": "Discharge to ward"
        },
        "text": {
          "status": "generated",
          "div": "<div xmlns=\"http://www.w3.org/1999/xhtml\"><table class=\"hl7__ips\"><tr><td>Discharge to ward</td><td><span class=\"nb\">26-May-2017</span></td><td>-</td></tr></table></div>"
        },
        "status": "completed",
        "performedDateTime": "2017-05-26",
        "subject": {
          "reference": "urn:uuid:",
          "display": "Aniela Prażmo"
        }
      }
    },
    {
      "fullUrl": "urn:uuid:807ae495-fc18-453b-9abf-4892682e3c79",
      "resource": {
        "resourceType": "Procedure",
        "id": "807ae495-fc18-453b-9abf-4892682e3c79",
        "meta": {
          "profile": [
            "http://hl7.org/fhir/uv/ips/StructureDefinition/Procedure-uv-ips"
          ]
        },
        "code": {
          "coding": [
            {
              "code": "308283009",
              "system": "http://snomed.info/sct",
              "display": "Discharge from hospital (procedure)"
            }
          ],
          "text": "Discharge from hospital"
        },
        "reasonCode": [
          {
            "coding": [
              {
                "code": "399261000",
                "system": "http://snomed.info/sct",
                "display": "History of coronary artery bypass grafting (situation)"
              }
            ]
          }
        ],
        "text": {
          "status": "generated",
          "div": "<div xmlns=\"http://www.w3.org/1999/xhtml\"><table class=\"hl7__ips\"><tr><td>Discharge from hospital</td><td><span class=\"nb\">26-May-2017</span></td><td>History of coronary artery bypass grafting (situation)</td></tr></table></div>"
        },
        "status": "completed",
        "performedDateTime": "2017-05-26",
        "subject": {
          "reference": "urn:uuid:",
          "display": "Aniela Prażmo"
        }
      }
    },
    {
      "fullUrl": "urn:uuid:2638be20-9a77-4f29-b180-87a2cb1f3710",
      "resource": {
        "resourceType": "Procedure",
        "id": "2638be20-9a77-4f29-b180-87a2cb1f3710",
        "meta": {
          "profile": [
            "http://hl7.org/fhir/uv/ips/StructureDefinition/Procedure-uv-ips"
          ]
        },
        "code": {
          "coding": [
            {
              "code": "29303009",
              "system": "http://snomed.info/sct",
              "display": "Electrocardiographic procedure (procedure)"
            }
          ],
          "text": "Electrocardiographic procedure"
        },
        "text": {
          "status": "generated",
          "div": "<div xmlns=\"http://www.w3.org/1999/xhtml\"><table class=\"hl7__ips\"><tr><td>Electrocardiographic procedure</td><td><span class=\"nb\">25-May-2017</span></td><td>-</td></tr></table></div>"
        },
        "status": "completed",
        "performedDateTime": "2017-05-25",
        "subject": {
          "reference": "urn:uuid:",
          "display": "Aniela Prażmo"
        }
      }
    },
    {
      "fullUrl": "urn:uuid:c6078403-2e88-44a2-bd08-bb49b8b4eeb3",
      "resource": {
        "resourceType": "Procedure",
        "id": "c6078403-2e88-44a2-bd08-bb49b8b4eeb3",
        "meta": {
          "profile": [
            "http://hl7.org/fhir/uv/ips/StructureDefinition/Procedure-uv-ips"
          ]
        },
        "code": {
          "coding": [
            {
              "code": "399208008",
              "system": "http://snomed.info/sct",
              "display": "Plain chest X-ray (procedure)"
            }
          ],
          "text": "Plain X-ray of chest"
        },
        "text": {
          "status": "generated",
          "div": "<div xmlns=\"http://www.w3.org/1999/xhtml\"><table class=\"hl7__ips\"><tr><td>Plain X-ray of chest</td><td><span class=\"nb\">25-May-2017</span></td><td>-</td></tr></table></div>"
        },
        "status": "completed",
        "performedDateTime": "2017-05-25",
        "subject": {
          "reference": "urn:uuid:",
          "display": "Aniela Prażmo"
        }
      }
    },
    {
      "fullUrl": "urn:uuid:71d5f4ba-40bf-44bc-ad64-5c6df2ed4714",
      "resource": {
        "resourceType": "Procedure",
        "id": "71d5f4ba-40bf-44bc-ad64-5c6df2ed4714",
        "meta": {
          "profile": [
            "http://hl7.org/fhir/uv/ips/StructureDefinition/Procedure-uv-ips"
          ]
        },
        "code": {
          "coding": [
            {
              "code": "8290005",
              "system": "http://snomed.info/sct",
              "display": "Induced cardioplegia (procedure)"
            }
          ],
          "text": "Induced cardioplegia"
        },
        "text": {
          "status": "generated",
          "div": "<div xmlns=\"http://www.w3.org/1999/xhtml\"><table class=\"hl7__ips\"><tr><td>Induced cardioplegia</td><td><span class=\"nb\">22-May-2017</span></td><td>-</td></tr></table></div>"
        },
        "status": "completed",
        "performedDateTime": "2017-05-22",
        "subject": {
          "reference": "urn:uuid:",
          "display": "Aniela Prażmo"
        }
      }
    },
    {
      "fullUrl": "urn:uuid:3ee5ae41-1999-4c48-9165-c43b546e67e0",
      "resource": {
        "resourceType": "Procedure",
        "id": "3ee5ae41-1999-4c48-9165-c43b546e67e0",
        "meta": {
          "profile": [
            "http://hl7.org/fhir/uv/ips/StructureDefinition/Procedure-uv-ips"
          ]
        },
        "code": {
          "coding": [
            {
              "code": "23745001",
              "system": "http://snomed.info/sct",
              "display": "Documentation procedure (procedure)"
            }
          ],
          "text": "Documentation procedure"
        },
        "text": {
          "status": "generated",
          "div": "<div xmlns=\"http://www.w3.org/1999/xhtml\"><table class=\"hl7__ips\"><tr><td>Documentation procedure</td><td><span class=\"nb\">22-May-2017</span></td><td>-</td></tr></table></div>"
        },
        "status": "completed",
        "performedDateTime": "2017-05-22",
        "subject": {
          "reference": "urn:uuid:",
          "display": "Aniela Prażmo"
        }
      }
    },
    {
      "fullUrl": "urn:uuid:67649e4b-68c1-4b2c-a8db-c5f1f546ae1b",
      "resource": {
        "resourceType": "Procedure",
        "id": "67649e4b-68c1-4b2c-a8db-c5f1f546ae1b",
        "meta": {
          "profile": [
            "http://hl7.org/fhir/uv/ips/StructureDefinition/Procedure-uv-ips"
          ]
        },
        "code": {
          "coding": [
            {
              "code": "232717009",
              "system": "http://snomed.info/sct",
              "display": "Coronary artery bypass grafting (procedure)"
            }
          ],
          "text": "Coronary artery bypass graft"
        },
        "reasonCode": [
          {
            "coding": [
              {
                "code": "414545008",
                "system": "http://snomed.info/sct",
                "display": "Ischemic heart disease (disorder)"
              }
            ]
          }
        ],
        "text": {
          "status": "generated",
          "div": "<div xmlns=\"http://www.w3.org/1999/xhtml\"><table class=\"hl7__ips\"><tr><td>Coronary artery bypass graft</td><td><span class=\"nb\">22-May-2017</span></td><td>Ischemic heart disease (disorder)</td></tr></table></div>"
        },
        "status": "completed",
        "performedDateTime": "2017-05-22",
        "subject": {
          "reference": "urn:uuid:",
          "display": "Aniela Prażmo"
        }
      }
    },
    {
      "fullUrl": "urn:uuid:e50ecb8d-505e-455e-ab60-05f196209431",
      "resource": {
        "resourceType": "Procedure",
        "id": "e50ecb8d-505e-455e-ab60-05f196209431",
        "meta": {
          "profile": [
            "http://hl7.org/fhir/uv/ips/StructureDefinition/Procedure-uv-ips"
          ]
        },
        "code": {
          "coding": [
            {
              "code": "233553003",
              "system": "http://snomed.info/sct",
              "display": "Vascular cannula removal (procedure)"
            }
          ],
          "text": "Vascular cannula removal"
        },
        "text": {
          "status": "generated",
          "div": "<div xmlns=\"http://www.w3.org/1999/xhtml\"><table class=\"hl7__ips\"><tr><td>Vascular cannula removal</td><td><span class=\"nb\">22-May-2017</span></td><td>-</td></tr></table></div>"
        },
        "status": "completed",
        "performedDateTime": "2017-05-22",
        "subject": {
          "reference": "urn:uuid:",
          "display": "Aniela Prażmo"
        }
      }
    },
    {
      "fullUrl": "urn:uuid:3b6e8cdb-7125-4fdb-be05-5579a254a697",
      "resource": {
        "resourceType": "Procedure",
        "id": "3b6e8cdb-7125-4fdb-be05-5579a254a697",
        "meta": {
          "profile": [
            "http://hl7.org/fhir/uv/ips/StructureDefinition/Procedure-uv-ips"
          ]
        },
        "code": {
          "coding": [
            {
              "code": "271280005",
              "system": "http://snomed.info/sct",
              "display": "Removal of endotracheal tube (procedure)"
            }
          ],
          "text": "Removal of endotracheal tube"
        },
        "text": {
          "status": "generated",
          "div": "<div xmlns=\"http://www.w3.org/1999/xhtml\"><table class=\"hl7__ips\"><tr><td>Removal of endotracheal tube</td><td><span class=\"nb\">22-May-2017</span></td><td>-</td></tr></table></div>"
        },
        "status": "completed",
        "performedDateTime": "2017-05-22",
        "subject": {
          "reference": "urn:uuid:",
          "display": "Aniela Prażmo"
        }
      }
    },
    {
      "fullUrl": "urn:uuid:d1d1bf1e-fa9d-401b-8bd3-f7438d04484f",
      "resource": {
        "resourceType": "Procedure",
        "id": "d1d1bf1e-fa9d-401b-8bd3-f7438d04484f",
        "meta": {
          "profile": [
            "http://hl7.org/fhir/uv/ips/StructureDefinition/Procedure-uv-ips"
          ]
        },
        "code": {
          "coding": [
            {
              "code": "301882004",
              "system": "http://snomed.info/sct",
              "display": "Placement of aortic cross clamp (procedure)"
            }
          ],
          "text": "Placement of aortic cross clamp"
        },
        "text": {
          "status": "generated",
          "div": "<div xmlns=\"http://www.w3.org/1999/xhtml\"><table class=\"hl7__ips\"><tr><td>Placement of aortic cross clamp</td><td><span class=\"nb\">22-May-2017</span></td><td>-</td></tr></table></div>"
        },
        "status": "completed",
        "performedDateTime": "2017-05-22",
        "subject": {
          "reference": "urn:uuid:",
          "display": "Aniela Prażmo"
        }
      }
    },
    {
      "fullUrl": "urn:uuid:3cae1152-8952-4c2c-8912-4d14066924e3",
      "resource": {
        "resourceType": "Procedure",
        "id": "3cae1152-8952-4c2c-8912-4d14066924e3",
        "meta": {
          "profile": [
            "http://hl7.org/fhir/uv/ips/StructureDefinition/Procedure-uv-ips"
          ]
        },
        "code": {
          "coding": [
            {
              "code": "301884003",
              "system": "http://snomed.info/sct",
              "display": "Removal of aortic cross clamp (procedure)"
            }
          ],
          "text": "Removal of aortic cross clamp"
        },
        "text": {
          "status": "generated",
          "div": "<div xmlns=\"http://www.w3.org/1999/xhtml\"><table class=\"hl7__ips\"><tr><td>Removal of aortic cross clamp</td><td><span class=\"nb\">22-May-2017</span></td><td>-</td></tr></table></div>"
        },
        "status": "completed",
        "performedDateTime": "2017-05-22",
        "subject": {
          "reference": "urn:uuid:",
          "display": "Aniela Prażmo"
        }
      }
    },
    {
      "fullUrl": "urn:uuid:fdb95ef5-453c-4d98-908b-ebd564accbdd",
      "resource": {
        "resourceType": "Procedure",
        "id": "fdb95ef5-453c-4d98-908b-ebd564accbdd",
        "meta": {
          "profile": [
            "http://hl7.org/fhir/uv/ips/StructureDefinition/Procedure-uv-ips"
          ]
        },
        "code": {
          "coding": [
            {
              "code": "359672006",
              "system": "http://snomed.info/sct",
              "display": "Median sternotomy (procedure)"
            }
          ],
          "text": "Median sternotomy"
        },
        "text": {
          "status": "generated",
          "div": "<div xmlns=\"http://www.w3.org/1999/xhtml\"><table class=\"hl7__ips\"><tr><td>Median sternotomy</td><td><span class=\"nb\">22-May-2017</span></td><td>-</td></tr></table></div>"
        },
        "status": "completed",
        "performedDateTime": "2017-05-22",
        "subject": {
          "reference": "urn:uuid:",
          "display": "Aniela Prażmo"
        }
      }
    },
    {
      "fullUrl": "urn:uuid:48311c31-2493-45ce-89d2-fd38ca3bd381",
      "resource": {
        "resourceType": "Procedure",
        "id": "48311c31-2493-45ce-89d2-fd38ca3bd381",
        "meta": {
          "profile": [
            "http://hl7.org/fhir/uv/ips/StructureDefinition/Procedure-uv-ips"
          ]
        },
        "code": {
          "coding": [
            {
              "code": "40701008",
              "system": "http://snomed.info/sct",
              "display": "Echocardiography (procedure)"
            }
          ],
          "text": "Echocardiography"
        },
        "text": {
          "status": "generated",
          "div": "<div xmlns=\"http://www.w3.org/1999/xhtml\"><table class=\"hl7__ips\"><tr><td>Echocardiography</td><td><span class=\"nb\">21-May-2017</span></td><td>-</td></tr></table></div>"
        },
        "status": "completed",
        "performedDateTime": "2017-05-21",
        "subject": {
          "reference": "urn:uuid:",
          "display": "Aniela Prażmo"
        }
      }
    },
    {
      "fullUrl": "urn:uuid:0fd925fd-21ba-432b-b263-2c3beb8f4183",
      "resource": {
        "resourceType": "Procedure",
        "id": "0fd925fd-21ba-432b-b263-2c3beb8f4183",
        "meta": {
          "profile": [
            "http://hl7.org/fhir/uv/ips/StructureDefinition/Procedure-uv-ips"
          ]
        },
        "code": {
          "coding": [
            {
              "code": "42825003",
              "system": "http://snomed.info/sct",
              "display": "Cannulation (procedure)"
            }
          ],
          "text": "Cannulation"
        },
        "text": {
          "status": "generated",
          "div": "<div xmlns=\"http://www.w3.org/1999/xhtml\"><table class=\"hl7__ips\"><tr><td>Cannulation</td><td><span class=\"nb\">21-May-2017</span></td><td>-</td></tr></table></div>"
        },
        "status": "completed",
        "performedDateTime": "2017-05-21",
        "subject": {
          "reference": "urn:uuid:",
          "display": "Aniela Prażmo"
        }
      }
    },
    {
      "fullUrl": "urn:uuid:c8a87e5d-fc6b-414a-83a2-ae1e470cf477",
      "resource": {
        "resourceType": "Procedure",
        "id": "c8a87e5d-fc6b-414a-83a2-ae1e470cf477",
        "meta": {
          "profile": [
            "http://hl7.org/fhir/uv/ips/StructureDefinition/Procedure-uv-ips"
          ]
        },
        "code": {
          "coding": [
            {
              "code": "44608003",
              "system": "http://snomed.info/sct",
              "display": "Blood group typing (procedure)"
            }
          ],
          "text": "Blood group typing"
        },
        "text": {
          "status": "generated",
          "div": "<div xmlns=\"http://www.w3.org/1999/xhtml\"><table class=\"hl7__ips\"><tr><td>Blood group typing</td><td><span class=\"nb\">21-May-2017</span></td><td>-</td></tr></table></div>"
        },
        "status": "completed",
        "performedDateTime": "2017-05-21",
        "subject": {
          "reference": "urn:uuid:",
          "display": "Aniela Prażmo"
        }
      }
    },
    {
      "fullUrl": "urn:uuid:0fec6179-73ae-48af-9ac6-b1e3735a1c13",
      "resource": {
        "resourceType": "Procedure",
        "id": "0fec6179-73ae-48af-9ac6-b1e3735a1c13",
        "meta": {
          "profile": [
            "http://hl7.org/fhir/uv/ips/StructureDefinition/Procedure-uv-ips"
          ]
        },
        "code": {
          "coding": [
            {
              "code": "52765003",
              "system": "http://snomed.info/sct",
              "display": "Intubation"
            }
          ],
          "text": "Intubation"
        },
        "text": {
          "status": "generated",
          "div": "<div xmlns=\"http://www.w3.org/1999/xhtml\"><table class=\"hl7__ips\"><tr><td>Intubation</td><td><span class=\"nb\">21-May-2017</span></td><td>-</td></tr></table></div>"
        },
        "status": "completed",
        "performedDateTime": "2017-05-21",
        "subject": {
          "reference": "urn:uuid:",
          "display": "Aniela Prażmo"
        }
      }
    },
    {
      "fullUrl": "urn:uuid:ba53c4a1-af89-42b5-8e5c-92d87dbea3a4",
      "resource": {
        "resourceType": "Procedure",
        "id": "ba53c4a1-af89-42b5-8e5c-92d87dbea3a4",
        "meta": {
          "profile": [
            "http://hl7.org/fhir/uv/ips/StructureDefinition/Procedure-uv-ips"
          ]
        },
        "code": {
          "coding": [
            {
              "code": "63697000",
              "system": "http://snomed.info/sct",
              "display": "Cardiopulmonary bypass operation (procedure)"
            }
          ],
          "text": "Cardiopulmonary bypass operation"
        },
        "text": {
          "status": "generated",
          "div": "<div xmlns=\"http://www.w3.org/1999/xhtml\"><table class=\"hl7__ips\"><tr><td>Cardiopulmonary bypass operation</td><td><span class=\"nb\">21-May-2017</span></td><td>-</td></tr></table></div>"
        },
        "status": "completed",
        "performedDateTime": "2017-05-21",
        "subject": {
          "reference": "urn:uuid:",
          "display": "Aniela Prażmo"
        }
      }
    },
    {
      "fullUrl": "urn:uuid:e170d623-2a3c-4233-8097-0079f2faefc6",
      "resource": {
        "resourceType": "Procedure",
        "id": "e170d623-2a3c-4233-8097-0079f2faefc6",
        "meta": {
          "profile": [
            "http://hl7.org/fhir/uv/ips/StructureDefinition/Procedure-uv-ips"
          ]
        },
        "code": {
          "coding": [
            {
              "code": "65677008",
              "system": "http://snomed.info/sct",
              "display": "Pulmonary catheterization with Swan-Ganz catheter (procedure)"
            }
          ],
          "text": "Pulmonary catheterization with Swan-Ganz catheter"
        },
        "text": {
          "status": "generated",
          "div": "<div xmlns=\"http://www.w3.org/1999/xhtml\"><table class=\"hl7__ips\"><tr><td>Pulmonary catheterization with Swan-Ganz catheter</td><td><span class=\"nb\">21-May-2017</span></td><td>-</td></tr></table></div>"
        },
        "status": "completed",
        "performedDateTime": "2017-05-21",
        "subject": {
          "reference": "urn:uuid:",
          "display": "Aniela Prażmo"
        }
      }
    },
    {
      "fullUrl": "urn:uuid:184b88db-be21-49d6-bc23-d186630efc38",
      "resource": {
        "resourceType": "Procedure",
        "id": "184b88db-be21-49d6-bc23-d186630efc38",
        "meta": {
          "profile": [
            "http://hl7.org/fhir/uv/ips/StructureDefinition/Procedure-uv-ips"
          ]
        },
        "code": {
          "coding": [
            {
              "code": "110467000",
              "system": "http://snomed.info/sct",
              "display": "Pre-surgery testing (procedure)"
            }
          ],
          "text": "Pre-surgery testing"
        },
        "text": {
          "status": "generated",
          "div": "<div xmlns=\"http://www.w3.org/1999/xhtml\"><table class=\"hl7__ips\"><tr><td>Pre-surgery testing</td><td><span class=\"nb\">21-May-2017</span></td><td>-</td></tr></table></div>"
        },
        "status": "completed",
        "performedDateTime": "2017-05-21",
        "subject": {
          "reference": "urn:uuid:",
          "display": "Aniela Prażmo"
        }
      }
    },
    {
      "fullUrl": "urn:uuid:3ba12ef4-9566-4454-b13f-efb83fc42809",
      "resource": {
        "resourceType": "Procedure",
        "id": "3ba12ef4-9566-4454-b13f-efb83fc42809",
        "meta": {
          "profile": [
            "http://hl7.org/fhir/uv/ips/StructureDefinition/Procedure-uv-ips"
          ]
        },
        "code": {
          "coding": [
            {
              "code": "223495004",
              "system": "http://snomed.info/sct",
              "display": "Preparation of patient for procedure (regime/therapy)"
            }
          ],
          "text": "Preparation of patient for procedure"
        },
        "text": {
          "status": "generated",
          "div": "<div xmlns=\"http://www.w3.org/1999/xhtml\"><table class=\"hl7__ips\"><tr><td>Preparation of patient for procedure</td><td><span class=\"nb\">21-May-2017</span></td><td>-</td></tr></table></div>"
        },
        "status": "completed",
        "performedDateTime": "2017-05-21",
        "subject": {
          "reference": "urn:uuid:",
          "display": "Aniela Prażmo"
        }
      }
    },
    {
      "fullUrl": "urn:uuid:334ab3fc-3e55-4370-8e97-7cbe0ca5e6e3",
      "resource": {
        "resourceType": "Procedure",
        "id": "334ab3fc-3e55-4370-8e97-7cbe0ca5e6e3",
        "meta": {
          "profile": [
            "http://hl7.org/fhir/uv/ips/StructureDefinition/Procedure-uv-ips"
          ]
        },
        "code": {
          "coding": [
            {
              "code": "392247006",
              "system": "http://snomed.info/sct",
              "display": "Insertion of catheter into artery (procedure)"
            }
          ],
          "text": "Insertion of catheter into artery"
        },
        "text": {
          "status": "generated",
          "div": "<div xmlns=\"http://www.w3.org/1999/xhtml\"><table class=\"hl7__ips\"><tr><td>Insertion of catheter into artery</td><td><span class=\"nb\">21-May-2017</span></td><td>-</td></tr></table></div>"
        },
        "status": "completed",
        "performedDateTime": "2017-05-21",
        "subject": {
          "reference": "urn:uuid:",
          "display": "Aniela Prażmo"
        }
      }
    },
    {
      "fullUrl": "urn:uuid:a56a0ebc-1cef-4c32-83ac-f867e6518024",
      "resource": {
        "resourceType": "Procedure",
        "id": "a56a0ebc-1cef-4c32-83ac-f867e6518024",
        "meta": {
          "profile": [
            "http://hl7.org/fhir/uv/ips/StructureDefinition/Procedure-uv-ips"
          ]
        },
        "code": {
          "coding": [
            {
              "code": "410538000",
              "system": "http://snomed.info/sct",
              "display": "Scheduling (procedure)"
            }
          ],
          "text": "Scheduling"
        },
        "reasonCode": [
          {
            "coding": [
              {
                "code": "274531002",
                "system": "http://snomed.info/sct",
                "display": "Abnormal findings diagnostic imaging heart+coronary circulat (finding)"
              }
            ]
          }
        ],
        "text": {
          "status": "generated",
          "div": "<div xmlns=\"http://www.w3.org/1999/xhtml\"><table class=\"hl7__ips\"><tr><td>Scheduling</td><td><span class=\"nb\">21-May-2017</span></td><td>Abnormal findings diagnostic imaging heart+coronary circulat (finding)</td></tr></table></div>"
        },
        "status": "completed",
        "performedDateTime": "2017-05-21",
        "subject": {
          "reference": "urn:uuid:",
          "display": "Aniela Prażmo"
        }
      }
    },
    {
      "fullUrl": "urn:uuid:495c9089-ddc9-4058-b05b-80362abb0b28",
      "resource": {
        "resourceType": "Procedure",
        "id": "495c9089-ddc9-4058-b05b-80362abb0b28",
        "meta": {
          "profile": [
            "http://hl7.org/fhir/uv/ips/StructureDefinition/Procedure-uv-ips"
          ]
        },
        "code": {
          "coding": [
            {
              "code": "410770002",
              "system": "http://snomed.info/sct",
              "display": "Administration of anesthesia for procedure (procedure)"
            }
          ],
          "text": "Administration of anesthesia for procedure"
        },
        "text": {
          "status": "generated",
          "div": "<div xmlns=\"http://www.w3.org/1999/xhtml\"><table class=\"hl7__ips\"><tr><td>Administration of anesthesia for procedure</td><td><span class=\"nb\">21-May-2017</span></td><td>-</td></tr></table></div>"
        },
        "status": "completed",
        "performedDateTime": "2017-05-21",
        "subject": {
          "reference": "urn:uuid:",
          "display": "Aniela Prażmo"
        }
      }
    },
    {
      "fullUrl": "urn:uuid:c908312f-48e4-433c-ad19-22868a9c69f1",
      "resource": {
        "resourceType": "Procedure",
        "id": "c908312f-48e4-433c-ad19-22868a9c69f1",
        "meta": {
          "profile": [
            "http://hl7.org/fhir/uv/ips/StructureDefinition/Procedure-uv-ips"
          ]
        },
        "code": {
          "coding": [
            {
              "code": "709138001",
              "system": "http://snomed.info/sct",
              "display": "Notification of treatment plan (procedure)"
            }
          ],
          "text": "Notification of treatment plan"
        },
        "text": {
          "status": "generated",
          "div": "<div xmlns=\"http://www.w3.org/1999/xhtml\"><table class=\"hl7__ips\"><tr><td>Notification of treatment plan</td><td><span class=\"nb\">21-May-2017</span></td><td>-</td></tr></table></div>"
        },
        "status": "completed",
        "performedDateTime": "2017-05-21",
        "subject": {
          "reference": "urn:uuid:",
          "display": "Aniela Prażmo"
        }
      }
    },
    {
      "fullUrl": "urn:uuid:7e87041c-d3e5-4d36-980c-b4c967ec0a51",
      "resource": {
        "resourceType": "AllergyIntolerance",
        "id": "7e87041c-d3e5-4d36-980c-b4c967ec0a51",
        "meta": {
          "profile": [
            "http://hl7.eu/fhir/eps/StructureDefinition/allergyIntolerance-eu-eps"
          ]
        },
        "code": {
          "text": ""
        },
        "clinicalStatus": {
          "coding": [
            {
              "code": "active",
              "system": "http://terminology.hl7.org/CodeSystem/allergyintolerance-clinical"
            }
          ]
        },
        "text": {
          "status": "generated",
          "div": "<div xmlns=\"http://www.w3.org/1999/xhtml\"><table class=\"hl7__ips\"><tr><th>Allergy/Intolerance</th><th>Onset Date</th><th>Status</th><th>Type</th><th>Reaction</th></tr><tr><td></td><td>?</td><td>active</td><td>?</td><td></td></tr></table></div>"
        },
        "verificationStatus": {
          "coding": [
            {
              "code": "confirmed",
              "system": "http://terminology.hl7.org/CodeSystem/allergyintolerance-verification"
            }
          ]
        },
        "patient": {
          "reference": "urn:uuid:b4ca464b-a38d-406a-a1fc-1266c1f70e3f",
          "display": "Aniela Prażmo"
        },
        "_onsetDateTime": {
          "extension": [
            {
              "url": "http://hl7.org/fhir/StructureDefinition/data-absent-reason",
              "valueCode": "unknown"
            }
          ]
        }
      }
    },
    {
      "fullUrl": "urn:uuid:19456473-bfb0-4c0e-ba6b-60d068242a4c",
      "resource": {
        "resourceType": "CarePlan",
        "id": "19456473-bfb0-4c0e-ba6b-60d068242a4c",
        "category": [
          {
            "coding": [
              {
                "code": "assess-plan",
                "system": "http://terminology.hl7.org/CodeSystem/care-plan-category",
                "display": "Assessment and Plan"
              }
            ]
          }
        ],
        "activity": [
          {
            "detail": {
              "code": {
                "coding": [
                  {
                    "code": "736285004",
                    "system": "http://snomed.info/sct",
                    "display": "Hyperlipidemia clinical management plan (record artifact)"
                  }
                ]
              },
              "reasonCode": [
                {
                  "coding": [
                    {
                      "code": "55822004",
                      "system": "http://snomed.info/sct",
                      "display": "Hyperlipidemia"
                    }
                  ]
                }
              ],
              "status": "unknown",
              "description": "Hyperlipidemia clinical management plan",
              "kind": "Appointment"
            }
          }
        ],
        "period": {
          "start": "2017-05-27"
        },
        "goal": [
          {
            "reference": "urn:uuid:73b7314b-bd76-4c02-a005-762cc55d55b0"
          },
          {
            "reference": "urn:uuid:23953078-56d0-495a-8b73-4bcc6f1814ba"
          },
          {
            "reference": "urn:uuid:35dbd4c6-8284-4d26-9e94-5474dfc18f94"
          },
          {
            "reference": "urn:uuid:078da174-1b96-41e9-8f50-d22847db78f1"
          }
        ],
        "text": {
          "status": "generated",
          "div": "<div xmlns=\"http://www.w3.org/1999/xhtml\"><table class=\"hl7__ips first25\"><tr><th>Active Planned Care / Goals</th><th>Start Date</th><th>Reason</th></tr><tr><td>Hyperlipidemia clinical management plan</td><td><span class=\"nb\">27-May-2017</span></td><td>Hyperlipidemia</td></tr><tr><td><ul><li>Achieve and maintain LDL cholesterol below 70 mg/dL to reduce cardiovascular risk.</li><li>Maintain total cholesterol below 200 mg/dL.</li><li>Maintain HDL cholesterol above 50 mg/dL.</li><li>Maintain triglycerides below 150 mg/dL.</li></ul></td><td></td><td></td></tr></table></div>"
        },
        "status": "active",
        "intent": "plan",
        "subject": {
          "reference": "urn:uuid:b4ca464b-a38d-406a-a1fc-1266c1f70e3f",
          "display": "Aniela Prażmo"
        }
      }
    },
    {
      "fullUrl": "urn:uuid:9d7bee35-3fb8-4dc0-b0d1-f7cd843312dc",
      "resource": {
        "resourceType": "CarePlan",
        "id": "9d7bee35-3fb8-4dc0-b0d1-f7cd843312dc",
        "category": [
          {
            "coding": [
              {
                "code": "assess-plan",
                "system": "http://terminology.hl7.org/CodeSystem/care-plan-category",
                "display": "Assessment and Plan"
              }
            ]
          }
        ],
        "activity": [
          {
            "detail": {
              "code": {
                "coding": [
                  {
                    "code": "443402002",
                    "system": "http://snomed.info/sct",
                    "display": "Lifestyle education regarding hypertension (procedure)"
                  }
                ]
              },
              "reasonCode": [
                {
                  "coding": [
                    {
                      "code": "59621000",
                      "system": "http://snomed.info/sct",
                      "display": "Essential hypertension (disorder)"
                    }
                  ]
                }
              ],
              "status": "unknown",
              "description": "Lifestyle education regarding hypertension",
              "kind": "Appointment"
            }
          }
        ],
        "period": {
          "start": "1977-09-24"
        },
        "goal": [
          {
            "reference": "urn:uuid:abea9e8c-1af1-4930-aa8b-c2d97e49fef6"
          }
        ],
        "text": {
          "status": "generated",
          "div": "<div xmlns=\"http://www.w3.org/1999/xhtml\"><table class=\"hl7__ips first25\"><tr><th>Active Planned Care / Goals</th><th>Start Date</th><th>Reason</th></tr><tr><td>Lifestyle education regarding hypertension</td><td><span class=\"nb\">24-Sep-1977</span></td><td>Essential hypertension (disorder)</td></tr><tr><td><ul><li>Maintain blood pressure below 130/80 mmHg through lifestyle modifications.</li></ul></td><td></td><td></td></tr></table></div>"
        },
        "status": "active",
        "intent": "plan",
        "subject": {
          "reference": "urn:uuid:b4ca464b-a38d-406a-a1fc-1266c1f70e3f",
          "display": "Aniela Prażmo"
        }
      }
    },
    {
      "fullUrl": "urn:uuid:de8bb751-afb2-4cff-a797-bdbc9fe22489",
      "resource": {
        "resourceType": "ImmunizationRecommendation",
        "id": "de8bb751-afb2-4cff-a797-bdbc9fe22489",
        "recommendation": [
          {
            "vaccineCode": [
              {
                "coding": [
                  {
                    "code": "1181000221105",
                    "system": "http://snomed.info/sct",
                    "display": "Vaccine product containing only Influenza virus antigen (medicinal product)"
                  }
                ]
              }
            ],
            "dateCriterion": [
              {
                "code": {
                  "coding": [
                    {
                      "code": "30980-7",
                      "system": "http://loinc.org",
                      "display": "Date vaccine due"
                    }
                  ]
                },
                "value": "2025-10-01"
              }
            ],
            "targetDisease": {
              "coding": [
                {
                  "code": "6142004",
                  "system": "http://snomed.info/sct",
                  "display": "Influenza (disorder)"
                }
              ]
            },
            "series": "Annual seasonal influenza vaccination",
            "forecastStatus": {
              "coding": [
                {
                  "code": "due",
                  "system": "http://terminology.hl7.org/CodeSystem/immunization-recommendation-status",
                  "display": "Due"
                }
              ]
            }
          }
        ],
        "text": {
          "status": "generated",
          "div": "<div xmlns=\"http://www.w3.org/1999/xhtml\"><table class=\"hl7__ips\"><tr><td>Vaccine product containing only Influenza virus antigen (medicinal product)</td><td><span class=\"nb\">01-Oct-2025</span></td><td>Annual seasonal influenza vaccination</td></tr></table></div>"
        },
        "date": "2025-10-22",
        "patient": {
          "reference": "urn:uuid:b4ca464b-a38d-406a-a1fc-1266c1f70e3f",
          "display": "Aniela Prażmo"
        }
      }
    },
    {
      "fullUrl": "urn:uuid:4365ef93-d3b9-47f1-b3ce-2995c7e698ac",
      "resource": {
        "resourceType": "Observation",
        "id": "4365ef93-d3b9-47f1-b3ce-2995c7e698ac",
        "meta": {
          "profile": [
            "http://hl7.org/fhir/StructureDefinition/vitalsigns"
          ]
        },
        "category": [
          {
            "coding": [
              {
                "system": "http://terminology.hl7.org/CodeSystem/observation-category",
                "code": "vital-signs",
                "display": "Vital Signs"
              }
            ]
          }
        ],
        "valueQuantity": {
          "value": 166,
          "code": "cm",
          "unit": "cm"
        },
        "text": {
          "status": "generated",
          "div": "<div xmlns=\"http://www.w3.org/1999/xhtml\"><table class=\"hl7__ips\"><tr><th>Vital Sign</th><th>Date</th><th>Measurement</th></tr><tr><td>Body Height</td><td>05-Jul-2025</td><td>166 cm</td></tr></table></div>"
        },
        "status": "final",
        "code": {
          "coding": [
            {
              "code": "$8302-2",
              "system": "http://loinc.org",
              "display": "Body Height"
            }
          ]
        },
        "subject": {
          "reference": "urn:uuid:b4ca464b-a38d-406a-a1fc-1266c1f70e3f",
          "display": "Aniela Prażmo"
        },
        "effectiveDateTime": "2025-07-05"
      }
    },
    {
      "fullUrl": "urn:uuid:1cfc831b-507b-4b37-96d7-cd91fcfa81ba",
      "resource": {
        "resourceType": "Observation",
        "id": "1cfc831b-507b-4b37-96d7-cd91fcfa81ba",
        "meta": {
          "profile": [
            "http://hl7.org/fhir/StructureDefinition/vitalsigns"
          ]
        },
        "category": [
          {
            "coding": [
              {
                "system": "http://terminology.hl7.org/CodeSystem/observation-category",
                "code": "vital-signs",
                "display": "Vital Signs"
              }
            ]
          }
        ],
        "valueQuantity": {
          "value": 2,
          "code": "{score}",
          "unit": "{score}"
        },
        "text": {
          "status": "generated",
          "div": "<div xmlns=\"http://www.w3.org/1999/xhtml\"><table class=\"hl7__ips\"><tr><th>Vital Sign</th><th>Date</th><th>Measurement</th></tr><tr><td>Pain severity - 0-10 verbal numeric rating [Score] - Reported</td><td>05-Jul-2025</td><td>2 {score}</td></tr></table></div>"
        },
        "status": "final",
        "code": {
          "coding": [
            {
              "code": "$72514-3",
              "system": "http://loinc.org",
              "display": "Pain severity - 0-10 verbal numeric rating [Score] - Reported"
            }
          ]
        },
        "subject": {
          "reference": "urn:uuid:b4ca464b-a38d-406a-a1fc-1266c1f70e3f",
          "display": "Aniela Prażmo"
        },
        "effectiveDateTime": "2025-07-05"
      }
    },
    {
      "fullUrl": "urn:uuid:7ed3bae4-b41c-44d9-80c3-9e850790187d",
      "resource": {
        "resourceType": "Observation",
        "id": "7ed3bae4-b41c-44d9-80c3-9e850790187d",
        "meta": {
          "profile": [
            "http://hl7.org/fhir/StructureDefinition/vitalsigns"
          ]
        },
        "category": [
          {
            "coding": [
              {
                "system": "http://terminology.hl7.org/CodeSystem/observation-category",
                "code": "vital-signs",
                "display": "Vital Signs"
              }
            ]
          }
        ],
        "valueQuantity": {
          "value": 75.5,
          "code": "kg",
          "unit": "kg"
        },
        "text": {
          "status": "generated",
          "div": "<div xmlns=\"http://www.w3.org/1999/xhtml\"><table class=\"hl7__ips\"><tr><th>Vital Sign</th><th>Date</th><th>Measurement</th></tr><tr><td>Body Weight</td><td>05-Jul-2025</td><td>75.5 kg</td></tr></table></div>"
        },
        "status": "final",
        "code": {
          "coding": [
            {
              "code": "$29463-7",
              "system": "http://loinc.org",
              "display": "Body Weight"
            }
          ]
        },
        "subject": {
          "reference": "urn:uuid:b4ca464b-a38d-406a-a1fc-1266c1f70e3f",
          "display": "Aniela Prażmo"
        },
        "effectiveDateTime": "2025-07-05"
      }
    },
    {
      "fullUrl": "urn:uuid:592659ee-aaa7-4596-a34b-62c42318fe6d",
      "resource": {
        "resourceType": "Observation",
        "id": "592659ee-aaa7-4596-a34b-62c42318fe6d",
        "meta": {
          "profile": [
            "http://hl7.org/fhir/StructureDefinition/vitalsigns"
          ]
        },
        "category": [
          {
            "coding": [
              {
                "system": "http://terminology.hl7.org/CodeSystem/observation-category",
                "code": "vital-signs",
                "display": "Vital Signs"
              }
            ]
          }
        ],
        "valueQuantity": {
          "value": 27.4,
          "code": "kg/m2",
          "unit": "kg/m2"
        },
        "text": {
          "status": "generated",
          "div": "<div xmlns=\"http://www.w3.org/1999/xhtml\"><table class=\"hl7__ips\"><tr><th>Vital Sign</th><th>Date</th><th>Measurement</th></tr><tr><td>Body mass index (BMI) [Ratio]</td><td>05-Jul-2025</td><td>27.4 kg/m2</td></tr></table></div>"
        },
        "status": "final",
        "code": {
          "coding": [
            {
              "code": "$39156-5",
              "system": "http://loinc.org",
              "display": "Body mass index (BMI) [Ratio]"
            }
          ]
        },
        "subject": {
          "reference": "urn:uuid:b4ca464b-a38d-406a-a1fc-1266c1f70e3f",
          "display": "Aniela Prażmo"
        },
        "effectiveDateTime": "2025-07-05"
      }
    },
    {
      "fullUrl": "urn:uuid:6c9e5696-b29f-4608-8525-8c48ceaf4ddd",
      "resource": {
        "resourceType": "Observation",
        "id": "6c9e5696-b29f-4608-8525-8c48ceaf4ddd",
        "meta": {
          "profile": [
            "http://hl7.org/fhir/StructureDefinition/vitalsigns"
          ]
        },
        "category": [
          {
            "coding": [
              {
                "system": "http://terminology.hl7.org/CodeSystem/observation-category",
                "code": "vital-signs",
                "display": "Vital Signs"
              }
            ]
          }
        ],
        "valueQuantity": {
          "value": 42,
          "code": "mm[Hg]",
          "unit": "mm[Hg]"
        },
        "text": {
          "status": "generated",
          "div": "<div xmlns=\"http://www.w3.org/1999/xhtml\"><table class=\"hl7__ips\"><tr><th>Vital Sign</th><th>Date</th><th>Measurement</th></tr><tr><td>Diastolic Blood Pressure</td><td>05-Jul-2025</td><td>42 mm[Hg]</td></tr></table></div>"
        },
        "status": "final",
        "code": {
          "coding": [
            {
              "code": "$8462-4",
              "system": "http://loinc.org",
              "display": "Diastolic Blood Pressure"
            }
          ]
        },
        "subject": {
          "reference": "urn:uuid:b4ca464b-a38d-406a-a1fc-1266c1f70e3f",
          "display": "Aniela Prażmo"
        },
        "effectiveDateTime": "2025-07-05"
      }
    },
    {
      "fullUrl": "urn:uuid:c0de08fa-1f3b-48d3-981d-683c5e16dff4",
      "resource": {
        "resourceType": "Observation",
        "id": "c0de08fa-1f3b-48d3-981d-683c5e16dff4",
        "meta": {
          "profile": [
            "http://hl7.org/fhir/StructureDefinition/vitalsigns"
          ]
        },
        "category": [
          {
            "coding": [
              {
                "system": "http://terminology.hl7.org/CodeSystem/observation-category",
                "code": "vital-signs",
                "display": "Vital Signs"
              }
            ]
          }
        ],
        "valueQuantity": {
          "value": 96,
          "code": "mm[Hg]",
          "unit": "mm[Hg]"
        },
        "text": {
          "status": "generated",
          "div": "<div xmlns=\"http://www.w3.org/1999/xhtml\"><table class=\"hl7__ips\"><tr><th>Vital Sign</th><th>Date</th><th>Measurement</th></tr><tr><td>Systolic Blood Pressure</td><td>05-Jul-2025</td><td>96 mm[Hg]</td></tr></table></div>"
        },
        "status": "final",
        "code": {
          "coding": [
            {
              "code": "$8480-6",
              "system": "http://loinc.org",
              "display": "Systolic Blood Pressure"
            }
          ]
        },
        "subject": {
          "reference": "urn:uuid:b4ca464b-a38d-406a-a1fc-1266c1f70e3f",
          "display": "Aniela Prażmo"
        },
        "effectiveDateTime": "2025-07-05"
      }
    },
    {
      "fullUrl": "urn:uuid:17a06101-640d-4a73-bfe1-62deb96831b0",
      "resource": {
        "resourceType": "Observation",
        "id": "17a06101-640d-4a73-bfe1-62deb96831b0",
        "meta": {
          "profile": [
            "http://hl7.org/fhir/StructureDefinition/vitalsigns"
          ]
        },
        "category": [
          {
            "coding": [
              {
                "system": "http://terminology.hl7.org/CodeSystem/observation-category",
                "code": "vital-signs",
                "display": "Vital Signs"
              }
            ]
          }
        ],
        "valueQuantity": {
          "value": 72,
          "code": "/min",
          "unit": "/min"
        },
        "text": {
          "status": "generated",
          "div": "<div xmlns=\"http://www.w3.org/1999/xhtml\"><table class=\"hl7__ips\"><tr><th>Vital Sign</th><th>Date</th><th>Measurement</th></tr><tr><td>Heart rate</td><td>05-Jul-2025</td><td>72 /min</td></tr></table></div>"
        },
        "status": "final",
        "code": {
          "coding": [
            {
              "code": "$8867-4",
              "system": "http://loinc.org",
              "display": "Heart rate"
            }
          ]
        },
        "subject": {
          "reference": "urn:uuid:b4ca464b-a38d-406a-a1fc-1266c1f70e3f",
          "display": "Aniela Prażmo"
        },
        "effectiveDateTime": "2025-07-05"
      }
    },
    {
      "fullUrl": "urn:uuid:302ce142-9888-4654-bbc7-73d51eb3377d",
      "resource": {
        "resourceType": "Observation",
        "id": "302ce142-9888-4654-bbc7-73d51eb3377d",
        "meta": {
          "profile": [
            "http://hl7.org/fhir/StructureDefinition/vitalsigns"
          ]
        },
        "category": [
          {
            "coding": [
              {
                "system": "http://terminology.hl7.org/CodeSystem/observation-category",
                "code": "vital-signs",
                "display": "Vital Signs"
              }
            ]
          }
        ],
        "valueQuantity": {
          "value": 12,
          "code": "/min",
          "unit": "/min"
        },
        "text": {
          "status": "generated",
          "div": "<div xmlns=\"http://www.w3.org/1999/xhtml\"><table class=\"hl7__ips\"><tr><th>Vital Sign</th><th>Date</th><th>Measurement</th></tr><tr><td>Respiratory rate</td><td>05-Jul-2025</td><td>12 /min</td></tr></table></div>"
        },
        "status": "final",
        "code": {
          "coding": [
            {
              "code": "$9279-1",
              "system": "http://loinc.org",
              "display": "Respiratory rate"
            }
          ]
        },
        "subject": {
          "reference": "urn:uuid:b4ca464b-a38d-406a-a1fc-1266c1f70e3f",
          "display": "Aniela Prażmo"
        },
        "effectiveDateTime": "2025-07-05"
      }
    },
    {
      "fullUrl": "urn:uuid:10c0f90e-dae9-4357-95a3-bd696e174933",
      "resource": {
        "resourceType": "Observation",
        "id": "10c0f90e-dae9-4357-95a3-bd696e174933",
        "meta": {
          "profile": [
            "http://hl7.org/fhir/StructureDefinition/vitalsigns"
          ]
        },
        "category": [
          {
            "coding": [
              {
                "system": "http://terminology.hl7.org/CodeSystem/observation-category",
                "code": "vital-signs",
                "display": "Vital Signs"
              }
            ]
          }
        ],
        "valueQuantity": {
          "value": 166,
          "code": "cm",
          "unit": "cm"
        },
        "text": {
          "status": "generated",
          "div": "<div xmlns=\"http://www.w3.org/1999/xhtml\"><table class=\"hl7__ips\"><tr><th>Vital Sign</th><th>Date</th><th>Measurement</th></tr><tr><td>Body Height</td><td>29-Jun-2024</td><td>166 cm</td></tr></table></div>"
        },
        "status": "final",
        "code": {
          "coding": [
            {
              "code": "$8302-2",
              "system": "http://loinc.org",
              "display": "Body Height"
            }
          ]
        },
        "subject": {
          "reference": "urn:uuid:b4ca464b-a38d-406a-a1fc-1266c1f70e3f",
          "display": "Aniela Prażmo"
        },
        "effectiveDateTime": "2024-06-29"
      }
    },
    {
      "fullUrl": "urn:uuid:a0e61601-5e26-43bc-b7f4-479de47adb11",
      "resource": {
        "resourceType": "Observation",
        "id": "a0e61601-5e26-43bc-b7f4-479de47adb11",
        "meta": {
          "profile": [
            "http://hl7.org/fhir/StructureDefinition/vitalsigns"
          ]
        },
        "category": [
          {
            "coding": [
              {
                "system": "http://terminology.hl7.org/CodeSystem/observation-category",
                "code": "vital-signs",
                "display": "Vital Signs"
              }
            ]
          }
        ],
        "valueQuantity": {
          "value": 1,
          "code": "{score}",
          "unit": "{score}"
        },
        "text": {
          "status": "generated",
          "div": "<div xmlns=\"http://www.w3.org/1999/xhtml\"><table class=\"hl7__ips\"><tr><th>Vital Sign</th><th>Date</th><th>Measurement</th></tr><tr><td>Pain severity - 0-10 verbal numeric rating [Score] - Reported</td><td>29-Jun-2024</td><td>1 {score}</td></tr></table></div>"
        },
        "status": "final",
        "code": {
          "coding": [
            {
              "code": "$72514-3",
              "system": "http://loinc.org",
              "display": "Pain severity - 0-10 verbal numeric rating [Score] - Reported"
            }
          ]
        },
        "subject": {
          "reference": "urn:uuid:b4ca464b-a38d-406a-a1fc-1266c1f70e3f",
          "display": "Aniela Prażmo"
        },
        "effectiveDateTime": "2024-06-29"
      }
    },
    {
      "fullUrl": "urn:uuid:19b77caf-10a1-4cef-bd9d-12e89e529083",
      "resource": {
        "resourceType": "Observation",
        "id": "19b77caf-10a1-4cef-bd9d-12e89e529083",
        "meta": {
          "profile": [
            "http://hl7.org/fhir/StructureDefinition/vitalsigns"
          ]
        },
        "category": [
          {
            "coding": [
              {
                "system": "http://terminology.hl7.org/CodeSystem/observation-category",
                "code": "vital-signs",
                "display": "Vital Signs"
              }
            ]
          }
        ],
        "valueQuantity": {
          "value": 75.5,
          "code": "kg",
          "unit": "kg"
        },
        "text": {
          "status": "generated",
          "div": "<div xmlns=\"http://www.w3.org/1999/xhtml\"><table class=\"hl7__ips\"><tr><th>Vital Sign</th><th>Date</th><th>Measurement</th></tr><tr><td>Body Weight</td><td>29-Jun-2024</td><td>75.5 kg</td></tr></table></div>"
        },
        "status": "final",
        "code": {
          "coding": [
            {
              "code": "$29463-7",
              "system": "http://loinc.org",
              "display": "Body Weight"
            }
          ]
        },
        "subject": {
          "reference": "urn:uuid:b4ca464b-a38d-406a-a1fc-1266c1f70e3f",
          "display": "Aniela Prażmo"
        },
        "effectiveDateTime": "2024-06-29"
      }
    },
    {
      "fullUrl": "urn:uuid:b15a4a8e-8d01-48ed-8e5d-87ea6b9bf00a",
      "resource": {
        "resourceType": "Observation",
        "id": "b15a4a8e-8d01-48ed-8e5d-87ea6b9bf00a",
        "meta": {
          "profile": [
            "http://hl7.org/fhir/StructureDefinition/vitalsigns"
          ]
        },
        "category": [
          {
            "coding": [
              {
                "system": "http://terminology.hl7.org/CodeSystem/observation-category",
                "code": "vital-signs",
                "display": "Vital Signs"
              }
            ]
          }
        ],
        "valueQuantity": {
          "value": 27.4,
          "code": "kg/m2",
          "unit": "kg/m2"
        },
        "text": {
          "status": "generated",
          "div": "<div xmlns=\"http://www.w3.org/1999/xhtml\"><table class=\"hl7__ips\"><tr><th>Vital Sign</th><th>Date</th><th>Measurement</th></tr><tr><td>Body mass index (BMI) [Ratio]</td><td>29-Jun-2024</td><td>27.4 kg/m2</td></tr></table></div>"
        },
        "status": "final",
        "code": {
          "coding": [
            {
              "code": "$39156-5",
              "system": "http://loinc.org",
              "display": "Body mass index (BMI) [Ratio]"
            }
          ]
        },
        "subject": {
          "reference": "urn:uuid:b4ca464b-a38d-406a-a1fc-1266c1f70e3f",
          "display": "Aniela Prażmo"
        },
        "effectiveDateTime": "2024-06-29"
      }
    },
    {
      "fullUrl": "urn:uuid:d13f6635-7a96-44e3-ba7a-381e30b90bd5",
      "resource": {
        "resourceType": "Observation",
        "id": "d13f6635-7a96-44e3-ba7a-381e30b90bd5",
        "meta": {
          "profile": [
            "http://hl7.org/fhir/StructureDefinition/vitalsigns"
          ]
        },
        "category": [
          {
            "coding": [
              {
                "system": "http://terminology.hl7.org/CodeSystem/observation-category",
                "code": "vital-signs",
                "display": "Vital Signs"
              }
            ]
          }
        ],
        "valueQuantity": {
          "value": 46,
          "code": "mm[Hg]",
          "unit": "mm[Hg]"
        },
        "text": {
          "status": "generated",
          "div": "<div xmlns=\"http://www.w3.org/1999/xhtml\"><table class=\"hl7__ips\"><tr><th>Vital Sign</th><th>Date</th><th>Measurement</th></tr><tr><td>Diastolic Blood Pressure</td><td>29-Jun-2024</td><td>46 mm[Hg]</td></tr></table></div>"
        },
        "status": "final",
        "code": {
          "coding": [
            {
              "code": "$8462-4",
              "system": "http://loinc.org",
              "display": "Diastolic Blood Pressure"
            }
          ]
        },
        "subject": {
          "reference": "urn:uuid:b4ca464b-a38d-406a-a1fc-1266c1f70e3f",
          "display": "Aniela Prażmo"
        },
        "effectiveDateTime": "2024-06-29"
      }
    },
    {
      "fullUrl": "urn:uuid:7d5a92e2-c26b-45ff-b003-42b386ef23d3",
      "resource": {
        "resourceType": "Observation",
        "id": "7d5a92e2-c26b-45ff-b003-42b386ef23d3",
        "meta": {
          "profile": [
            "http://hl7.org/fhir/StructureDefinition/vitalsigns"
          ]
        },
        "category": [
          {
            "coding": [
              {
                "system": "http://terminology.hl7.org/CodeSystem/observation-category",
                "code": "vital-signs",
                "display": "Vital Signs"
              }
            ]
          }
        ],
        "valueQuantity": {
          "value": 87,
          "code": "mm[Hg]",
          "unit": "mm[Hg]"
        },
        "text": {
          "status": "generated",
          "div": "<div xmlns=\"http://www.w3.org/1999/xhtml\"><table class=\"hl7__ips\"><tr><th>Vital Sign</th><th>Date</th><th>Measurement</th></tr><tr><td>Systolic Blood Pressure</td><td>29-Jun-2024</td><td>87 mm[Hg]</td></tr></table></div>"
        },
        "status": "final",
        "code": {
          "coding": [
            {
              "code": "$8480-6",
              "system": "http://loinc.org",
              "display": "Systolic Blood Pressure"
            }
          ]
        },
        "subject": {
          "reference": "urn:uuid:b4ca464b-a38d-406a-a1fc-1266c1f70e3f",
          "display": "Aniela Prażmo"
        },
        "effectiveDateTime": "2024-06-29"
      }
    },
    {
      "fullUrl": "urn:uuid:d7d2ae95-6559-489b-86c5-8fe16defce97",
      "resource": {
        "resourceType": "Observation",
        "id": "d7d2ae95-6559-489b-86c5-8fe16defce97",
        "meta": {
          "profile": [
            "http://hl7.org/fhir/StructureDefinition/vitalsigns"
          ]
        },
        "category": [
          {
            "coding": [
              {
                "system": "http://terminology.hl7.org/CodeSystem/observation-category",
                "code": "vital-signs",
                "display": "Vital Signs"
              }
            ]
          }
        ],
        "valueQuantity": {
          "value": 68,
          "code": "/min",
          "unit": "/min"
        },
        "text": {
          "status": "generated",
          "div": "<div xmlns=\"http://www.w3.org/1999/xhtml\"><table class=\"hl7__ips\"><tr><th>Vital Sign</th><th>Date</th><th>Measurement</th></tr><tr><td>Heart rate</td><td>29-Jun-2024</td><td>68 /min</td></tr></table></div>"
        },
        "status": "final",
        "code": {
          "coding": [
            {
              "code": "$8867-4",
              "system": "http://loinc.org",
              "display": "Heart rate"
            }
          ]
        },
        "subject": {
          "reference": "urn:uuid:b4ca464b-a38d-406a-a1fc-1266c1f70e3f",
          "display": "Aniela Prażmo"
        },
        "effectiveDateTime": "2024-06-29"
      }
    },
    {
      "fullUrl": "urn:uuid:d3ddb42f-1299-4a37-9f34-030d59469f93",
      "resource": {
        "resourceType": "Observation",
        "id": "d3ddb42f-1299-4a37-9f34-030d59469f93",
        "meta": {
          "profile": [
            "http://hl7.org/fhir/StructureDefinition/vitalsigns"
          ]
        },
        "category": [
          {
            "coding": [
              {
                "system": "http://terminology.hl7.org/CodeSystem/observation-category",
                "code": "vital-signs",
                "display": "Vital Signs"
              }
            ]
          }
        ],
        "valueQuantity": {
          "value": 14,
          "code": "/min",
          "unit": "/min"
        },
        "text": {
          "status": "generated",
          "div": "<div xmlns=\"http://www.w3.org/1999/xhtml\"><table class=\"hl7__ips\"><tr><th>Vital Sign</th><th>Date</th><th>Measurement</th></tr><tr><td>Respiratory rate</td><td>29-Jun-2024</td><td>14 /min</td></tr></table></div>"
        },
        "status": "final",
        "code": {
          "coding": [
            {
              "code": "$9279-1",
              "system": "http://loinc.org",
              "display": "Respiratory rate"
            }
          ]
        },
        "subject": {
          "reference": "urn:uuid:b4ca464b-a38d-406a-a1fc-1266c1f70e3f",
          "display": "Aniela Prażmo"
        },
        "effectiveDateTime": "2024-06-29"
      }
    },
    {
      "fullUrl": "urn:uuid:44803de0-85d8-4941-90e8-9ab134626b8f",
      "resource": {
        "resourceType": "Observation",
        "id": "44803de0-85d8-4941-90e8-9ab134626b8f",
        "meta": {
          "profile": [
            "http://hl7.eu/fhir/laboratory/StructureDefinition/Observation-resultslab-eu-lab"
          ]
        },
        "performer": [
          {
            "display": "The Central European Lab"
          }
        ],
        "category": [
          {
            "coding": [
              {
                "system": "http://terminology.hl7.org/CodeSystem/observation-category",
                "code": "laboratory"
              }
            ]
          }
        ],
        "code": {
          "coding": [
            {
              "code": "6690-2",
              "system": "http://loinc.org",
              "display": "Leukocytes [#/volume] in Blood by Automated count"
            }
          ],
          "text": "Leukocytes [#/volume] in Blood by Automated count"
        },
        "valueQuantity": {
          "system": "http://unitsofmeasure.org",
          "value": 9.2,
          "unit": "10*3/uL",
          "code": "10*3/uL"
        },
        "referenceRange": [
          {
            "low": {
              "value": 4,
              "code": "10*3/uL",
              "system": "http://unitsofmeasure.org"
            }
          },
          {
            "high": {
              "value": 11,
              "code": "10*3/uL",
              "system": "http://unitsofmeasure.org"
            }
          }
        ],
        "text": {
          "status": "generated",
          "div": "<div xmlns=\"http://www.w3.org/1999/xhtml\"><table class=\"hl7__eu__lab__report\"><tr><th>Test</th><th>05-Jul-2025</th><th>Reference&#xA0;Range</th><th>Unit</th></tr><tr><td>Leukocytes [#/volume] in Blood by Automated count</td><td>9.2</td><td>4 - 11</td><td></td><td>10*3/uL</td></tr></table></div>"
        },
        "status": "final",
        "subject": {
          "reference": "urn:uuid:b4ca464b-a38d-406a-a1fc-1266c1f70e3f",
          "display": "Aniela Prażmo"
        },
        "effectiveDateTime": "2025-07-05T13:25:25Z"
      }
    },
    {
      "fullUrl": "urn:uuid:437924f6-d339-4b6a-a205-d7506dfaf8aa",
      "resource": {
        "resourceType": "Observation",
        "id": "437924f6-d339-4b6a-a205-d7506dfaf8aa",
        "meta": {
          "profile": [
            "http://hl7.eu/fhir/laboratory/StructureDefinition/Observation-resultslab-eu-lab"
          ]
        },
        "performer": [
          {
            "display": "The Central European Lab"
          }
        ],
        "category": [
          {
            "coding": [
              {
                "system": "http://terminology.hl7.org/CodeSystem/observation-category",
                "code": "laboratory"
              }
            ]
          }
        ],
        "code": {
          "coding": [
            {
              "code": "789-8",
              "system": "http://loinc.org",
              "display": "Erythrocytes [#/volume] in Blood by Automated count"
            }
          ],
          "text": "Erythrocytes [#/volume] in Blood by Automated count"
        },
        "valueQuantity": {
          "system": "http://unitsofmeasure.org",
          "value": 4.8,
          "unit": "10*6/uL",
          "code": "10*6/uL"
        },
        "referenceRange": [
          {
            "low": {
              "value": 3.8,
              "code": "10*6/uL",
              "system": "http://unitsofmeasure.org"
            }
          },
          {
            "high": {
              "value": 5.7,
              "code": "10*6/uL",
              "system": "http://unitsofmeasure.org"
            }
          }
        ],
        "text": {
          "status": "generated",
          "div": "<div xmlns=\"http://www.w3.org/1999/xhtml\"><table class=\"hl7__eu__lab__report\"><tr><th>Test</th><th>05-Jul-2025</th><th>Reference&#xA0;Range</th><th>Unit</th></tr><tr><td>Erythrocytes [#/volume] in Blood by Automated count</td><td>4.8</td><td>3.8 - 5.7</td><td></td><td>10*6/uL</td></tr></table></div>"
        },
        "status": "final",
        "subject": {
          "reference": "urn:uuid:b4ca464b-a38d-406a-a1fc-1266c1f70e3f",
          "display": "Aniela Prażmo"
        },
        "effectiveDateTime": "2025-07-05T13:25:25Z"
      }
    },
    {
      "fullUrl": "urn:uuid:42f20cfe-1d23-4dfd-9fee-4336375ff86d",
      "resource": {
        "resourceType": "Observation",
        "id": "42f20cfe-1d23-4dfd-9fee-4336375ff86d",
        "meta": {
          "profile": [
            "http://hl7.eu/fhir/laboratory/StructureDefinition/Observation-resultslab-eu-lab"
          ]
        },
        "performer": [
          {
            "display": "The Central European Lab"
          }
        ],
        "category": [
          {
            "coding": [
              {
                "system": "http://terminology.hl7.org/CodeSystem/observation-category",
                "code": "laboratory"
              }
            ]
          }
        ],
        "code": {
          "coding": [
            {
              "code": "718-7",
              "system": "http://loinc.org",
              "display": "Hemoglobin [Mass/volume] in Blood"
            }
          ],
          "text": "Hemoglobin [Mass/volume] in Blood"
        },
        "valueQuantity": {
          "system": "http://unitsofmeasure.org",
          "value": 17.1,
          "unit": "g/dL",
          "code": "g/dL"
        },
        "referenceRange": [
          {
            "low": {
              "value": 12,
              "code": "g/dL",
              "system": "http://unitsofmeasure.org"
            }
          },
          {
            "high": {
              "value": 16,
              "code": "g/dL",
              "system": "http://unitsofmeasure.org"
            }
          }
        ],
        "interpretation": [
          {
            "coding": [
              {
                "code": "H",
                "system": "http://terminology.hl7.org/CodeSystem/v3-ObservationInterpretation",
                "display": "High"
              }
            ]
          }
        ],
        "text": {
          "status": "generated",
          "div": "<div xmlns=\"http://www.w3.org/1999/xhtml\"><table class=\"hl7__eu__lab__report\"><tr><th>Test</th><th>05-Jul-2025</th><th>Reference&#xA0;Range</th><th>Unit</th></tr><tr><td>Hemoglobin [Mass/volume] in Blood</td><td>17.1</td><td>12 - 16</td><td>H</td><td>g/dL</td></tr></table></div>"
        },
        "status": "final",
        "subject": {
          "reference": "urn:uuid:b4ca464b-a38d-406a-a1fc-1266c1f70e3f",
          "display": "Aniela Prażmo"
        },
        "effectiveDateTime": "2025-07-05T13:25:25Z"
      }
    },
    {
      "fullUrl": "urn:uuid:e70d8b6c-4092-45de-a254-0042a4964c42",
      "resource": {
        "resourceType": "Observation",
        "id": "e70d8b6c-4092-45de-a254-0042a4964c42",
        "meta": {
          "profile": [
            "http://hl7.eu/fhir/laboratory/StructureDefinition/Observation-resultslab-eu-lab"
          ]
        },
        "performer": [
          {
            "display": "The Central European Lab"
          }
        ],
        "category": [
          {
            "coding": [
              {
                "system": "http://terminology.hl7.org/CodeSystem/observation-category",
                "code": "laboratory"
              }
            ]
          }
        ],
        "code": {
          "coding": [
            {
              "code": "4544-3",
              "system": "http://loinc.org",
              "display": "Hematocrit [Volume Fraction] of Blood by Automated count"
            }
          ],
          "text": "Hematocrit [Volume Fraction] of Blood by Automated count"
        },
        "valueQuantity": {
          "system": "http://unitsofmeasure.org",
          "value": 43.3,
          "unit": "%",
          "code": "%"
        },
        "referenceRange": [
          {
            "low": {
              "value": 38,
              "code": "%",
              "system": "http://unitsofmeasure.org"
            }
          },
          {
            "high": {
              "value": 56,
              "code": "%",
              "system": "http://unitsofmeasure.org"
            }
          }
        ],
        "text": {
          "status": "generated",
          "div": "<div xmlns=\"http://www.w3.org/1999/xhtml\"><table class=\"hl7__eu__lab__report\"><tr><th>Test</th><th>05-Jul-2025</th><th>Reference&#xA0;Range</th><th>Unit</th></tr><tr><td>Hematocrit [Volume Fraction] of Blood by Automated count</td><td>43.3</td><td>38 - 56</td><td></td><td>%</td></tr></table></div>"
        },
        "status": "final",
        "subject": {
          "reference": "urn:uuid:b4ca464b-a38d-406a-a1fc-1266c1f70e3f",
          "display": "Aniela Prażmo"
        },
        "effectiveDateTime": "2025-07-05T13:25:25Z"
      }
    },
    {
      "fullUrl": "urn:uuid:0942d11c-e287-4b09-900b-b19ab62cc5ad",
      "resource": {
        "resourceType": "Observation",
        "id": "0942d11c-e287-4b09-900b-b19ab62cc5ad",
        "meta": {
          "profile": [
            "http://hl7.eu/fhir/laboratory/StructureDefinition/Observation-resultslab-eu-lab"
          ]
        },
        "performer": [
          {
            "display": "The Central European Lab"
          }
        ],
        "category": [
          {
            "coding": [
              {
                "system": "http://terminology.hl7.org/CodeSystem/observation-category",
                "code": "laboratory"
              }
            ]
          }
        ],
        "code": {
          "coding": [
            {
              "code": "787-2",
              "system": "http://loinc.org",
              "display": "MCV [Entitic volume] by Automated count"
            }
          ],
          "text": "MCV [Entitic volume] by Automated count"
        },
        "valueQuantity": {
          "system": "http://unitsofmeasure.org",
          "value": 81.7,
          "unit": "fL",
          "code": "fL"
        },
        "referenceRange": [
          {
            "low": {
              "value": 78,
              "code": "fL",
              "system": "http://unitsofmeasure.org"
            }
          },
          {
            "high": {
              "value": 98,
              "code": "fL",
              "system": "http://unitsofmeasure.org"
            }
          }
        ],
        "text": {
          "status": "generated",
          "div": "<div xmlns=\"http://www.w3.org/1999/xhtml\"><table class=\"hl7__eu__lab__report\"><tr><th>Test</th><th>05-Jul-2025</th><th>Reference&#xA0;Range</th><th>Unit</th></tr><tr><td>MCV [Entitic volume] by Automated count</td><td>81.7</td><td>78 - 98</td><td></td><td>fL</td></tr></table></div>"
        },
        "status": "final",
        "subject": {
          "reference": "urn:uuid:b4ca464b-a38d-406a-a1fc-1266c1f70e3f",
          "display": "Aniela Prażmo"
        },
        "effectiveDateTime": "2025-07-05T13:25:25Z"
      }
    },
    {
      "fullUrl": "urn:uuid:5b6c998d-dba1-4ce6-a184-c1f8bfe99ada",
      "resource": {
        "resourceType": "Observation",
        "id": "5b6c998d-dba1-4ce6-a184-c1f8bfe99ada",
        "meta": {
          "profile": [
            "http://hl7.eu/fhir/laboratory/StructureDefinition/Observation-resultslab-eu-lab"
          ]
        },
        "performer": [
          {
            "display": "The Central European Lab"
          }
        ],
        "category": [
          {
            "coding": [
              {
                "system": "http://terminology.hl7.org/CodeSystem/observation-category",
                "code": "laboratory"
              }
            ]
          }
        ],
        "code": {
          "coding": [
            {
              "code": "785-6",
              "system": "http://loinc.org",
              "display": "MCH [Entitic mass] by Automated count"
            }
          ],
          "text": "MCH [Entitic mass] by Automated count"
        },
        "valueQuantity": {
          "system": "http://unitsofmeasure.org",
          "value": 29.8,
          "unit": "pg",
          "code": "pg"
        },
        "referenceRange": [
          {
            "low": {
              "value": 27,
              "code": "pg",
              "system": "http://unitsofmeasure.org"
            }
          },
          {
            "high": {
              "value": 34,
              "code": "pg",
              "system": "http://unitsofmeasure.org"
            }
          }
        ],
        "text": {
          "status": "generated",
          "div": "<div xmlns=\"http://www.w3.org/1999/xhtml\"><table class=\"hl7__eu__lab__report\"><tr><th>Test</th><th>05-Jul-2025</th><th>Reference&#xA0;Range</th><th>Unit</th></tr><tr><td>MCH [Entitic mass] by Automated count</td><td>29.8</td><td>27 - 34</td><td></td><td>pg</td></tr></table></div>"
        },
        "status": "final",
        "subject": {
          "reference": "urn:uuid:b4ca464b-a38d-406a-a1fc-1266c1f70e3f",
          "display": "Aniela Prażmo"
        },
        "effectiveDateTime": "2025-07-05T13:25:25Z"
      }
    },
    {
      "fullUrl": "urn:uuid:369e49e0-9241-4e54-b471-69c02bb422bd",
      "resource": {
        "resourceType": "Observation",
        "id": "369e49e0-9241-4e54-b471-69c02bb422bd",
        "meta": {
          "profile": [
            "http://hl7.eu/fhir/laboratory/StructureDefinition/Observation-resultslab-eu-lab"
          ]
        },
        "performer": [
          {
            "display": "The Central European Lab"
          }
        ],
        "category": [
          {
            "coding": [
              {
                "system": "http://terminology.hl7.org/CodeSystem/observation-category",
                "code": "laboratory"
              }
            ]
          }
        ],
        "code": {
          "coding": [
            {
              "code": "786-4",
              "system": "http://loinc.org",
              "display": "MCHC [Mass/volume] by Automated count"
            }
          ],
          "text": "MCHC [Mass/volume] by Automated count"
        },
        "valueQuantity": {
          "system": "http://unitsofmeasure.org",
          "value": 35.8,
          "unit": "g/dL",
          "code": "g/dL"
        },
        "referenceRange": [
          {
            "low": {
              "value": 32,
              "code": "g/dL",
              "system": "http://unitsofmeasure.org"
            }
          },
          {
            "high": {
              "value": 35,
              "code": "g/dL",
              "system": "http://unitsofmeasure.org"
            }
          }
        ],
        "interpretation": [
          {
            "coding": [
              {
                "code": "H",
                "system": "http://terminology.hl7.org/CodeSystem/v3-ObservationInterpretation",
                "display": "High"
              }
            ]
          }
        ],
        "text": {
          "status": "generated",
          "div": "<div xmlns=\"http://www.w3.org/1999/xhtml\"><table class=\"hl7__eu__lab__report\"><tr><th>Test</th><th>05-Jul-2025</th><th>Reference&#xA0;Range</th><th>Unit</th></tr><tr><td>MCHC [Mass/volume] by Automated count</td><td>35.8</td><td>32 - 35</td><td>H</td><td>g/dL</td></tr></table></div>"
        },
        "status": "final",
        "subject": {
          "reference": "urn:uuid:b4ca464b-a38d-406a-a1fc-1266c1f70e3f",
          "display": "Aniela Prażmo"
        },
        "effectiveDateTime": "2025-07-05T13:25:25Z"
      }
    },
    {
      "fullUrl": "urn:uuid:605da193-f6a6-4b19-8a26-80edba235d56",
      "resource": {
        "resourceType": "Observation",
        "id": "605da193-f6a6-4b19-8a26-80edba235d56",
        "meta": {
          "profile": [
            "http://hl7.eu/fhir/laboratory/StructureDefinition/Observation-resultslab-eu-lab"
          ]
        },
        "performer": [
          {
            "display": "The Central European Lab"
          }
        ],
        "category": [
          {
            "coding": [
              {
                "system": "http://terminology.hl7.org/CodeSystem/observation-category",
                "code": "laboratory"
              }
            ]
          }
        ],
        "code": {
          "coding": [
            {
              "code": "21000-5",
              "system": "http://loinc.org",
              "display": "Erythrocyte distribution width [Entitic volume] by Automated count"
            }
          ],
          "text": "Erythrocyte distribution width [Entitic volume] by Automated count"
        },
        "valueQuantity": {
          "system": "http://unitsofmeasure.org",
          "value": 44.1,
          "unit": "fL",
          "code": "fL"
        },
        "referenceRange": [
          {
            "low": {
              "value": 36,
              "code": "fL",
              "system": "http://unitsofmeasure.org"
            }
          },
          {
            "high": {
              "value": 55,
              "code": "fL",
              "system": "http://unitsofmeasure.org"
            }
          }
        ],
        "text": {
          "status": "generated",
          "div": "<div xmlns=\"http://www.w3.org/1999/xhtml\"><table class=\"hl7__eu__lab__report\"><tr><th>Test</th><th>05-Jul-2025</th><th>Reference&#xA0;Range</th><th>Unit</th></tr><tr><td>Erythrocyte distribution width [Entitic volume] by Automated count</td><td>44.1</td><td>36 - 55</td><td></td><td>fL</td></tr></table></div>"
        },
        "status": "final",
        "subject": {
          "reference": "urn:uuid:b4ca464b-a38d-406a-a1fc-1266c1f70e3f",
          "display": "Aniela Prażmo"
        },
        "effectiveDateTime": "2025-07-05T13:25:25Z"
      }
    },
    {
      "fullUrl": "urn:uuid:7a1b6448-b4d3-4347-bd14-cd72fd5e0543",
      "resource": {
        "resourceType": "Observation",
        "id": "7a1b6448-b4d3-4347-bd14-cd72fd5e0543",
        "meta": {
          "profile": [
            "http://hl7.eu/fhir/laboratory/StructureDefinition/Observation-resultslab-eu-lab"
          ]
        },
        "performer": [
          {
            "display": "The Central European Lab"
          }
        ],
        "category": [
          {
            "coding": [
              {
                "system": "http://terminology.hl7.org/CodeSystem/observation-category",
                "code": "laboratory"
              }
            ]
          }
        ],
        "code": {
          "coding": [
            {
              "code": "777-3",
              "system": "http://loinc.org",
              "display": "Platelets [#/volume] in Blood by Automated count"
            }
          ],
          "text": "Platelets [#/volume] in Blood by Automated count"
        },
        "valueQuantity": {
          "system": "http://unitsofmeasure.org",
          "value": 211.7,
          "unit": "10*3/uL",
          "code": "10*3/uL"
        },
        "referenceRange": [
          {
            "low": {
              "value": 157,
              "code": "10*3/uL",
              "system": "http://unitsofmeasure.org"
            }
          },
          {
            "high": {
              "value": 415,
              "code": "10*3/uL",
              "system": "http://unitsofmeasure.org"
            }
          }
        ],
        "text": {
          "status": "generated",
          "div": "<div xmlns=\"http://www.w3.org/1999/xhtml\"><table class=\"hl7__eu__lab__report\"><tr><th>Test</th><th>05-Jul-2025</th><th>Reference&#xA0;Range</th><th>Unit</th></tr><tr><td>Platelets [#/volume] in Blood by Automated count</td><td>211.7</td><td>157 - 415</td><td></td><td>10*3/uL</td></tr></table></div>"
        },
        "status": "final",
        "subject": {
          "reference": "urn:uuid:b4ca464b-a38d-406a-a1fc-1266c1f70e3f",
          "display": "Aniela Prażmo"
        },
        "effectiveDateTime": "2025-07-05T13:25:25Z"
      }
    },
    {
      "fullUrl": "urn:uuid:325feea1-40ef-4a9b-84cc-d650198fb20a",
      "resource": {
        "resourceType": "Observation",
        "id": "325feea1-40ef-4a9b-84cc-d650198fb20a",
        "meta": {
          "profile": [
            "http://hl7.eu/fhir/laboratory/StructureDefinition/Observation-resultslab-eu-lab"
          ]
        },
        "performer": [
          {
            "display": "The Central European Lab"
          }
        ],
        "category": [
          {
            "coding": [
              {
                "system": "http://terminology.hl7.org/CodeSystem/observation-category",
                "code": "laboratory"
              }
            ]
          }
        ],
        "code": {
          "coding": [
            {
              "code": "32207-3",
              "system": "http://loinc.org",
              "display": "Platelet distribution width [Entitic volume] in Blood by Automated count"
            }
          ],
          "text": "Platelet distribution width [Entitic volume] in Blood by Automated count"
        },
        "valueQuantity": {
          "system": "http://unitsofmeasure.org",
          "value": 491.4,
          "unit": "fL",
          "code": "fL"
        },
        "referenceRange": [
          {
            "low": {
              "value": 13.4,
              "code": "fL",
              "system": "http://unitsofmeasure.org"
            }
          },
          {
            "high": {
              "value": 17.4,
              "code": "fL",
              "system": "http://unitsofmeasure.org"
            }
          }
        ],
        "interpretation": [
          {
            "coding": [
              {
                "code": "H",
                "system": "http://terminology.hl7.org/CodeSystem/v3-ObservationInterpretation",
                "display": "High"
              }
            ]
          }
        ],
        "text": {
          "status": "generated",
          "div": "<div xmlns=\"http://www.w3.org/1999/xhtml\"><table class=\"hl7__eu__lab__report\"><tr><th>Test</th><th>05-Jul-2025</th><th>Reference&#xA0;Range</th><th>Unit</th></tr><tr><td>Platelet distribution width [Entitic volume] in Blood by Automated count</td><td>491.4</td><td>13.4 - 17.4</td><td>H</td><td>fL</td></tr></table></div>"
        },
        "status": "final",
        "subject": {
          "reference": "urn:uuid:b4ca464b-a38d-406a-a1fc-1266c1f70e3f",
          "display": "Aniela Prażmo"
        },
        "effectiveDateTime": "2025-07-05T13:25:25Z"
      }
    },
    {
      "fullUrl": "urn:uuid:9cebd235-fbed-4622-87d7-9d42b1e12fc0",
      "resource": {
        "resourceType": "Observation",
        "id": "9cebd235-fbed-4622-87d7-9d42b1e12fc0",
        "meta": {
          "profile": [
            "http://hl7.eu/fhir/laboratory/StructureDefinition/Observation-resultslab-eu-lab"
          ]
        },
        "performer": [
          {
            "display": "The Central European Lab"
          }
        ],
        "category": [
          {
            "coding": [
              {
                "system": "http://terminology.hl7.org/CodeSystem/observation-category",
                "code": "laboratory"
              }
            ]
          }
        ],
        "code": {
          "coding": [
            {
              "code": "32623-1",
              "system": "http://loinc.org",
              "display": "Platelet mean volume [Entitic volume] in Blood by Automated count"
            }
          ],
          "text": "Platelet mean volume [Entitic volume] in Blood by Automated count"
        },
        "valueQuantity": {
          "system": "http://unitsofmeasure.org",
          "value": 9.8,
          "unit": "fL",
          "code": "fL"
        },
        "referenceRange": [
          {
            "low": {
              "value": 7.4,
              "code": "fL",
              "system": "http://unitsofmeasure.org"
            }
          },
          {
            "high": {
              "value": 12,
              "code": "fL",
              "system": "http://unitsofmeasure.org"
            }
          }
        ],
        "text": {
          "status": "generated",
          "div": "<div xmlns=\"http://www.w3.org/1999/xhtml\"><table class=\"hl7__eu__lab__report\"><tr><th>Test</th><th>05-Jul-2025</th><th>Reference&#xA0;Range</th><th>Unit</th></tr><tr><td>Platelet mean volume [Entitic volume] in Blood by Automated count</td><td>9.8</td><td>7.4 - 12</td><td></td><td>fL</td></tr></table></div>"
        },
        "status": "final",
        "subject": {
          "reference": "urn:uuid:b4ca464b-a38d-406a-a1fc-1266c1f70e3f",
          "display": "Aniela Prażmo"
        },
        "effectiveDateTime": "2025-07-05T13:25:25Z"
      }
    },
    {
      "fullUrl": "urn:uuid:d2738d39-6556-49cb-afc1-c3d6ed6b5801",
      "resource": {
        "resourceType": "DeviceUseStatement",
        "id": "d2738d39-6556-49cb-afc1-c3d6ed6b5801",
        "meta": {
          "profile": [
            "http://hl7.eu/fhir/eps/StructureDefinition/deviceUseStatement-eu-eps"
          ]
        },
        "timingPeriod": {
          "start": "1948-06-12"
        },
        "text": {
          "status": "generated",
          "div": "<div xmlns=\"http://www.w3.org/1999/xhtml\"><table class=\"hl7__ips\"><tr><td>Home nebulizer (physical object)</td><td><span class=\"nb\">12-Jun-1948</span></td></tr></table></div>"
        },
        "status": "active",
        "device": {
          "reference": "urn:uuid:e3c3a706-0b5b-4802-8eb9-4674ff18e229",
          "display": "Home nebulizer (physical object)"
        },
        "subject": {
          "reference": "urn:uuid:b4ca464b-a38d-406a-a1fc-1266c1f70e3f",
          "display": "Aniela Prażmo"
        }
      }
    },
    {
      "fullUrl": "urn:uuid:e3c3a706-0b5b-4802-8eb9-4674ff18e229",
      "resource": {
        "resourceType": "Device",
        "id": "e3c3a706-0b5b-4802-8eb9-4674ff18e229",
        "meta": {
          "profile": [
            "http://hl7.eu/fhir/eps/StructureDefinition/device-eu-eps"
          ]
        },
        "udiCarrier": [
          {
            "id": "(01)83330727970911(11)480522(17)730606(10)6201689797(21)671509153129369336"
          }
        ],
        "status": "active",
        "patient": {
          "reference": "urn:uuid:b4ca464b-a38d-406a-a1fc-1266c1f70e3f",
          "display": "Aniela Prażmo"
        },
        "type": {
          "coding": [
            {
              "code": "170615005",
              "system": "http://snomed.info/sct",
              "display": "Home nebulizer (physical object)"
            }
          ]
        }
      }
    },
    {
      "fullUrl": "urn:uuid:b1ba9572-8f4d-49a8-bf5a-e5b5b3629b59",
      "resource": {
        "resourceType": "Device",
        "id": "b1ba9572-8f4d-49a8-bf5a-e5b5b3629b59",
        "deviceName": [
          {
            "name": "SYNDERAI Synthetic Generator",
            "type": "manufacturer-name"
          }
        ],
        "version": [
          {
            "value": "5.0"
          }
        ],
        "text": {
          "status": "generated",
          "div": "<div xmlns=\"http://www.w3.org/1999/xhtml\">SYNDERAI Synthetic Generator v5.0</div>"
        },
        "status": "active\"",
        "distinctIdentifier": "synderai-generator-50",
        "manufacturer": "SYNDERAI Project"
      }
    },
    {
      "fullUrl": "urn:uuid:add94b03-1778-4de3-bdd7-760730b25fcf",
      "resource": {
        "resourceType": "Provenance",
        "id": "add94b03-1778-4de3-bdd7-760730b25fcf",
        "target": [
          {
            "reference": "Patient/b4ca464b-a38d-406a-a1fc-1266c1f70e3f"
          },
          {
            "reference": "Bundle/5a29a07f-bdae-42d8-86c8-8e12042e3e85"
          },
          {
            "reference": "Composition/6128d4c8-8ac3-46a7-8a03-c716d62995a7"
          },
          {
            "reference": "PractitionerRole/f8c5c6cd-d472-48b1-a4a4-7708ccc6cdb6"
          },
          {
            "reference": "Organization/1e45132c-baf8-4b2e-9f63-61b1d29c7342"
          },
          {
            "reference": "Practitioner/1622d0b7-1d7a-443e-a9b8-14c61d415a7b"
          }
        ],
        "activity": {
          "text": "Synthetic Example Data Generation"
        },
        "policy": [
          "https://synderai.net/synderai-synthetic-data-policy"
        ],
        "agent": [
          {
            "type": {
              "text": "author"
            },
            "who": {
              "reference": "Device/b1ba9572-8f4d-49a8-bf5a-e5b5b3629b59"
            }
          }
        ],
        "reason": [
          {
            "text": "Interoperability Testing and Training (non-clinical use)"
          }
        ],
        "text": {
          "status": "generated",
          "div": "<div xmlns=\"http://www.w3.org/1999/xhtml\">Provenance for SYNDERAI Synthetic Example Data Resource</div>"
        },
        "recorded": "2025-07-05T13:25:25Z"
      }
    }
  ],
  "type": "document",
  "timestamp": "2025-07-05T13:25:25Z"
}
