<Bundle xmlns="http://hl7.org/fhir">
   <id value="43a0b203-416d-4ae8-9fe2-73a47389f444"/>
   <meta>
      <profile value="http://hl7.eu/fhir/eps/StructureDefinition/bundle-eu-eps"/>
   </meta>
   <identifier>
      <system value="urn:oid:2.16.840.1.113883.2.51.999"/>
      <value value="d46884aa-151d-4c10-8c66-99026f492c99"/>
      <assigner>
         <display value="HL7 Europe"/>
      </assigner>
   </identifier>
   <type value="document"/>
   <timestamp value="2025-01-19T13:31:07Z"/>
   <entry>
      <fullUrl value="urn:uuid:3d930115-860e-4891-9f6c-906de0e83229"/>
      <resource>
         <Composition>
            <id value="3d930115-860e-4891-9f6c-906de0e83229"/>
            <meta>
               <profile value="http://hl7.eu/fhir/eps/StructureDefinition/composition-eu-eps"/>
               <security>
                  <system value="http://terminology.hl7.org/CodeSystem/v3-ActReason"/>
                  <code value="HTEST"/>
               </security>
               <security>
                  <system value="http://terminology.hl7.org/CodeSystem/v3-ActReason"/>
                  <code value="TRAIN"/>
               </security>
               <tag>
                  <system value="https://synderai.net/fhir/CodeSystem/tags"/>
                  <code value="synthetic"/>
                  <display value="SYNDERAI Synthetic data"/>
               </tag>
            </meta>
            <identifier>
               <system value="urn:oid:2.16.840.1.113883.2.51.999"/>
               <value value="61a43696-255c-45d1-ba79-427ace7d7e5c"/>
               <assigner>
                  <display value="HL7 Europe"/>
               </assigner>
            </identifier>
            <status value="final"/>
            <type>
               <coding>
                  <system value="http://loinc.org"/>
                  <code value="60591-5"/>
                  <display value="Patient summary Document"/>
               </coding>
               <text value="Patient summary Document"/>
            </type>
            <subject>
               <reference value="urn:uuid:805cec96-0a32-48bc-b5cd-0aa267f0941a"/>
               <display value="Russell Khan"/>
            </subject>
            <date value="2025-01-19"/>
            <author>
               <reference value="urn:uuid:c1d8dfa0-e1f6-4881-9f91-cff6850e970b"/>
            </author>
            <title value="European Patient Summary"/>
            <confidentiality value="N"/>
            <custodian>
               <reference value="urn:uuid:ace9ffbf-ec4a-4da5-8903-27fba98347e3"/>
            </custodian>
            <section>
               <title value="Problem list"/>
               <code>
                  <coding>
                     <system value="http://loinc.org"/>
                     <code value="11450-4"/>
                     <display value="Problem list - Reported"/>
                  </coding>
               </code>
               <text>
                  <status value="generated"/>
                  <div xmlns="http://www.w3.org/1999/xhtml">
                     <table class="hl7__ips">
                        <tr>
                           <th>Condition</th>
                           <th>Onset Date</th>
                           <th>Status</th>
                        </tr>
                        <tr>
                           <td>Essential hypertension</td>
                           <td>
                              <span class="nb">15-Sep-2002</span>
                           </td>
                           <td>active</td>
                        </tr>
                     </table>
                  </div>
               </text>
               <entry>
                  <reference value="urn:uuid:2f3f3a99-e43c-42fa-89df-309477f5494f"/>
               </entry>
            </section>
            <section>
               <title value="Medication list"/>
               <code>
                  <coding>
                     <system value="http://loinc.org"/>
                     <code value="10160-0"/>
                     <display value="History of Medication use Narrative"/>
                  </coding>
               </code>
               <text>
                  <status value="generated"/>
                  <div xmlns="http://www.w3.org/1999/xhtml">
                     <table class="hl7__ips">
                        <tr>
                           <th>Medication</th>
                           <th>Since</th>
                           <th>Form</th>
                           <th>Dosage</th>
                           <th>Reason</th>
                        </tr>
                        <tr>
                           <td>Amlodipine (as amlodipine besylate) 2.5 mg oral tablet</td>
                           <td>
                              <span class="nb">2025-01-19</span>
                           </td>
                           <td>-</td>
                           <td>1 tablet (2.5 mg) by mouth once daily</td>
                           <td>Essential hypertension (disorder)</td>
                        </tr>
                        <tr>
                           <td>Hydrochlorothiazide 25 mg oral tablet</td>
                           <td>
                              <span class="nb">2025-01-19</span>
                           </td>
                           <td>-</td>
                           <td>1 tablet (25 mg) by mouth once daily</td>
                           <td>Essential hypertension (disorder)</td>
                        </tr>
                        <tr>
                           <td>Lisinopril 10 mg oral tablet</td>
                           <td>
                              <span class="nb">2025-01-19</span>
                           </td>
                           <td>-</td>
                           <td>1 tablet (10 mg) by mouth once daily</td>
                           <td>Essential hypertension (disorder)</td>
                        </tr>
                        <tr>
                           <td>Albuterol (as albuterol sulfate) 830 microgram/mL solution for inhalation</td>
                           <td>
                              <span class="nb">2025-01-19</span>
                           </td>
                           <td>-</td>
                           <td>2.5 mg (3 mL of 830 microgram/mL solution) via nebulizer every 4 to 6 hours as needed</td>
                           <td>Childhood asthma</td>
                        </tr>
                        <tr>
                           <td>120 ACTUAT fluticasone propionate 0.044 MG/ACTUAT Metered Dose Inhaler [Flovent]</td>
                           <td>
                              <span class="nb">2025-01-19</span>
                           </td>
                           <td>-</td>
                           <td>44 mcg inhaled twice daily</td>
                           <td>Childhood asthma</td>
                        </tr>
                     </table>
                  </div>
               </text>
               <entry>
                  <reference value="urn:uuid:083fed8e-0479-4f97-a580-cae224a0ccdd"/>
               </entry>
               <entry>
                  <reference value="urn:uuid:25d04c31-2bbd-4774-926d-1bff0792bcf0"/>
               </entry>
               <entry>
                  <reference value="urn:uuid:561583c6-38a8-441e-809d-f5b4e76aac20"/>
               </entry>
               <entry>
                  <reference value="urn:uuid:910a2a0e-8d34-4608-8e57-9e89d555a32a"/>
               </entry>
               <entry>
                  <reference value="urn:uuid:ecc2c713-fc6e-4201-ad6b-71fd468c6729"/>
               </entry>
            </section>
            <section>
               <title value="Immunizations list"/>
               <code>
                  <coding>
                     <system value="http://loinc.org"/>
                     <code value="11369-6"/>
                     <display value="History of Immunization note"/>
                  </coding>
               </code>
               <text>
                  <status value="generated"/>
                  <div xmlns="http://www.w3.org/1999/xhtml">
                     <table class="hl7__ips">
                        <tr>
                           <th>Vaccine</th>
                           <th>Date</th>
                        </tr>
                        <tr>
                           <td>Influenza virus antigen only vaccine product</td>
                           <td>
                              <span class="nb">19-Jan-2025</span>
                           </td>
                        </tr>
                        <tr>
                           <td>COVID-19 non-replicating viral vector vaccine</td>
                           <td>
                              <span class="nb">25-Apr-2021</span>
                           </td>
                        </tr>
                        <tr>
                           <td>Hepatitis A virus antigen only vaccine product</td>
                           <td>
                              <span class="nb">27-Dec-2020</span>
                           </td>
                        </tr>
                        <tr>
                           <td>Clostridium tetani toxoid antigen adsorbed only vaccine product</td>
                           <td>
                              <span class="nb">27-Dec-2020</span>
                           </td>
                        </tr>
                     </table>
                  </div>
               </text>
               <entry>
                  <reference value="urn:uuid:779cd6e6-34d5-49ba-bc2d-2cedf92543df"/>
               </entry>
               <entry>
                  <reference value="urn:uuid:440c3444-f243-48a8-ab50-de1cd3da67ec"/>
               </entry>
               <entry>
                  <reference value="urn:uuid:6aeb5541-f51a-457d-9a29-45204bac1c79"/>
               </entry>
               <entry>
                  <reference value="urn:uuid:8bd73c1a-6984-46f6-b79d-c95c7318449c"/>
               </entry>
            </section>
            <section>
               <title value="Procedure History list"/>
               <code>
                  <coding>
                     <system value="http://loinc.org"/>
                     <code value="47519-4"/>
                     <display value="History of Procedures Document"/>
                  </coding>
               </code>
               <text>
                  <status value="generated"/>
                  <div xmlns="http://www.w3.org/1999/xhtml">
                     <table class="hl7__ips">
                        <tr>
                           <th>Procedure</th>
                           <th>Date</th>
                           <th>Reason</th>
                        </tr>
                        <tr>
                           <td>Plain X-ray of clavicle</td>
                           <td>
                              <span class="nb">26-Sep-2018</span>
                           </td>
                           <td>-</td>
                        </tr>
                        <tr>
                           <td>Admission to orthopedic department</td>
                           <td>
                              <span class="nb">26-Sep-2018</span>
                           </td>
                           <td>Fracture of clavicle</td>
                        </tr>
                     </table>
                  </div>
               </text>
               <entry>
                  <reference value="urn:uuid:8ab0dc00-754a-49a8-b3a6-b0d9777f555e"/>
               </entry>
               <entry>
                  <reference value="urn:uuid:accb63a1-0cd1-4476-9001-9160ef886d7c"/>
               </entry>
            </section>
            <section>
               <title value="Allergies and Intolerances"/>
               <code>
                  <coding>
                     <system value="http://loinc.org"/>
                     <code value="48765-2"/>
                     <display value="Allergies and adverse reactions Document"/>
                  </coding>
               </code>
               <text>
                  <status value="generated"/>
                  <div xmlns="http://www.w3.org/1999/xhtml">
                     <table class="hl7__ips">
                        <tr>
                           <th>Allergy/Intolerance</th>
                           <th>Onset Date</th>
                           <th>Status</th>
                           <th>Type</th>
                           <th>Reaction</th>
                        </tr>
                        <tr>
                           <td/>
                           <td>?</td>
                           <td>active</td>
                           <td>?</td>
                           <td/>
                        </tr>
                     </table>
                  </div>
               </text>
               <entry>
                  <reference value="urn:uuid:ae8a3dfa-189e-4540-96cd-8853f5470644"/>
               </entry>
            </section>
            <section>
               <title value="Care Plan"/>
               <code>
                  <coding>
                     <system value="http://loinc.org"/>
                     <code value="18776-5"/>
                     <display value="Plan of care note"/>
                  </coding>
               </code>
               <text>
                  <status value="generated"/>
                  <div xmlns="http://www.w3.org/1999/xhtml">
                     <table class="hl7__ips">
                        <tr>
                           <th>Active Planned Care / Goals</th>
                           <th>Start Date</th>
                           <th>Reason</th>
                        </tr>
                        <tr>
                           <td>Lifestyle education regarding hypertension</td>
                           <td>
                              <span class="nb">15-Sep-2002</span>
                           </td>
                           <td>Essential hypertension (disorder)</td>
                        </tr>
                        <tr>
                           <td>
                              <ul>
                                 <li>Achieve and maintain blood pressure below 130/80 mmHg through lifestyle modifications.</li>
                                 <li>Patient will demonstrate understanding of hypertension and recommended lifestyle changes (diet, exercise, sodium reduction, weight management, alcohol moderation) within 3 months.</li>
                              </ul>
                           </td>
                           <td/>
                           <td/>
                        </tr>
                        <tr>
                           <td>Weight management program</td>
                           <td>
                              <span class="nb">15-Jun-1986</span>
                           </td>
                           <td>-</td>
                        </tr>
                        <tr>
                           <td>Asthma self management</td>
                           <td>
                              <span class="nb">02-Feb-1983</span>
                           </td>
                           <td>Childhood asthma</td>
                        </tr>
                        <tr>
                           <td>
                              <ul>
                                 <li>Patient will maintain peak expiratory flow at or above 80% of personal best through adherence to asthma self-management plan.</li>
                                 <li>Patient will have no more than 2 uses of rescue inhaler per week.</li>
                                 <li>Patient will experience daytime asthma symptoms no more than 2 days per week.</li>
                              </ul>
                           </td>
                           <td/>
                           <td/>
                        </tr>
                     </table>
                  </div>
               </text>
               <entry>
                  <reference value="urn:uuid:71e9e1c3-62af-4a32-ae9a-1860d1b3e5d7"/>
               </entry>
               <entry>
                  <reference value="urn:uuid:0a5165b6-c0dc-44ba-a470-11b70c74e1d7"/>
               </entry>
               <entry>
                  <reference value="urn:uuid:4a0843cb-fd48-4d82-9947-2cdf2227a46b"/>
               </entry>
            </section>
            <section>
               <title value="Vital Signs"/>
               <code>
                  <coding>
                     <system value="http://loinc.org"/>
                     <code value="8716-3"/>
                     <display value="Vital signs note"/>
                  </coding>
               </code>
               <text>
                  <status value="generated"/>
                  <div xmlns="http://www.w3.org/1999/xhtml">
                     <table class="hl7__ips">
                        <tr>
                           <th>Vital Signs</th>
                           <th>2025-03-13</th>
                           <th>2025-01-19</th>
                        </tr>
                        <tr>
                           <td>Body temperature</td>
                           <td>37.4 Cel</td>
                           <td>-</td>
                        </tr>
                        <tr>
                           <td>Body Height</td>
                           <td>-</td>
                           <td>168.1 cm</td>
                        </tr>
                        <tr>
                           <td>Pain severity - 0-10 verbal numeric rating [Score] - Reported</td>
                           <td>-</td>
                           <td>0 {score}</td>
                        </tr>
                        <tr>
                           <td>Body Weight</td>
                           <td>-</td>
                           <td>80.4 kg</td>
                        </tr>
                        <tr>
                           <td>Body mass index (BMI) [Ratio]</td>
                           <td>-</td>
                           <td>28.5 kg/m2</td>
                        </tr>
                        <tr>
                           <td>Diastolic Blood Pressure</td>
                           <td>-</td>
                           <td>56 mm[Hg]</td>
                        </tr>
                        <tr>
                           <td>Systolic Blood Pressure</td>
                           <td>-</td>
                           <td>76 mm[Hg]</td>
                        </tr>
                        <tr>
                           <td>Heart rate</td>
                           <td>-</td>
                           <td>84 /min</td>
                        </tr>
                        <tr>
                           <td>Respiratory rate</td>
                           <td>-</td>
                           <td>14 /min</td>
                        </tr>
                     </table>
                  </div>
               </text>
               <entry>
                  <reference value="urn:uuid:8f9c7098-b1d4-40bd-b869-7c46c13fddee"/>
               </entry>
               <entry>
                  <reference value="urn:uuid:9dfd0cf2-1dd5-4265-961f-43b1b6882a1b"/>
               </entry>
               <entry>
                  <reference value="urn:uuid:91532997-c360-4b76-87af-41f78ab2ccd7"/>
               </entry>
               <entry>
                  <reference value="urn:uuid:a40d5247-6de3-49ec-a26b-d908f31f1b68"/>
               </entry>
               <entry>
                  <reference value="urn:uuid:c4fd165e-f274-479d-9667-42b33d2ac41f"/>
               </entry>
               <entry>
                  <reference value="urn:uuid:745a656c-e461-4608-af6d-1efbd53f0488"/>
               </entry>
               <entry>
                  <reference value="urn:uuid:9568b8ce-939c-4588-a5b1-6ab07c8caa12"/>
               </entry>
               <entry>
                  <reference value="urn:uuid:2060df86-d2c1-4651-a1f7-34f70c238e33"/>
               </entry>
               <entry>
                  <reference value="urn:uuid:c2e96a67-d118-4e1b-8cb5-f7a5d2fd2d19"/>
               </entry>
            </section>
            <section>
               <title value="Relevant diagnostic tests/laboratory data"/>
               <code>
                  <coding>
                     <system value="http://loinc.org"/>
                     <code value="30954-2"/>
                     <display value="Relevant diagnostic tests/laboratory data note"/>
                  </coding>
               </code>
               <text>
                  <status value="generated"/>
                  <div xmlns="http://www.w3.org/1999/xhtml">
                     <table class="hl7__ips">
                        <table class="hl7__ips">
                           <thead>
                              <tr>
                                 <th>Recent Lab Observations</th>
                                 <th>19-JAN-2025</th>
                                 <th>Reference Range</th>
                                 <th>Unit</th>
                              </tr>
                           </thead>
                           <tbody>
                              <tr>
                                 <td>Cholesterol [Mass/volume] in Serum or Plasma</td>
                                 <td>
                                    <strong>255.1 H</strong>
                                 </td>
                                 <td>0 - 200</td>
                                 <td>mg/dL</td>
                              </tr>
                              <tr>
                                 <td>Triglyceride [Mass/volume] in Serum or Plasma</td>
                                 <td>110.8</td>
                                 <td>0 - 150</td>
                                 <td>mg/dL</td>
                              </tr>
                              <tr>
                                 <td>Cholesterol in LDL [Mass/volume] in Serum or Plasma by Direct assay</td>
                                 <td>
                                    <strong>181.2 H</strong>
                                 </td>
                                 <td>0 - 130</td>
                                 <td>mg/dL</td>
                              </tr>
                              <tr>
                                 <td>Cholesterol in HDL [Mass/volume] in Serum or Plasma</td>
                                 <td>51.8</td>
                                 <td>40 - 60</td>
                                 <td>mg/dL</td>
                              </tr>
                           </tbody>
                        </table>
                     </table>
                  </div>
               </text>
               <entry>
                  <reference value="urn:uuid:4ba12d87-6876-4505-a38b-ab2a324e4891"/>
               </entry>
               <entry>
                  <reference value="urn:uuid:8a961050-7227-45e4-b60a-686721e9f481"/>
               </entry>
               <entry>
                  <reference value="urn:uuid:c5baa484-e340-4904-a3bb-adc60da36af3"/>
               </entry>
               <entry>
                  <reference value="urn:uuid:3724592d-b3a2-4acc-a53d-153701f74dbb"/>
               </entry>
            </section>
         </Composition>
      </resource>
   </entry>
   <entry>
      <fullUrl value="urn:uuid:805cec96-0a32-48bc-b5cd-0aa267f0941a"/>
      <resource>
         <Patient>
            <id value="805cec96-0a32-48bc-b5cd-0aa267f0941a"/>
            <meta>
               <profile value="http://hl7.eu/fhir/eps/StructureDefinition/patient-eu-eps"/>
               <security>
                  <system value="http://terminology.hl7.org/CodeSystem/v3-ActReason"/>
                  <code value="HTEST"/>
               </security>
               <security>
                  <system value="http://terminology.hl7.org/CodeSystem/v3-ActReason"/>
                  <code value="TRAIN"/>
               </security>
               <tag>
                  <system value="https://synderai.net/fhir/CodeSystem/tags"/>
                  <code value="synthetic"/>
                  <display value="SYNDERAI Synthetic data"/>
               </tag>
            </meta>
            <text>
               <status value="generated"/>
               <div xmlns="http://www.w3.org/1999/xhtml">
                  <table class="hl7__ips">
                     <tr>
                        <td>Russell Khan</td>
                        <td>male</td>
                        <td>29-Aug-1980</td>
                     </tr>
                  </table>
               </div>
            </text>
            <extension url="http://hl7.org/fhir/StructureDefinition/patient-nationality">
               <valueCodeableConcept>
                  <coding>
                     <system value="http://hl7.org/fhir/ValueSet/country"/>
                     <code value="GB"/>
                  </coding>
               </valueCodeableConcept>
            </extension>
            <identifier>
               <type>
                  <coding>
                     <system value="http://terminology.hl7.org/CodeSystem/v2-0203"/>
                     <code value="PT"/>
                  </coding>
               </type>
               <system value="http://ec.europa.eu/identifier/eci"/>
               <value value="7982-255119-2"/>
            </identifier>
            <identifier>
               <type>
                  <coding>
                     <system value="http://terminology.hl7.org/CodeSystem/v2-0203"/>
                     <code value="MR"/>
                  </coding>
               </type>
               <system value="http://local.setting.eu/identifier"/>
               <value value="7070b0e2-4aa2-c981-d552-92289a13285c"/>
            </identifier>
            <name>
               <family value="Khan"/>
            </name>
            <name>
               <given value="Russell"/>
            </name>
            <name>
               <text value="Russell Khan"/>
            </name>
            <telecom>
               <system value="phone"/>
               <value value="0115 4960345"/>
            </telecom>
            <gender value="male"/>
            <birthDate value="1980-08-29"/>
            <address>
               <use value="home"/>
               <type value="physical"/>
               <line value="1 Holly well"/>
               <city value="Allantown"/>
               <postalCode value="B9"/>
               <country value="United Kingdom"/>
            </address>
         </Patient>
      </resource>
   </entry>
   <entry>
      <fullUrl value="urn:uuid:c1d8dfa0-e1f6-4881-9f91-cff6850e970b"/>
      <resource>
         <PractitionerRole>
            <id value="c1d8dfa0-e1f6-4881-9f91-cff6850e970b"/>
            <meta>
               <profile value="http://hl7.eu/fhir/base/StructureDefinition/practitionerRole-eu"/>
            </meta>
            <text>
               <status value="generated"/>
               <div xmlns="http://www.w3.org/1999/xhtml">
                  <table class="hl7__ips">Provider Role Id c1d8dfa0-e1f6-4881-9f91-cff6850e970b</table>
               </div>
            </text>
            <practitioner>
               <reference value="urn:uuid:bdfbab0f-dc50-4bf2-9a01-9de3bf81d9e6"/>
            </practitioner>
            <organization>
               <reference value="urn:uuid:ace9ffbf-ec4a-4da5-8903-27fba98347e3"/>
            </organization>
         </PractitionerRole>
      </resource>
   </entry>
   <entry>
      <fullUrl value="urn:uuid:bdfbab0f-dc50-4bf2-9a01-9de3bf81d9e6"/>
      <resource>
         <Practitioner>
            <id value="bdfbab0f-dc50-4bf2-9a01-9de3bf81d9e6"/>
            <meta>
               <profile value="http://hl7.eu/fhir/base/StructureDefinition/practitioner-eu"/>
            </meta>
            <text>
               <status value="generated"/>
               <div xmlns="http://www.w3.org/1999/xhtml">
                  <table class="hl7__ips">Dr. Hel Ping</table>
               </div>
            </text>
            <name>
               <family value="Ping"/>
               <given value="Hel"/>
               <prefix value="Dr."/>
            </name>
         </Practitioner>
      </resource>
   </entry>
   <entry>
      <fullUrl value="urn:uuid:ace9ffbf-ec4a-4da5-8903-27fba98347e3"/>
      <resource>
         <Organization>
            <id value="ace9ffbf-ec4a-4da5-8903-27fba98347e3"/>
            <meta>
               <profile value="http://hl7.eu/fhir/base/StructureDefinition/organization-eu"/>
            </meta>
            <text>
               <status value="generated"/>
               <div xmlns="http://www.w3.org/1999/xhtml">
                  <table class="hl7__ips">Birmingham Children's Hospital</table>
               </div>
            </text>
            <identifier>
               <system value="urn:oid:2.16.840.1.113883.2.51.999"/>
               <value value="53c65e54-7d06-45f7-99f0-515da5fb8fbd"/>
               <assigner>
                  <display value="HL7 Europe"/>
               </assigner>
            </identifier>
            <name value="Birmingham Children&amp;#039;s Hospital"/>
            <address>
               <city value="Birmingham"/>
               <postalCode value="B4 6"/>
               <country value="United Kingdom"/>
            </address>
         </Organization>
      </resource>
   </entry>
   <entry>
      <fullUrl value="urn:uuid:2f3f3a99-e43c-42fa-89df-309477f5494f"/>
      <resource>
         <Condition>
            <id value="2f3f3a99-e43c-42fa-89df-309477f5494f"/>
            <meta>
               <profile value="http://hl7.org/fhir/uv/ips/StructureDefinition/Condition-uv-ips"/>
            </meta>
            <text>
               <status value="generated"/>
               <div xmlns="http://www.w3.org/1999/xhtml">
                  <table class="hl7__ips">
                     <tr>
                        <td>Essential hypertension</td>
                        <td>
                           <span class="nb">15-Sep-2002</span>
                        </td>
                        <td>active</td>
                     </tr>
                  </table>
               </div>
            </text>
            <category>
               <coding>
                  <system value="http://terminology.hl7.org/CodeSystem/condition-category"/>
                  <code value="problem-list-item"/>
                  <display value="Problem List Item"/>
               </coding>
            </category>
            <code>
               <coding>
                  <system value="http://snomed.info/sct"/>
                  <code value="59621000"/>
                  <display value="Essential hypertension (disorder)"/>
               </coding>
               <text value="Essential hypertension"/>
            </code>
            <subject>
               <reference value="urn:uuid:"/>
               <display value="Russell Khan"/>
            </subject>
            <onsetDateTime value="2002-09-15"/>
            <asserter>
               <reference value="urn:uuid:"/>
               <display value="Birmingham Children&amp;#039;s Hospital"/>
            </asserter>
         </Condition>
      </resource>
   </entry>
   <entry>
      <fullUrl value="urn:uuid:dd0238fc-0b0a-4431-93e9-5eebb7ba6bfe"/>
      <resource>
         <Condition>
            <id value="dd0238fc-0b0a-4431-93e9-5eebb7ba6bfe"/>
            <meta>
               <profile value="http://hl7.org/fhir/uv/ips/StructureDefinition/Condition-uv-ips"/>
            </meta>
            <text>
               <status value="generated"/>
               <div xmlns="http://www.w3.org/1999/xhtml">
                  <table class="hl7__ips">
                     <tr>
                        <td>
                           <span class="grayedout">Acute viral pharyngitis</span>
                        </td>
                        <td>
                           <span class="nb">13-Mar-2025 - 23-Mar-2025</span>
                        </td>
                        <td>
                           <span class="grayedout">inactive</span>
                        </td>
                     </tr>
                  </table>
               </div>
            </text>
            <category>
               <coding>
                  <system value="http://terminology.hl7.org/CodeSystem/condition-category"/>
                  <code value="problem-list-item"/>
                  <display value="Problem List Item"/>
               </coding>
            </category>
            <code>
               <coding>
                  <system value="http://snomed.info/sct"/>
                  <code value="195662009"/>
                  <display value="Acute viral pharyngitis (disorder)"/>
               </coding>
               <text value="Acute viral pharyngitis"/>
            </code>
            <subject>
               <reference value="urn:uuid:"/>
               <display value="Russell Khan"/>
            </subject>
            <onsetDateTime value="2025-03-13"/>
            <abatementDateTime value="2025-03-23"/>
            <asserter>
               <reference value="urn:uuid:"/>
               <display value="Birmingham Children&amp;#039;s Hospital"/>
            </asserter>
         </Condition>
      </resource>
   </entry>
   <entry>
      <fullUrl value="urn:uuid:42c93a54-0a5d-498a-bb7c-375c81e29161"/>
      <resource>
         <Condition>
            <id value="42c93a54-0a5d-498a-bb7c-375c81e29161"/>
            <meta>
               <profile value="http://hl7.org/fhir/uv/ips/StructureDefinition/Condition-uv-ips"/>
            </meta>
            <text>
               <status value="generated"/>
               <div xmlns="http://www.w3.org/1999/xhtml">
                  <table class="hl7__ips">
                     <tr>
                        <td>
                           <span class="grayedout">Acute infective cystitis</span>
                        </td>
                        <td>
                           <span class="nb">01-Nov-2021 - 03-Nov-2021</span>
                        </td>
                        <td>
                           <span class="grayedout">inactive</span>
                        </td>
                     </tr>
                  </table>
               </div>
            </text>
            <category>
               <coding>
                  <system value="http://terminology.hl7.org/CodeSystem/condition-category"/>
                  <code value="problem-list-item"/>
                  <display value="Problem List Item"/>
               </coding>
            </category>
            <code>
               <coding>
                  <system value="http://snomed.info/sct"/>
                  <code value="307426000"/>
                  <display value="Acute infective cystitis (disorder)"/>
               </coding>
               <text value="Acute infective cystitis"/>
            </code>
            <subject>
               <reference value="urn:uuid:"/>
               <display value="Russell Khan"/>
            </subject>
            <onsetDateTime value="2021-11-01"/>
            <abatementDateTime value="2021-11-03"/>
            <asserter>
               <reference value="urn:uuid:"/>
               <display value="Birmingham Children&amp;#039;s Hospital"/>
            </asserter>
         </Condition>
      </resource>
   </entry>
   <entry>
      <fullUrl value="urn:uuid:0ffb3a27-6adf-45ac-90a2-fb6c1a1a022f"/>
      <resource>
         <Condition>
            <id value="0ffb3a27-6adf-45ac-90a2-fb6c1a1a022f"/>
            <meta>
               <profile value="http://hl7.org/fhir/uv/ips/StructureDefinition/Condition-uv-ips"/>
            </meta>
            <text>
               <status value="generated"/>
               <div xmlns="http://www.w3.org/1999/xhtml">
                  <table class="hl7__ips">
                     <tr>
                        <td>
                           <span class="grayedout">Fracture of clavicle</span>
                        </td>
                        <td>
                           <span class="nb">26-Sep-2018 - 10-Nov-2018</span>
                        </td>
                        <td>
                           <span class="grayedout">inactive</span>
                        </td>
                     </tr>
                  </table>
               </div>
            </text>
            <category>
               <coding>
                  <system value="http://terminology.hl7.org/CodeSystem/condition-category"/>
                  <code value="problem-list-item"/>
                  <display value="Problem List Item"/>
               </coding>
            </category>
            <code>
               <coding>
                  <system value="http://snomed.info/sct"/>
                  <code value="58150001"/>
                  <display value="Fracture of clavicle (disorder)"/>
               </coding>
               <text value="Fracture of clavicle"/>
            </code>
            <subject>
               <reference value="urn:uuid:"/>
               <display value="Russell Khan"/>
            </subject>
            <onsetDateTime value="2018-09-26"/>
            <abatementDateTime value="2018-11-10"/>
            <asserter>
               <reference value="urn:uuid:"/>
               <display value="Birmingham Children&amp;#039;s Hospital"/>
            </asserter>
         </Condition>
      </resource>
   </entry>
   <entry>
      <fullUrl value="urn:uuid:9e2ebf02-b9e9-4cdd-a071-d538976119e4"/>
      <resource>
         <Condition>
            <id value="9e2ebf02-b9e9-4cdd-a071-d538976119e4"/>
            <meta>
               <profile value="http://hl7.org/fhir/uv/ips/StructureDefinition/Condition-uv-ips"/>
            </meta>
            <text>
               <status value="generated"/>
               <div xmlns="http://www.w3.org/1999/xhtml">
                  <table class="hl7__ips">
                     <tr>
                        <td>
                           <span class="grayedout">Fracture of bone</span>
                        </td>
                        <td>
                           <span class="nb">26-Sep-2018 - 10-Nov-2018</span>
                        </td>
                        <td>
                           <span class="grayedout">inactive</span>
                        </td>
                     </tr>
                  </table>
               </div>
            </text>
            <category>
               <coding>
                  <system value="http://terminology.hl7.org/CodeSystem/condition-category"/>
                  <code value="problem-list-item"/>
                  <display value="Problem List Item"/>
               </coding>
            </category>
            <code>
               <coding>
                  <system value="http://snomed.info/sct"/>
                  <code value="125605004"/>
                  <display value="Fracture of bone (disorder)"/>
               </coding>
               <text value="Fracture of bone"/>
            </code>
            <subject>
               <reference value="urn:uuid:"/>
               <display value="Russell Khan"/>
            </subject>
            <onsetDateTime value="2018-09-26"/>
            <abatementDateTime value="2018-11-10"/>
            <asserter>
               <reference value="urn:uuid:"/>
               <display value="Birmingham Children&amp;#039;s Hospital"/>
            </asserter>
         </Condition>
      </resource>
   </entry>
   <entry>
      <fullUrl value="urn:uuid:6a48ada0-6881-49f1-9a22-a33c20fccfaf"/>
      <resource>
         <Condition>
            <id value="6a48ada0-6881-49f1-9a22-a33c20fccfaf"/>
            <meta>
               <profile value="http://hl7.org/fhir/uv/ips/StructureDefinition/Condition-uv-ips"/>
            </meta>
            <text>
               <status value="generated"/>
               <div xmlns="http://www.w3.org/1999/xhtml">
                  <table class="hl7__ips">
                     <tr>
                        <td>
                           <span class="grayedout">Acute viral pharyngitis</span>
                        </td>
                        <td>
                           <span class="nb">11-Dec-2016 - 22-Dec-2016</span>
                        </td>
                        <td>
                           <span class="grayedout">inactive</span>
                        </td>
                     </tr>
                  </table>
               </div>
            </text>
            <category>
               <coding>
                  <system value="http://terminology.hl7.org/CodeSystem/condition-category"/>
                  <code value="problem-list-item"/>
                  <display value="Problem List Item"/>
               </coding>
            </category>
            <code>
               <coding>
                  <system value="http://snomed.info/sct"/>
                  <code value="195662009"/>
                  <display value="Acute viral pharyngitis (disorder)"/>
               </coding>
               <text value="Acute viral pharyngitis"/>
            </code>
            <subject>
               <reference value="urn:uuid:"/>
               <display value="Russell Khan"/>
            </subject>
            <onsetDateTime value="2016-12-11"/>
            <abatementDateTime value="2016-12-22"/>
            <asserter>
               <reference value="urn:uuid:"/>
               <display value="Birmingham Children&amp;#039;s Hospital"/>
            </asserter>
         </Condition>
      </resource>
   </entry>
   <entry>
      <fullUrl value="urn:uuid:386f609f-0c2b-485e-9ec4-e07adc95c291"/>
      <resource>
         <Medication>
            <id value="386f609f-0c2b-485e-9ec4-e07adc95c291"/>
            <meta>
               <profile value="http://hl7.eu/fhir/eps/StructureDefinition/Medication-eu-eps"/>
            </meta>
            <text>
               <status value="generated"/>
               <div xmlns="http://www.w3.org/1999/xhtml">Amlodipine (as amlodipine besylate) 2.5 mg oral tablet</div>
            </text>
            <code>
               <coding>
                  <system value="http://snomed.info/sct"/>
                  <code value="1153431000"/>
                  <display value="Amlodipine (as amlodipine besylate) 2.5 mg oral tablet"/>
               </coding>
               <text value="Amlodipine (as amlodipine besylate) 2.5 mg oral tablet"/>
            </code>
         </Medication>
      </resource>
   </entry>
   <entry>
      <fullUrl value="urn:uuid:083fed8e-0479-4f97-a580-cae224a0ccdd"/>
      <resource>
         <MedicationStatement>
            <id value="083fed8e-0479-4f97-a580-cae224a0ccdd"/>
            <meta>
               <profile value="http://hl7.eu/fhir/eps/StructureDefinition/MedicationStatement-eu-eps"/>
            </meta>
            <text>
               <status value="generated"/>
               <div xmlns="http://www.w3.org/1999/xhtml">
                  <table class="hl7__ips first25">
                     <tr>
                        <th>Medication</th>
                        <th>Since</th>
                        <th>Form</th>
                        <th>Dosage</th>
                        <th>Reason</th>
                     </tr>
                     <tr>
                        <td>Amlodipine (as amlodipine besylate) 2.5 mg oral tablet</td>
                        <td>
                           <span class="nb">2025-01-19</span>
                        </td>
                        <td>-</td>
                        <td>1 tablet (2.5 mg) by mouth once daily</td>
                        <td>Essential hypertension (disorder)</td>
                     </tr>
                  </table>
               </div>
            </text>
            <status value="active"/>
            <medicationReference>
               <reference value="urn:uuid:386f609f-0c2b-485e-9ec4-e07adc95c291"/>
               <display value="Amlodipine (as amlodipine besylate) 2.5 mg oral tablet"/>
            </medicationReference>
            <subject>
               <reference value="urn:uuid:805cec96-0a32-48bc-b5cd-0aa267f0941a"/>
               <display value="Russell Khan"/>
            </subject>
            <effectivePeriod>
               <start value="2025-01-19"/>
            </effectivePeriod>
            <reasonCode>
               <coding>
                  <system value="http://snomed.info/sct"/>
                  <code value="59621000"/>
                  <display value="Essential hypertension (disorder)"/>
               </coding>
            </reasonCode>
            <dosage>
               <text value="1 tablet (2.5 mg) by mouth once daily"/>
               <timing>
                  <repeat>
                     <frequency value="1"/>
                     <period value="1"/>
                     <periodUnit value="d"/>
                  </repeat>
               </timing>
               <asNeededBoolean value="false"/>
               <doseAndRate>
                  <doseQuantity>
                     <value value="1"/>
                     <unit value="{tbl}"/>
                     <system value="$ucum"/>
                     <code value="{tbl}"/>
                  </doseQuantity>
               </doseAndRate>
            </dosage>
         </MedicationStatement>
      </resource>
   </entry>
   <entry>
      <fullUrl value="urn:uuid:18217a85-d7c9-42e4-aef2-c339e5472a39"/>
      <resource>
         <Medication>
            <id value="18217a85-d7c9-42e4-aef2-c339e5472a39"/>
            <meta>
               <profile value="http://hl7.eu/fhir/eps/StructureDefinition/Medication-eu-eps"/>
            </meta>
            <text>
               <status value="generated"/>
               <div xmlns="http://www.w3.org/1999/xhtml">Hydrochlorothiazide 25 mg oral tablet</div>
            </text>
            <code>
               <coding>
                  <system value="http://snomed.info/sct"/>
                  <code value="376209006"/>
                  <display value="Hydrochlorothiazide 25 mg oral tablet"/>
               </coding>
               <text value="Hydrochlorothiazide 25 mg oral tablet"/>
            </code>
         </Medication>
      </resource>
   </entry>
   <entry>
      <fullUrl value="urn:uuid:25d04c31-2bbd-4774-926d-1bff0792bcf0"/>
      <resource>
         <MedicationStatement>
            <id value="25d04c31-2bbd-4774-926d-1bff0792bcf0"/>
            <meta>
               <profile value="http://hl7.eu/fhir/eps/StructureDefinition/MedicationStatement-eu-eps"/>
            </meta>
            <text>
               <status value="generated"/>
               <div xmlns="http://www.w3.org/1999/xhtml">
                  <table class="hl7__ips first25">
                     <tr>
                        <th>Medication</th>
                        <th>Since</th>
                        <th>Form</th>
                        <th>Dosage</th>
                        <th>Reason</th>
                     </tr>
                     <tr>
                        <td>Hydrochlorothiazide 25 mg oral tablet</td>
                        <td>
                           <span class="nb">2025-01-19</span>
                        </td>
                        <td>-</td>
                        <td>1 tablet (25 mg) by mouth once daily</td>
                        <td>Essential hypertension (disorder)</td>
                     </tr>
                  </table>
               </div>
            </text>
            <status value="active"/>
            <medicationReference>
               <reference value="urn:uuid:18217a85-d7c9-42e4-aef2-c339e5472a39"/>
               <display value="Hydrochlorothiazide 25 mg oral tablet"/>
            </medicationReference>
            <subject>
               <reference value="urn:uuid:805cec96-0a32-48bc-b5cd-0aa267f0941a"/>
               <display value="Russell Khan"/>
            </subject>
            <effectivePeriod>
               <start value="2025-01-19"/>
            </effectivePeriod>
            <reasonCode>
               <coding>
                  <system value="http://snomed.info/sct"/>
                  <code value="59621000"/>
                  <display value="Essential hypertension (disorder)"/>
               </coding>
            </reasonCode>
            <dosage>
               <text value="1 tablet (25 mg) by mouth once daily"/>
               <timing>
                  <repeat>
                     <frequency value="1"/>
                     <period value="1"/>
                     <periodUnit value="d"/>
                  </repeat>
               </timing>
               <asNeededBoolean value="false"/>
               <doseAndRate>
                  <doseQuantity>
                     <value value="1"/>
                     <unit value="{tbl}"/>
                     <system value="$ucum"/>
                     <code value="{tbl}"/>
                  </doseQuantity>
               </doseAndRate>
            </dosage>
         </MedicationStatement>
      </resource>
   </entry>
   <entry>
      <fullUrl value="urn:uuid:fc70e209-e863-4102-8894-8f9c424eddaa"/>
      <resource>
         <Medication>
            <id value="fc70e209-e863-4102-8894-8f9c424eddaa"/>
            <meta>
               <profile value="http://hl7.eu/fhir/eps/StructureDefinition/Medication-eu-eps"/>
            </meta>
            <text>
               <status value="generated"/>
               <div xmlns="http://www.w3.org/1999/xhtml">Lisinopril 10 mg oral tablet</div>
            </text>
            <code>
               <coding>
                  <system value="http://snomed.info/sct"/>
                  <code value="318859000"/>
                  <display value="Lisinopril 10 mg oral tablet"/>
               </coding>
               <text value="Lisinopril 10 mg oral tablet"/>
            </code>
         </Medication>
      </resource>
   </entry>
   <entry>
      <fullUrl value="urn:uuid:561583c6-38a8-441e-809d-f5b4e76aac20"/>
      <resource>
         <MedicationStatement>
            <id value="561583c6-38a8-441e-809d-f5b4e76aac20"/>
            <meta>
               <profile value="http://hl7.eu/fhir/eps/StructureDefinition/MedicationStatement-eu-eps"/>
            </meta>
            <text>
               <status value="generated"/>
               <div xmlns="http://www.w3.org/1999/xhtml">
                  <table class="hl7__ips first25">
                     <tr>
                        <th>Medication</th>
                        <th>Since</th>
                        <th>Form</th>
                        <th>Dosage</th>
                        <th>Reason</th>
                     </tr>
                     <tr>
                        <td>Lisinopril 10 mg oral tablet</td>
                        <td>
                           <span class="nb">2025-01-19</span>
                        </td>
                        <td>-</td>
                        <td>1 tablet (10 mg) by mouth once daily</td>
                        <td>Essential hypertension (disorder)</td>
                     </tr>
                  </table>
               </div>
            </text>
            <status value="active"/>
            <medicationReference>
               <reference value="urn:uuid:fc70e209-e863-4102-8894-8f9c424eddaa"/>
               <display value="Lisinopril 10 mg oral tablet"/>
            </medicationReference>
            <subject>
               <reference value="urn:uuid:805cec96-0a32-48bc-b5cd-0aa267f0941a"/>
               <display value="Russell Khan"/>
            </subject>
            <effectivePeriod>
               <start value="2025-01-19"/>
            </effectivePeriod>
            <reasonCode>
               <coding>
                  <system value="http://snomed.info/sct"/>
                  <code value="59621000"/>
                  <display value="Essential hypertension (disorder)"/>
               </coding>
            </reasonCode>
            <dosage>
               <text value="1 tablet (10 mg) by mouth once daily"/>
               <timing>
                  <repeat>
                     <frequency value="1"/>
                     <period value="1"/>
                     <periodUnit value="d"/>
                  </repeat>
               </timing>
               <asNeededBoolean value="false"/>
               <doseAndRate>
                  <doseQuantity>
                     <value value="1"/>
                     <unit value="{tbl}"/>
                     <system value="$ucum"/>
                     <code value="{tbl}"/>
                  </doseQuantity>
               </doseAndRate>
            </dosage>
         </MedicationStatement>
      </resource>
   </entry>
   <entry>
      <fullUrl value="urn:uuid:bc9d0f4f-77f5-40ed-8051-617bd70f7a70"/>
      <resource>
         <Medication>
            <id value="bc9d0f4f-77f5-40ed-8051-617bd70f7a70"/>
            <meta>
               <profile value="http://hl7.eu/fhir/eps/StructureDefinition/Medication-eu-eps"/>
            </meta>
            <text>
               <status value="generated"/>
               <div xmlns="http://www.w3.org/1999/xhtml">Albuterol (as albuterol sulfate) 830 microgram/mL solution for inhalation</div>
            </text>
            <code>
               <coding>
                  <system value="http://snomed.info/sct"/>
                  <code value="376561007"/>
                  <display value="Albuterol (as albuterol sulfate) 830 microgram/mL solution for inhalation"/>
               </coding>
               <text value="Albuterol (as albuterol sulfate) 830 microgram/mL solution for inhalation"/>
            </code>
         </Medication>
      </resource>
   </entry>
   <entry>
      <fullUrl value="urn:uuid:910a2a0e-8d34-4608-8e57-9e89d555a32a"/>
      <resource>
         <MedicationStatement>
            <id value="910a2a0e-8d34-4608-8e57-9e89d555a32a"/>
            <meta>
               <profile value="http://hl7.eu/fhir/eps/StructureDefinition/MedicationStatement-eu-eps"/>
            </meta>
            <text>
               <status value="generated"/>
               <div xmlns="http://www.w3.org/1999/xhtml">
                  <table class="hl7__ips first25">
                     <tr>
                        <th>Medication</th>
                        <th>Since</th>
                        <th>Form</th>
                        <th>Dosage</th>
                        <th>Reason</th>
                     </tr>
                     <tr>
                        <td>Albuterol (as albuterol sulfate) 830 microgram/mL solution for inhalation</td>
                        <td>
                           <span class="nb">2025-01-19</span>
                        </td>
                        <td>-</td>
                        <td>2.5 mg (3 mL of 830 microgram/mL solution) via nebulizer every 4 to 6 hours as needed</td>
                        <td>Childhood asthma</td>
                     </tr>
                  </table>
               </div>
            </text>
            <status value="active"/>
            <medicationReference>
               <reference value="urn:uuid:bc9d0f4f-77f5-40ed-8051-617bd70f7a70"/>
               <display value="Albuterol (as albuterol sulfate) 830 microgram/mL solution for inhalation"/>
            </medicationReference>
            <subject>
               <reference value="urn:uuid:805cec96-0a32-48bc-b5cd-0aa267f0941a"/>
               <display value="Russell Khan"/>
            </subject>
            <effectivePeriod>
               <start value="2025-01-19"/>
            </effectivePeriod>
            <reasonCode>
               <coding>
                  <system value="http://snomed.info/sct"/>
                  <code value="233678006"/>
                  <display value="Childhood asthma"/>
               </coding>
            </reasonCode>
            <dosage>
               <text value="2.5 mg (3 mL of 830 microgram/mL solution) via nebulizer every 4 to 6 hours as needed"/>
               <timing>
                  <repeat>
                     <frequency value="1"/>
                     <period value="4"/>
                     <periodUnit value="h"/>
                  </repeat>
               </timing>
               <asNeededBoolean value="true"/>
               <doseAndRate>
                  <doseQuantity>
                     <value value="2.5"/>
                     <unit value="mg"/>
                     <system value="$ucum"/>
                     <code value="mg"/>
                  </doseQuantity>
               </doseAndRate>
            </dosage>
         </MedicationStatement>
      </resource>
   </entry>
   <entry>
      <fullUrl value="urn:uuid:7cd806cd-74d0-4e38-b2ed-8cf95f4f33c1"/>
      <resource>
         <Medication>
            <id value="7cd806cd-74d0-4e38-b2ed-8cf95f4f33c1"/>
            <meta>
               <profile value="http://hl7.eu/fhir/eps/StructureDefinition/Medication-eu-eps"/>
            </meta>
            <text>
               <status value="generated"/>
               <div xmlns="http://www.w3.org/1999/xhtml">120 ACTUAT fluticasone propionate 0.044 MG/ACTUAT Metered Dose Inhaler [Flovent]</div>
            </text>
            <code>
               <coding>
                  <system value="http://www.nlm.nih.gov/research/umls/rxnorm"/>
                  <code value="895996"/>
                  <display value="120 ACTUAT fluticasone propionate 0.044 MG/ACTUAT Metered Dose Inhaler [Flovent]"/>
               </coding>
               <text value="120 ACTUAT fluticasone propionate 0.044 MG/ACTUAT Metered Dose Inhaler [Flovent]"/>
            </code>
         </Medication>
      </resource>
   </entry>
   <entry>
      <fullUrl value="urn:uuid:ecc2c713-fc6e-4201-ad6b-71fd468c6729"/>
      <resource>
         <MedicationStatement>
            <id value="ecc2c713-fc6e-4201-ad6b-71fd468c6729"/>
            <meta>
               <profile value="http://hl7.eu/fhir/eps/StructureDefinition/MedicationStatement-eu-eps"/>
            </meta>
            <text>
               <status value="generated"/>
               <div xmlns="http://www.w3.org/1999/xhtml">
                  <table class="hl7__ips first25">
                     <tr>
                        <th>Medication</th>
                        <th>Since</th>
                        <th>Form</th>
                        <th>Dosage</th>
                        <th>Reason</th>
                     </tr>
                     <tr>
                        <td>120 ACTUAT fluticasone propionate 0.044 MG/ACTUAT Metered Dose Inhaler [Flovent]</td>
                        <td>
                           <span class="nb">2025-01-19</span>
                        </td>
                        <td>-</td>
                        <td>44 mcg inhaled twice daily</td>
                        <td>Childhood asthma</td>
                     </tr>
                  </table>
               </div>
            </text>
            <status value="active"/>
            <medicationReference>
               <reference value="urn:uuid:7cd806cd-74d0-4e38-b2ed-8cf95f4f33c1"/>
               <display value="120 ACTUAT fluticasone propionate 0.044 MG/ACTUAT Metered Dose Inhaler [Flovent]"/>
            </medicationReference>
            <subject>
               <reference value="urn:uuid:805cec96-0a32-48bc-b5cd-0aa267f0941a"/>
               <display value="Russell Khan"/>
            </subject>
            <effectivePeriod>
               <start value="2025-01-19"/>
            </effectivePeriod>
            <reasonCode>
               <coding>
                  <system value="http://snomed.info/sct"/>
                  <code value="233678006"/>
                  <display value="Childhood asthma"/>
               </coding>
            </reasonCode>
            <dosage>
               <text value="44 mcg inhaled twice daily"/>
               <timing>
                  <repeat>
                     <frequency value="2"/>
                     <period value="1"/>
                     <periodUnit value="d"/>
                  </repeat>
               </timing>
               <asNeededBoolean value="false"/>
               <doseAndRate>
                  <doseQuantity>
                     <value value="44"/>
                     <unit value="mcg"/>
                     <system value="$ucum"/>
                     <code value="mcg"/>
                  </doseQuantity>
               </doseAndRate>
            </dosage>
         </MedicationStatement>
      </resource>
   </entry>
   <entry>
      <fullUrl value="urn:uuid:779cd6e6-34d5-49ba-bc2d-2cedf92543df"/>
      <resource>
         <Immunization>
            <id value="779cd6e6-34d5-49ba-bc2d-2cedf92543df"/>
            <meta>
               <profile value="http://hl7.org/fhir/uv/ips/StructureDefinition/Immunization-uv-ips"/>
            </meta>
            <text>
               <status value="generated"/>
               <div xmlns="http://www.w3.org/1999/xhtml">
                  <table class="hl7__ips">
                     <tr>
                        <td>Influenza virus antigen only vaccine product</td>
                        <td>
                           <span class="nb">19-Jan-2025</span>
                        </td>
                     </tr>
                  </table>
               </div>
            </text>
            <status value="completed"/>
            <vaccineCode>
               <coding>
                  <system value="http://snomed.info/sct"/>
                  <code value="1181000221105"/>
                  <display value="Vaccine product containing Influenza virus antigen"/>
               </coding>
               <coding>
                  <system value="http://www.whocc.no/atc"/>
                  <code value="J07BB02"/>
                  <display value="Influenza, inactivated, split virus"/>
               </coding>
               <text value="Influenza virus antigen only vaccine product"/>
            </vaccineCode>
            <patient>
               <reference value="urn:uuid:805cec96-0a32-48bc-b5cd-0aa267f0941a"/>
               <display value="Russell Khan"/>
            </patient>
            <occurrenceDateTime value="2025-01-19"/>
            <lotNumber value="TA-Fznx"/>
            <expirationDate value="2025-05-05"/>
            <site>
               <coding>
                  <system value="http://snomed.info/sct"/>
                  <code value="244979005"/>
                  <display value="Entire muscle of upper arm"/>
               </coding>
               <text value="Entire muscle of upper arm"/>
            </site>
            <route>
               <coding>
                  <system value="http://snomed.info/sct"/>
                  <code value="78421000"/>
                  <display value="Intramuscular route"/>
               </coding>
               <text value="Intramuscular route"/>
            </route>
         </Immunization>
      </resource>
   </entry>
   <entry>
      <fullUrl value="urn:uuid:440c3444-f243-48a8-ab50-de1cd3da67ec"/>
      <resource>
         <Immunization>
            <id value="440c3444-f243-48a8-ab50-de1cd3da67ec"/>
            <meta>
               <profile value="http://hl7.org/fhir/uv/ips/StructureDefinition/Immunization-uv-ips"/>
            </meta>
            <text>
               <status value="generated"/>
               <div xmlns="http://www.w3.org/1999/xhtml">
                  <table class="hl7__ips">
                     <tr>
                        <td>COVID-19 non-replicating viral vector vaccine</td>
                        <td>
                           <span class="nb">25-Apr-2021</span>
                        </td>
                     </tr>
                  </table>
               </div>
            </text>
            <status value="completed"/>
            <vaccineCode>
               <coding>
                  <system value="http://snomed.info/sct"/>
                  <code value="29061000087103"/>
                  <display value="Vaccine product containing recombinant viral vector encoding SARS-CoV-2 spike protein"/>
               </coding>
               <coding>
                  <system value="http://www.whocc.no/atc"/>
                  <code value="J07BX03"/>
                  <display value="COVID-19 vector vaccines (non-replicating)"/>
               </coding>
               <text value="COVID-19 non-replicating viral vector vaccine"/>
            </vaccineCode>
            <patient>
               <reference value="urn:uuid:805cec96-0a32-48bc-b5cd-0aa267f0941a"/>
               <display value="Russell Khan"/>
            </patient>
            <occurrenceDateTime value="2021-04-25"/>
            <lotNumber value="MY-Dsm0QD"/>
            <expirationDate value="2021-10-22"/>
            <site>
               <coding>
                  <system value="http://snomed.info/sct"/>
                  <code value="244979005"/>
                  <display value="Entire muscle of upper arm"/>
               </coding>
               <text value="Entire muscle of upper arm"/>
            </site>
            <route>
               <coding>
                  <system value="http://snomed.info/sct"/>
                  <code value="78421000"/>
                  <display value="Intramuscular route"/>
               </coding>
               <text value="Intramuscular route"/>
            </route>
         </Immunization>
      </resource>
   </entry>
   <entry>
      <fullUrl value="urn:uuid:6aeb5541-f51a-457d-9a29-45204bac1c79"/>
      <resource>
         <Immunization>
            <id value="6aeb5541-f51a-457d-9a29-45204bac1c79"/>
            <meta>
               <profile value="http://hl7.org/fhir/uv/ips/StructureDefinition/Immunization-uv-ips"/>
            </meta>
            <text>
               <status value="generated"/>
               <div xmlns="http://www.w3.org/1999/xhtml">
                  <table class="hl7__ips">
                     <tr>
                        <td>Hepatitis A virus antigen only vaccine product</td>
                        <td>
                           <span class="nb">27-Dec-2020</span>
                        </td>
                     </tr>
                  </table>
               </div>
            </text>
            <status value="completed"/>
            <vaccineCode>
               <coding>
                  <system value="http://snomed.info/sct"/>
                  <code value="871751006"/>
                  <display value="Vaccine product containing Hepatitis A virus antigen"/>
               </coding>
               <coding>
                  <system value="http://www.whocc.no/atc"/>
                  <code value="J07BC02"/>
                  <display value="Hepatitis A vaccines"/>
               </coding>
               <text value="Hepatitis A virus antigen only vaccine product"/>
            </vaccineCode>
            <patient>
               <reference value="urn:uuid:805cec96-0a32-48bc-b5cd-0aa267f0941a"/>
               <display value="Russell Khan"/>
            </patient>
            <occurrenceDateTime value="2020-12-27"/>
            <lotNumber value="DA-ZH17Vp"/>
            <expirationDate value="2021-09-15"/>
            <site>
               <coding>
                  <system value="http://snomed.info/sct"/>
                  <code value="244979005"/>
                  <display value="Entire muscle of upper arm"/>
               </coding>
               <text value="Entire muscle of upper arm"/>
            </site>
            <route>
               <coding>
                  <system value="http://snomed.info/sct"/>
                  <code value="78421000"/>
                  <display value="Intramuscular route"/>
               </coding>
               <text value="Intramuscular route"/>
            </route>
         </Immunization>
      </resource>
   </entry>
   <entry>
      <fullUrl value="urn:uuid:8bd73c1a-6984-46f6-b79d-c95c7318449c"/>
      <resource>
         <Immunization>
            <id value="8bd73c1a-6984-46f6-b79d-c95c7318449c"/>
            <meta>
               <profile value="http://hl7.org/fhir/uv/ips/StructureDefinition/Immunization-uv-ips"/>
            </meta>
            <text>
               <status value="generated"/>
               <div xmlns="http://www.w3.org/1999/xhtml">
                  <table class="hl7__ips">
                     <tr>
                        <td>Clostridium tetani toxoid antigen adsorbed only vaccine product</td>
                        <td>
                           <span class="nb">27-Dec-2020</span>
                        </td>
                     </tr>
                  </table>
               </div>
            </text>
            <status value="completed"/>
            <vaccineCode>
               <coding>
                  <system value="http://snomed.info/sct"/>
                  <code value="777725002"/>
                  <display value="Vaccine product containing only Clostridium tetani toxoid antigen adsorbed"/>
               </coding>
               <coding>
                  <system value="http://www.whocc.no/atc"/>
                  <code value="J07AM51"/>
                  <display value="Diphtheria-tetanus vaccines, adult type"/>
               </coding>
               <text value="Clostridium tetani toxoid antigen adsorbed only vaccine product"/>
            </vaccineCode>
            <patient>
               <reference value="urn:uuid:805cec96-0a32-48bc-b5cd-0aa267f0941a"/>
               <display value="Russell Khan"/>
            </patient>
            <occurrenceDateTime value="2020-12-27"/>
            <lotNumber value="JM-L21mgX"/>
            <expirationDate value="2021-06-09"/>
            <site>
               <coding>
                  <system value="http://snomed.info/sct"/>
                  <code value="244979005"/>
                  <display value="Entire muscle of upper arm"/>
               </coding>
               <text value="Entire muscle of upper arm"/>
            </site>
            <route>
               <coding>
                  <system value="http://snomed.info/sct"/>
                  <code value="78421000"/>
                  <display value="Intramuscular route"/>
               </coding>
               <text value="Intramuscular route"/>
            </route>
         </Immunization>
      </resource>
   </entry>
   <entry>
      <fullUrl value="urn:uuid:8ab0dc00-754a-49a8-b3a6-b0d9777f555e"/>
      <resource>
         <Procedure>
            <id value="8ab0dc00-754a-49a8-b3a6-b0d9777f555e"/>
            <meta>
               <profile value="http://hl7.org/fhir/uv/ips/StructureDefinition/Procedure-uv-ips"/>
            </meta>
            <text>
               <status value="generated"/>
               <div xmlns="http://www.w3.org/1999/xhtml">
                  <table class="hl7__ips">
                     <tr>
                        <td>Plain X-ray of clavicle</td>
                        <td>
                           <span class="nb">26-Sep-2018</span>
                        </td>
                        <td>-</td>
                     </tr>
                  </table>
               </div>
            </text>
            <status value="completed"/>
            <code>
               <coding>
                  <system value="http://snomed.info/sct"/>
                  <code value="168594001"/>
                  <display value="Clavicle X-ray"/>
               </coding>
               <text value="Plain X-ray of clavicle"/>
            </code>
            <subject>
               <reference value="urn:uuid:"/>
               <display value="Russell Khan"/>
            </subject>
            <performedDateTime value="2018-09-26"/>
         </Procedure>
      </resource>
   </entry>
   <entry>
      <fullUrl value="urn:uuid:accb63a1-0cd1-4476-9001-9160ef886d7c"/>
      <resource>
         <Procedure>
            <id value="accb63a1-0cd1-4476-9001-9160ef886d7c"/>
            <meta>
               <profile value="http://hl7.org/fhir/uv/ips/StructureDefinition/Procedure-uv-ips"/>
            </meta>
            <text>
               <status value="generated"/>
               <div xmlns="http://www.w3.org/1999/xhtml">
                  <table class="hl7__ips">
                     <tr>
                        <td>Admission to orthopedic department</td>
                        <td>
                           <span class="nb">26-Sep-2018</span>
                        </td>
                        <td>Fracture of clavicle</td>
                     </tr>
                  </table>
               </div>
            </text>
            <status value="completed"/>
            <code>
               <coding>
                  <system value="http://snomed.info/sct"/>
                  <code value="305428000"/>
                  <display value="Admission to orthopedic department"/>
               </coding>
               <text value="Admission to orthopedic department"/>
            </code>
            <subject>
               <reference value="urn:uuid:"/>
               <display value="Russell Khan"/>
            </subject>
            <performedDateTime value="2018-09-26"/>
            <reasonCode>
               <coding>
                  <system value="http://snomed.info/sct"/>
                  <code value="58150001"/>
                  <display value="Fracture of clavicle"/>
               </coding>
            </reasonCode>
         </Procedure>
      </resource>
   </entry>
   <entry>
      <fullUrl value="urn:uuid:ae8a3dfa-189e-4540-96cd-8853f5470644"/>
      <resource>
         <AllergyIntolerance>
            <id value="ae8a3dfa-189e-4540-96cd-8853f5470644"/>
            <meta>
               <profile value="http://hl7.eu/fhir/eps/StructureDefinition/allergyIntolerance-eu-eps"/>
            </meta>
            <text>
               <status value="generated"/>
               <div xmlns="http://www.w3.org/1999/xhtml">
                  <table class="hl7__ips">
                     <tr>
                        <th>Allergy/Intolerance</th>
                        <th>Onset Date</th>
                        <th>Status</th>
                        <th>Type</th>
                        <th>Reaction</th>
                     </tr>
                     <tr>
                        <td/>
                        <td>?</td>
                        <td>active</td>
                        <td>?</td>
                        <td/>
                     </tr>
                  </table>
               </div>
            </text>
            <clinicalStatus>
               <coding>
                  <system value="http://terminology.hl7.org/CodeSystem/allergyintolerance-clinical"/>
                  <code value="active"/>
               </coding>
            </clinicalStatus>
            <verificationStatus>
               <coding>
                  <system value="http://terminology.hl7.org/CodeSystem/allergyintolerance-verification"/>
                  <code value="confirmed"/>
               </coding>
            </verificationStatus>
            <code>
               <text/>
            </code>
            <patient>
               <reference value="urn:uuid:805cec96-0a32-48bc-b5cd-0aa267f0941a"/>
               <display value="Russell Khan"/>
            </patient>
            <onsetDateTime>
               <extension url="http://hl7.org/fhir/StructureDefinition/data-absent-reason">
                  <valueCode value="unknown"/>
               </extension>
            </onsetDateTime>
         </AllergyIntolerance>
      </resource>
   </entry>
   <entry>
      <fullUrl value="urn:uuid:71e9e1c3-62af-4a32-ae9a-1860d1b3e5d7"/>
      <resource>
         <CarePlan>
            <id value="71e9e1c3-62af-4a32-ae9a-1860d1b3e5d7"/>
            <text>
               <status value="generated"/>
               <div xmlns="http://www.w3.org/1999/xhtml">
                  <table class="hl7__ips first25">
                     <tr>
                        <th>Active Planned Care / Goals</th>
                        <th>Start Date</th>
                        <th>Reason</th>
                     </tr>
                     <tr>
                        <td>Lifestyle education regarding hypertension</td>
                        <td>
                           <span class="nb">15-Sep-2002</span>
                        </td>
                        <td>Essential hypertension (disorder)</td>
                     </tr>
                     <tr>
                        <td>
                           <ul>
                              <li>Achieve and maintain blood pressure below 130/80 mmHg through lifestyle modifications.</li>
                              <li>Patient will demonstrate understanding of hypertension and recommended lifestyle changes (diet, exercise, sodium reduction, weight management, alcohol moderation) within 3 months.</li>
                           </ul>
                        </td>
                        <td/>
                        <td/>
                     </tr>
                  </table>
               </div>
            </text>
            <status value="active"/>
            <intent value="plan"/>
            <category>
               <coding>
                  <system value="http://terminology.hl7.org/CodeSystem/care-plan-category"/>
                  <code value="assess-plan"/>
                  <display value="Assessment and Plan"/>
               </coding>
            </category>
            <subject>
               <reference value="urn:uuid:805cec96-0a32-48bc-b5cd-0aa267f0941a"/>
               <display value="Russell Khan"/>
            </subject>
            <period>
               <start value="2002-09-15"/>
            </period>
            <goal>
               <reference value="urn:uuid:0e72c072-b453-42eb-9f94-78ace6cfab04"/>
            </goal>
            <goal>
               <reference value="urn:uuid:455b6f85-eb36-4d89-96f8-ca15dc9035af"/>
            </goal>
            <activity>
               <detail>
                  <kind value="Appointment"/>
                  <code>
                     <coding>
                        <system value="http://snomed.info/sct"/>
                        <code value="443402002"/>
                        <display value="Lifestyle education regarding hypertension (procedure)"/>
                     </coding>
                  </code>
                  <reasonCode>
                     <coding>
                        <system value="http://snomed.info/sct"/>
                        <code value="59621000"/>
                        <display value="Essential hypertension (disorder)"/>
                     </coding>
                  </reasonCode>
                  <status value="unknown"/>
                  <description value="Lifestyle education regarding hypertension"/>
               </detail>
            </activity>
         </CarePlan>
      </resource>
   </entry>
   <entry>
      <fullUrl value="urn:uuid:0a5165b6-c0dc-44ba-a470-11b70c74e1d7"/>
      <resource>
         <CarePlan>
            <id value="0a5165b6-c0dc-44ba-a470-11b70c74e1d7"/>
            <text>
               <status value="generated"/>
               <div xmlns="http://www.w3.org/1999/xhtml">
                  <table class="hl7__ips first25">
                     <tr>
                        <th>Active Planned Care / Goals</th>
                        <th>Start Date</th>
                        <th>Reason</th>
                     </tr>
                     <tr>
                        <td>Weight management program</td>
                        <td>
                           <span class="nb">15-Jun-1986</span>
                        </td>
                        <td>-</td>
                     </tr>
                  </table>
               </div>
            </text>
            <status value="active"/>
            <intent value="plan"/>
            <category>
               <coding>
                  <system value="http://terminology.hl7.org/CodeSystem/care-plan-category"/>
                  <code value="assess-plan"/>
                  <display value="Assessment and Plan"/>
               </coding>
            </category>
            <subject>
               <reference value="urn:uuid:805cec96-0a32-48bc-b5cd-0aa267f0941a"/>
               <display value="Russell Khan"/>
            </subject>
            <period>
               <start value="1986-06-15"/>
            </period>
            <activity>
               <detail>
                  <kind value="Appointment"/>
                  <code>
                     <coding>
                        <system value="http://snomed.info/sct"/>
                        <code value="718361005"/>
                        <display value="Weight management program (regime/therapy)"/>
                     </coding>
                  </code>
                  <status value="unknown"/>
                  <description value="Weight management program"/>
               </detail>
            </activity>
         </CarePlan>
      </resource>
   </entry>
   <entry>
      <fullUrl value="urn:uuid:4a0843cb-fd48-4d82-9947-2cdf2227a46b"/>
      <resource>
         <CarePlan>
            <id value="4a0843cb-fd48-4d82-9947-2cdf2227a46b"/>
            <text>
               <status value="generated"/>
               <div xmlns="http://www.w3.org/1999/xhtml">
                  <table class="hl7__ips first25">
                     <tr>
                        <th>Active Planned Care / Goals</th>
                        <th>Start Date</th>
                        <th>Reason</th>
                     </tr>
                     <tr>
                        <td>Asthma self management</td>
                        <td>
                           <span class="nb">02-Feb-1983</span>
                        </td>
                        <td>Childhood asthma</td>
                     </tr>
                     <tr>
                        <td>
                           <ul>
                              <li>Patient will maintain peak expiratory flow at or above 80% of personal best through adherence to asthma self-management plan.</li>
                              <li>Patient will have no more than 2 uses of rescue inhaler per week.</li>
                              <li>Patient will experience daytime asthma symptoms no more than 2 days per week.</li>
                           </ul>
                        </td>
                        <td/>
                        <td/>
                     </tr>
                  </table>
               </div>
            </text>
            <status value="active"/>
            <intent value="plan"/>
            <category>
               <coding>
                  <system value="http://terminology.hl7.org/CodeSystem/care-plan-category"/>
                  <code value="assess-plan"/>
                  <display value="Assessment and Plan"/>
               </coding>
            </category>
            <subject>
               <reference value="urn:uuid:805cec96-0a32-48bc-b5cd-0aa267f0941a"/>
               <display value="Russell Khan"/>
            </subject>
            <period>
               <start value="1983-02-02"/>
            </period>
            <goal>
               <reference value="urn:uuid:50dc56bd-466a-4709-b02c-4ea8cbd7cc5c"/>
            </goal>
            <goal>
               <reference value="urn:uuid:440fc090-b97d-4763-b82b-ccf612d6e446"/>
            </goal>
            <goal>
               <reference value="urn:uuid:5910ab74-4f36-4d65-a9c5-a2c07490fb08"/>
            </goal>
            <activity>
               <detail>
                  <kind value="Appointment"/>
                  <code>
                     <coding>
                        <system value="http://snomed.info/sct"/>
                        <code value="699728000"/>
                        <display value="Asthma self management (regime/therapy)"/>
                     </coding>
                  </code>
                  <reasonCode>
                     <coding>
                        <system value="http://snomed.info/sct"/>
                        <code value="233678006"/>
                        <display value="Childhood asthma"/>
                     </coding>
                  </reasonCode>
                  <status value="unknown"/>
                  <description value="Asthma self management"/>
               </detail>
            </activity>
         </CarePlan>
      </resource>
   </entry>
   <entry>
      <fullUrl value="urn:uuid:8f9c7098-b1d4-40bd-b869-7c46c13fddee"/>
      <resource>
         <Observation>
            <id value="8f9c7098-b1d4-40bd-b869-7c46c13fddee"/>
            <meta>
               <profile value="http://hl7.org/fhir/StructureDefinition/vitalsigns"/>
            </meta>
            <text>
               <status value="generated"/>
               <div xmlns="http://www.w3.org/1999/xhtml">
                  <table class="hl7__ips">
                     <tr>
                        <th>Vital Sign</th>
                        <th>Date</th>
                        <th>Measurement</th>
                     </tr>
                     <tr>
                        <td>Body temperature</td>
                        <td>13-Mar-2025</td>
                        <td>37.4 Cel</td>
                     </tr>
                  </table>
               </div>
            </text>
            <status value="final"/>
            <category>
               <coding>
                  <system value="http://terminology.hl7.org/CodeSystem/observation-category"/>
                  <code value="vital-signs"/>
                  <display value="Vital Signs"/>
               </coding>
            </category>
            <code>
               <coding>
                  <system value="http://loinc.org"/>
                  <code value="$8310-5"/>
                  <display value="Body temperature"/>
               </coding>
            </code>
            <subject>
               <reference value="urn:uuid:805cec96-0a32-48bc-b5cd-0aa267f0941a"/>
               <display value="Russell Khan"/>
            </subject>
            <effectiveDateTime value="2025-03-13"/>
            <valueQuantity>
               <value value="37.4"/>
               <unit value="Cel"/>
               <code value="Cel"/>
            </valueQuantity>
         </Observation>
      </resource>
   </entry>
   <entry>
      <fullUrl value="urn:uuid:9dfd0cf2-1dd5-4265-961f-43b1b6882a1b"/>
      <resource>
         <Observation>
            <id value="9dfd0cf2-1dd5-4265-961f-43b1b6882a1b"/>
            <meta>
               <profile value="http://hl7.org/fhir/StructureDefinition/vitalsigns"/>
            </meta>
            <text>
               <status value="generated"/>
               <div xmlns="http://www.w3.org/1999/xhtml">
                  <table class="hl7__ips">
                     <tr>
                        <th>Vital Sign</th>
                        <th>Date</th>
                        <th>Measurement</th>
                     </tr>
                     <tr>
                        <td>Body Height</td>
                        <td>19-Jan-2025</td>
                        <td>168.1 cm</td>
                     </tr>
                  </table>
               </div>
            </text>
            <status value="final"/>
            <category>
               <coding>
                  <system value="http://terminology.hl7.org/CodeSystem/observation-category"/>
                  <code value="vital-signs"/>
                  <display value="Vital Signs"/>
               </coding>
            </category>
            <code>
               <coding>
                  <system value="http://loinc.org"/>
                  <code value="$8302-2"/>
                  <display value="Body Height"/>
               </coding>
            </code>
            <subject>
               <reference value="urn:uuid:805cec96-0a32-48bc-b5cd-0aa267f0941a"/>
               <display value="Russell Khan"/>
            </subject>
            <effectiveDateTime value="2025-01-19"/>
            <valueQuantity>
               <value value="168.1"/>
               <unit value="cm"/>
               <code value="cm"/>
            </valueQuantity>
         </Observation>
      </resource>
   </entry>
   <entry>
      <fullUrl value="urn:uuid:91532997-c360-4b76-87af-41f78ab2ccd7"/>
      <resource>
         <Observation>
            <id value="91532997-c360-4b76-87af-41f78ab2ccd7"/>
            <meta>
               <profile value="http://hl7.org/fhir/StructureDefinition/vitalsigns"/>
            </meta>
            <text>
               <status value="generated"/>
               <div xmlns="http://www.w3.org/1999/xhtml">
                  <table class="hl7__ips">
                     <tr>
                        <th>Vital Sign</th>
                        <th>Date</th>
                        <th>Measurement</th>
                     </tr>
                     <tr>
                        <td>Pain severity - 0-10 verbal numeric rating [Score] - Reported</td>
                        <td>19-Jan-2025</td>
                        <td>0 {score}</td>
                     </tr>
                  </table>
               </div>
            </text>
            <status value="final"/>
            <category>
               <coding>
                  <system value="http://terminology.hl7.org/CodeSystem/observation-category"/>
                  <code value="vital-signs"/>
                  <display value="Vital Signs"/>
               </coding>
            </category>
            <code>
               <coding>
                  <system value="http://loinc.org"/>
                  <code value="$72514-3"/>
                  <display value="Pain severity - 0-10 verbal numeric rating [Score] - Reported"/>
               </coding>
            </code>
            <subject>
               <reference value="urn:uuid:805cec96-0a32-48bc-b5cd-0aa267f0941a"/>
               <display value="Russell Khan"/>
            </subject>
            <effectiveDateTime value="2025-01-19"/>
            <valueQuantity>
               <value value="0"/>
               <unit value="{score}"/>
               <code value="{score}"/>
            </valueQuantity>
         </Observation>
      </resource>
   </entry>
   <entry>
      <fullUrl value="urn:uuid:a40d5247-6de3-49ec-a26b-d908f31f1b68"/>
      <resource>
         <Observation>
            <id value="a40d5247-6de3-49ec-a26b-d908f31f1b68"/>
            <meta>
               <profile value="http://hl7.org/fhir/StructureDefinition/vitalsigns"/>
            </meta>
            <text>
               <status value="generated"/>
               <div xmlns="http://www.w3.org/1999/xhtml">
                  <table class="hl7__ips">
                     <tr>
                        <th>Vital Sign</th>
                        <th>Date</th>
                        <th>Measurement</th>
                     </tr>
                     <tr>
                        <td>Body Weight</td>
                        <td>19-Jan-2025</td>
                        <td>80.4 kg</td>
                     </tr>
                  </table>
               </div>
            </text>
            <status value="final"/>
            <category>
               <coding>
                  <system value="http://terminology.hl7.org/CodeSystem/observation-category"/>
                  <code value="vital-signs"/>
                  <display value="Vital Signs"/>
               </coding>
            </category>
            <code>
               <coding>
                  <system value="http://loinc.org"/>
                  <code value="$29463-7"/>
                  <display value="Body Weight"/>
               </coding>
            </code>
            <subject>
               <reference value="urn:uuid:805cec96-0a32-48bc-b5cd-0aa267f0941a"/>
               <display value="Russell Khan"/>
            </subject>
            <effectiveDateTime value="2025-01-19"/>
            <valueQuantity>
               <value value="80.4"/>
               <unit value="kg"/>
               <code value="kg"/>
            </valueQuantity>
         </Observation>
      </resource>
   </entry>
   <entry>
      <fullUrl value="urn:uuid:c4fd165e-f274-479d-9667-42b33d2ac41f"/>
      <resource>
         <Observation>
            <id value="c4fd165e-f274-479d-9667-42b33d2ac41f"/>
            <meta>
               <profile value="http://hl7.org/fhir/StructureDefinition/vitalsigns"/>
            </meta>
            <text>
               <status value="generated"/>
               <div xmlns="http://www.w3.org/1999/xhtml">
                  <table class="hl7__ips">
                     <tr>
                        <th>Vital Sign</th>
                        <th>Date</th>
                        <th>Measurement</th>
                     </tr>
                     <tr>
                        <td>Body mass index (BMI) [Ratio]</td>
                        <td>19-Jan-2025</td>
                        <td>28.5 kg/m2</td>
                     </tr>
                  </table>
               </div>
            </text>
            <status value="final"/>
            <category>
               <coding>
                  <system value="http://terminology.hl7.org/CodeSystem/observation-category"/>
                  <code value="vital-signs"/>
                  <display value="Vital Signs"/>
               </coding>
            </category>
            <code>
               <coding>
                  <system value="http://loinc.org"/>
                  <code value="$39156-5"/>
                  <display value="Body mass index (BMI) [Ratio]"/>
               </coding>
            </code>
            <subject>
               <reference value="urn:uuid:805cec96-0a32-48bc-b5cd-0aa267f0941a"/>
               <display value="Russell Khan"/>
            </subject>
            <effectiveDateTime value="2025-01-19"/>
            <valueQuantity>
               <value value="28.5"/>
               <unit value="kg/m2"/>
               <code value="kg/m2"/>
            </valueQuantity>
         </Observation>
      </resource>
   </entry>
   <entry>
      <fullUrl value="urn:uuid:745a656c-e461-4608-af6d-1efbd53f0488"/>
      <resource>
         <Observation>
            <id value="745a656c-e461-4608-af6d-1efbd53f0488"/>
            <meta>
               <profile value="http://hl7.org/fhir/StructureDefinition/vitalsigns"/>
            </meta>
            <text>
               <status value="generated"/>
               <div xmlns="http://www.w3.org/1999/xhtml">
                  <table class="hl7__ips">
                     <tr>
                        <th>Vital Sign</th>
                        <th>Date</th>
                        <th>Measurement</th>
                     </tr>
                     <tr>
                        <td>Diastolic Blood Pressure</td>
                        <td>19-Jan-2025</td>
                        <td>56 mm[Hg]</td>
                     </tr>
                  </table>
               </div>
            </text>
            <status value="final"/>
            <category>
               <coding>
                  <system value="http://terminology.hl7.org/CodeSystem/observation-category"/>
                  <code value="vital-signs"/>
                  <display value="Vital Signs"/>
               </coding>
            </category>
            <code>
               <coding>
                  <system value="http://loinc.org"/>
                  <code value="$8462-4"/>
                  <display value="Diastolic Blood Pressure"/>
               </coding>
            </code>
            <subject>
               <reference value="urn:uuid:805cec96-0a32-48bc-b5cd-0aa267f0941a"/>
               <display value="Russell Khan"/>
            </subject>
            <effectiveDateTime value="2025-01-19"/>
            <valueQuantity>
               <value value="56"/>
               <unit value="mm[Hg]"/>
               <code value="mm[Hg]"/>
            </valueQuantity>
         </Observation>
      </resource>
   </entry>
   <entry>
      <fullUrl value="urn:uuid:9568b8ce-939c-4588-a5b1-6ab07c8caa12"/>
      <resource>
         <Observation>
            <id value="9568b8ce-939c-4588-a5b1-6ab07c8caa12"/>
            <meta>
               <profile value="http://hl7.org/fhir/StructureDefinition/vitalsigns"/>
            </meta>
            <text>
               <status value="generated"/>
               <div xmlns="http://www.w3.org/1999/xhtml">
                  <table class="hl7__ips">
                     <tr>
                        <th>Vital Sign</th>
                        <th>Date</th>
                        <th>Measurement</th>
                     </tr>
                     <tr>
                        <td>Systolic Blood Pressure</td>
                        <td>19-Jan-2025</td>
                        <td>76 mm[Hg]</td>
                     </tr>
                  </table>
               </div>
            </text>
            <status value="final"/>
            <category>
               <coding>
                  <system value="http://terminology.hl7.org/CodeSystem/observation-category"/>
                  <code value="vital-signs"/>
                  <display value="Vital Signs"/>
               </coding>
            </category>
            <code>
               <coding>
                  <system value="http://loinc.org"/>
                  <code value="$8480-6"/>
                  <display value="Systolic Blood Pressure"/>
               </coding>
            </code>
            <subject>
               <reference value="urn:uuid:805cec96-0a32-48bc-b5cd-0aa267f0941a"/>
               <display value="Russell Khan"/>
            </subject>
            <effectiveDateTime value="2025-01-19"/>
            <valueQuantity>
               <value value="76"/>
               <unit value="mm[Hg]"/>
               <code value="mm[Hg]"/>
            </valueQuantity>
         </Observation>
      </resource>
   </entry>
   <entry>
      <fullUrl value="urn:uuid:2060df86-d2c1-4651-a1f7-34f70c238e33"/>
      <resource>
         <Observation>
            <id value="2060df86-d2c1-4651-a1f7-34f70c238e33"/>
            <meta>
               <profile value="http://hl7.org/fhir/StructureDefinition/vitalsigns"/>
            </meta>
            <text>
               <status value="generated"/>
               <div xmlns="http://www.w3.org/1999/xhtml">
                  <table class="hl7__ips">
                     <tr>
                        <th>Vital Sign</th>
                        <th>Date</th>
                        <th>Measurement</th>
                     </tr>
                     <tr>
                        <td>Heart rate</td>
                        <td>19-Jan-2025</td>
                        <td>84 /min</td>
                     </tr>
                  </table>
               </div>
            </text>
            <status value="final"/>
            <category>
               <coding>
                  <system value="http://terminology.hl7.org/CodeSystem/observation-category"/>
                  <code value="vital-signs"/>
                  <display value="Vital Signs"/>
               </coding>
            </category>
            <code>
               <coding>
                  <system value="http://loinc.org"/>
                  <code value="$8867-4"/>
                  <display value="Heart rate"/>
               </coding>
            </code>
            <subject>
               <reference value="urn:uuid:805cec96-0a32-48bc-b5cd-0aa267f0941a"/>
               <display value="Russell Khan"/>
            </subject>
            <effectiveDateTime value="2025-01-19"/>
            <valueQuantity>
               <value value="84"/>
               <unit value="/min"/>
               <code value="/min"/>
            </valueQuantity>
         </Observation>
      </resource>
   </entry>
   <entry>
      <fullUrl value="urn:uuid:c2e96a67-d118-4e1b-8cb5-f7a5d2fd2d19"/>
      <resource>
         <Observation>
            <id value="c2e96a67-d118-4e1b-8cb5-f7a5d2fd2d19"/>
            <meta>
               <profile value="http://hl7.org/fhir/StructureDefinition/vitalsigns"/>
            </meta>
            <text>
               <status value="generated"/>
               <div xmlns="http://www.w3.org/1999/xhtml">
                  <table class="hl7__ips">
                     <tr>
                        <th>Vital Sign</th>
                        <th>Date</th>
                        <th>Measurement</th>
                     </tr>
                     <tr>
                        <td>Respiratory rate</td>
                        <td>19-Jan-2025</td>
                        <td>14 /min</td>
                     </tr>
                  </table>
               </div>
            </text>
            <status value="final"/>
            <category>
               <coding>
                  <system value="http://terminology.hl7.org/CodeSystem/observation-category"/>
                  <code value="vital-signs"/>
                  <display value="Vital Signs"/>
               </coding>
            </category>
            <code>
               <coding>
                  <system value="http://loinc.org"/>
                  <code value="$9279-1"/>
                  <display value="Respiratory rate"/>
               </coding>
            </code>
            <subject>
               <reference value="urn:uuid:805cec96-0a32-48bc-b5cd-0aa267f0941a"/>
               <display value="Russell Khan"/>
            </subject>
            <effectiveDateTime value="2025-01-19"/>
            <valueQuantity>
               <value value="14"/>
               <unit value="/min"/>
               <code value="/min"/>
            </valueQuantity>
         </Observation>
      </resource>
   </entry>
   <entry>
      <fullUrl value="urn:uuid:4ba12d87-6876-4505-a38b-ab2a324e4891"/>
      <resource>
         <Observation>
            <id value="4ba12d87-6876-4505-a38b-ab2a324e4891"/>
            <meta>
               <profile value="http://hl7.eu/fhir/laboratory/StructureDefinition/Observation-resultslab-eu-lab"/>
            </meta>
            <text>
               <status value="generated"/>
               <div xmlns="http://www.w3.org/1999/xhtml">
                  <table class="hl7__eu__lab__report">
                     <tr>
                        <th>Test</th>
                        <th>19-Jan-2025</th>
                        <th>Reference Range</th>
                        <th>Unit</th>
                     </tr>
                     <tr>
                        <td>Cholesterol [Mass/volume] in Serum or Plasma</td>
                        <td>255.1</td>
                        <td>0 - 200</td>
                        <td>H</td>
                        <td>mg/dL</td>
                     </tr>
                  </table>
               </div>
            </text>
            <status value="final"/>
            <category>
               <coding>
                  <system value="http://terminology.hl7.org/CodeSystem/observation-category"/>
                  <code value="laboratory"/>
               </coding>
            </category>
            <code>
               <coding>
                  <system value="http://loinc.org"/>
                  <code value="2093-3"/>
                  <display value="Cholesterol [Mass/volume] in Serum or Plasma"/>
               </coding>
               <text value="Cholesterol [Mass/volume] in Serum or Plasma"/>
            </code>
            <subject>
               <reference value="urn:uuid:805cec96-0a32-48bc-b5cd-0aa267f0941a"/>
               <display value="Russell Khan"/>
            </subject>
            <effectiveDateTime value="2025-01-19T13:31:07Z"/>
            <performer>
               <display value="The Central European Lab"/>
            </performer>
            <valueQuantity>
               <value value="255.1"/>
               <unit value="mg/dL"/>
               <system value="http://unitsofmeasure.org"/>
               <code value="mg/dL"/>
            </valueQuantity>
            <interpretation>
               <coding>
                  <system value="http://terminology.hl7.org/CodeSystem/v3-ObservationInterpretation"/>
                  <code value="H"/>
                  <display value="High"/>
               </coding>
            </interpretation>
            <referenceRange>
               <low>
                  <value value="0"/>
                  <system value="http://unitsofmeasure.org"/>
                  <code value="mg/dL"/>
               </low>
            </referenceRange>
            <referenceRange>
               <high>
                  <value value="200"/>
                  <system value="http://unitsofmeasure.org"/>
                  <code value="mg/dL"/>
               </high>
            </referenceRange>
         </Observation>
      </resource>
   </entry>
   <entry>
      <fullUrl value="urn:uuid:8a961050-7227-45e4-b60a-686721e9f481"/>
      <resource>
         <Observation>
            <id value="8a961050-7227-45e4-b60a-686721e9f481"/>
            <meta>
               <profile value="http://hl7.eu/fhir/laboratory/StructureDefinition/Observation-resultslab-eu-lab"/>
            </meta>
            <text>
               <status value="generated"/>
               <div xmlns="http://www.w3.org/1999/xhtml">
                  <table class="hl7__eu__lab__report">
                     <tr>
                        <th>Test</th>
                        <th>19-Jan-2025</th>
                        <th>Reference Range</th>
                        <th>Unit</th>
                     </tr>
                     <tr>
                        <td>Triglyceride [Mass/volume] in Serum or Plasma</td>
                        <td>110.8</td>
                        <td>0 - 150</td>
                        <td/>
                        <td>mg/dL</td>
                     </tr>
                  </table>
               </div>
            </text>
            <status value="final"/>
            <category>
               <coding>
                  <system value="http://terminology.hl7.org/CodeSystem/observation-category"/>
                  <code value="laboratory"/>
               </coding>
            </category>
            <code>
               <coding>
                  <system value="http://loinc.org"/>
                  <code value="2571-8"/>
                  <display value="Triglyceride [Mass/volume] in Serum or Plasma"/>
               </coding>
               <text value="Triglyceride [Mass/volume] in Serum or Plasma"/>
            </code>
            <subject>
               <reference value="urn:uuid:805cec96-0a32-48bc-b5cd-0aa267f0941a"/>
               <display value="Russell Khan"/>
            </subject>
            <effectiveDateTime value="2025-01-19T13:31:07Z"/>
            <performer>
               <display value="The Central European Lab"/>
            </performer>
            <valueQuantity>
               <value value="110.8"/>
               <unit value="mg/dL"/>
               <system value="http://unitsofmeasure.org"/>
               <code value="mg/dL"/>
            </valueQuantity>
            <referenceRange>
               <low>
                  <value value="0"/>
                  <system value="http://unitsofmeasure.org"/>
                  <code value="mg/dL"/>
               </low>
            </referenceRange>
            <referenceRange>
               <high>
                  <value value="150"/>
                  <system value="http://unitsofmeasure.org"/>
                  <code value="mg/dL"/>
               </high>
            </referenceRange>
         </Observation>
      </resource>
   </entry>
   <entry>
      <fullUrl value="urn:uuid:c5baa484-e340-4904-a3bb-adc60da36af3"/>
      <resource>
         <Observation>
            <id value="c5baa484-e340-4904-a3bb-adc60da36af3"/>
            <meta>
               <profile value="http://hl7.eu/fhir/laboratory/StructureDefinition/Observation-resultslab-eu-lab"/>
            </meta>
            <text>
               <status value="generated"/>
               <div xmlns="http://www.w3.org/1999/xhtml">
                  <table class="hl7__eu__lab__report">
                     <tr>
                        <th>Test</th>
                        <th>19-Jan-2025</th>
                        <th>Reference Range</th>
                        <th>Unit</th>
                     </tr>
                     <tr>
                        <td>Cholesterol in LDL [Mass/volume] in Serum or Plasma by Direct assay</td>
                        <td>181.2</td>
                        <td>0 - 130</td>
                        <td>H</td>
                        <td>mg/dL</td>
                     </tr>
                  </table>
               </div>
            </text>
            <status value="final"/>
            <category>
               <coding>
                  <system value="http://terminology.hl7.org/CodeSystem/observation-category"/>
                  <code value="laboratory"/>
               </coding>
            </category>
            <code>
               <coding>
                  <system value="http://loinc.org"/>
                  <code value="18262-6"/>
                  <display value="Cholesterol in LDL [Mass/volume] in Serum or Plasma by Direct assay"/>
               </coding>
               <text value="Cholesterol in LDL [Mass/volume] in Serum or Plasma by Direct assay"/>
            </code>
            <subject>
               <reference value="urn:uuid:805cec96-0a32-48bc-b5cd-0aa267f0941a"/>
               <display value="Russell Khan"/>
            </subject>
            <effectiveDateTime value="2025-01-19T13:31:07Z"/>
            <performer>
               <display value="The Central European Lab"/>
            </performer>
            <valueQuantity>
               <value value="181.2"/>
               <unit value="mg/dL"/>
               <system value="http://unitsofmeasure.org"/>
               <code value="mg/dL"/>
            </valueQuantity>
            <interpretation>
               <coding>
                  <system value="http://terminology.hl7.org/CodeSystem/v3-ObservationInterpretation"/>
                  <code value="H"/>
                  <display value="High"/>
               </coding>
            </interpretation>
            <referenceRange>
               <low>
                  <value value="0"/>
                  <system value="http://unitsofmeasure.org"/>
                  <code value="mg/dL"/>
               </low>
            </referenceRange>
            <referenceRange>
               <high>
                  <value value="130"/>
                  <system value="http://unitsofmeasure.org"/>
                  <code value="mg/dL"/>
               </high>
            </referenceRange>
         </Observation>
      </resource>
   </entry>
   <entry>
      <fullUrl value="urn:uuid:3724592d-b3a2-4acc-a53d-153701f74dbb"/>
      <resource>
         <Observation>
            <id value="3724592d-b3a2-4acc-a53d-153701f74dbb"/>
            <meta>
               <profile value="http://hl7.eu/fhir/laboratory/StructureDefinition/Observation-resultslab-eu-lab"/>
            </meta>
            <text>
               <status value="generated"/>
               <div xmlns="http://www.w3.org/1999/xhtml">
                  <table class="hl7__eu__lab__report">
                     <tr>
                        <th>Test</th>
                        <th>19-Jan-2025</th>
                        <th>Reference Range</th>
                        <th>Unit</th>
                     </tr>
                     <tr>
                        <td>Cholesterol in HDL [Mass/volume] in Serum or Plasma</td>
                        <td>51.8</td>
                        <td>40 - 60</td>
                        <td/>
                        <td>mg/dL</td>
                     </tr>
                  </table>
               </div>
            </text>
            <status value="final"/>
            <category>
               <coding>
                  <system value="http://terminology.hl7.org/CodeSystem/observation-category"/>
                  <code value="laboratory"/>
               </coding>
            </category>
            <code>
               <coding>
                  <system value="http://loinc.org"/>
                  <code value="2085-9"/>
                  <display value="Cholesterol in HDL [Mass/volume] in Serum or Plasma"/>
               </coding>
               <text value="Cholesterol in HDL [Mass/volume] in Serum or Plasma"/>
            </code>
            <subject>
               <reference value="urn:uuid:805cec96-0a32-48bc-b5cd-0aa267f0941a"/>
               <display value="Russell Khan"/>
            </subject>
            <effectiveDateTime value="2025-01-19T13:31:07Z"/>
            <performer>
               <display value="The Central European Lab"/>
            </performer>
            <valueQuantity>
               <value value="51.8"/>
               <unit value="mg/dL"/>
               <system value="http://unitsofmeasure.org"/>
               <code value="mg/dL"/>
            </valueQuantity>
            <referenceRange>
               <low>
                  <value value="40"/>
                  <system value="http://unitsofmeasure.org"/>
                  <code value="mg/dL"/>
               </low>
            </referenceRange>
            <referenceRange>
               <high>
                  <value value="60"/>
                  <system value="http://unitsofmeasure.org"/>
                  <code value="mg/dL"/>
               </high>
            </referenceRange>
         </Observation>
      </resource>
   </entry>
   <entry>
      <fullUrl value="urn:uuid:64b874e1-6d1c-4945-b32b-4cc14d7c12ff"/>
      <resource>
         <Device>
            <id value="64b874e1-6d1c-4945-b32b-4cc14d7c12ff"/>
            <text>
               <status value="generated"/>
               <div xmlns="http://www.w3.org/1999/xhtml">SYNDERAI Synthetic Generator v5.0</div>
            </text>
            <status value="active&#34;"/>
            <distinctIdentifier value="synderai-generator-50"/>
            <manufacturer value="SYNDERAI Project"/>
            <deviceName>
               <name value="SYNDERAI Synthetic Generator"/>
               <type value="manufacturer-name"/>
            </deviceName>
            <version>
               <value value="5.0"/>
            </version>
         </Device>
      </resource>
   </entry>
   <entry>
      <fullUrl value="urn:uuid:456347a3-ad01-4969-b2e4-0dd34b0db778"/>
      <resource>
         <Provenance>
            <id value="456347a3-ad01-4969-b2e4-0dd34b0db778"/>
            <text>
               <status value="generated"/>
               <div xmlns="http://www.w3.org/1999/xhtml">Provenance for SYNDERAI Synthetic Example Data Resource</div>
            </text>
            <target>
               <reference value="Patient/805cec96-0a32-48bc-b5cd-0aa267f0941a"/>
            </target>
            <target>
               <reference value="Bundle/43a0b203-416d-4ae8-9fe2-73a47389f444"/>
            </target>
            <target>
               <reference value="Composition/3d930115-860e-4891-9f6c-906de0e83229"/>
            </target>
            <target>
               <reference value="PractitionerRole/c1d8dfa0-e1f6-4881-9f91-cff6850e970b"/>
            </target>
            <target>
               <reference value="Organization/ace9ffbf-ec4a-4da5-8903-27fba98347e3"/>
            </target>
            <target>
               <reference value="Practitioner/bdfbab0f-dc50-4bf2-9a01-9de3bf81d9e6"/>
            </target>
            <recorded value="2025-01-19T13:31:07Z"/>
            <policy value="https://synderai.net/synderai-synthetic-data-policy"/>
            <reason>
               <text value="Interoperability Testing and Training (non-clinical use)"/>
            </reason>
            <activity>
               <text value="Synthetic Example Data Generation"/>
            </activity>
            <agent>
               <type>
                  <text value="author"/>
               </type>
               <who>
                  <reference value="Device/64b874e1-6d1c-4945-b32b-4cc14d7c12ff"/>
               </who>
            </agent>
         </Provenance>
      </resource>
   </entry>
</Bundle>