<Bundle xmlns="http://hl7.org/fhir">
   <id value="f11f96aa-703a-4523-816f-aa99552a3287"/>
   <meta>
      <profile value="http://hl7.eu/fhir/eps/StructureDefinition/bundle-eu-eps"/>
   </meta>
   <identifier>
      <system value="urn:oid:2.16.840.1.113883.2.51.999"/>
      <value value="648774cf-80f1-4c9d-88e6-8c0cd8325712"/>
      <assigner>
         <display value="HL7 Europe"/>
      </assigner>
   </identifier>
   <type value="document"/>
   <timestamp value="2025-04-22T02:49:43Z"/>
   <entry>
      <fullUrl value="urn:uuid:2d9f2afa-d860-4629-97a5-417e233b1f41"/>
      <resource>
         <Composition>
            <id value="2d9f2afa-d860-4629-97a5-417e233b1f41"/>
            <meta>
               <profile value="http://hl7.eu/fhir/eps/StructureDefinition/composition-eu-eps"/>
               <security>
                  <system value="http://terminology.hl7.org/CodeSystem/v3-ActReason"/>
                  <code value="HTEST"/>
               </security>
               <security>
                  <system value="http://terminology.hl7.org/CodeSystem/v3-ActReason"/>
                  <code value="TRAIN"/>
               </security>
               <tag>
                  <system value="https://synderai.net/fhir/CodeSystem/tags"/>
                  <code value="synthetic"/>
                  <display value="SYNDERAI Synthetic data"/>
               </tag>
            </meta>
            <identifier>
               <system value="urn:oid:2.16.840.1.113883.2.51.999"/>
               <value value="5ce0fbfc-ab6e-46d6-bffb-8477c77c1721"/>
               <assigner>
                  <display value="HL7 Europe"/>
               </assigner>
            </identifier>
            <status value="final"/>
            <type>
               <coding>
                  <system value="http://loinc.org"/>
                  <code value="60591-5"/>
                  <display value="Patient summary Document"/>
               </coding>
               <text value="Patient summary Document"/>
            </type>
            <subject>
               <reference value="urn:uuid:67c3ba28-c25a-4b97-9eef-e80f5cad2359"/>
               <display value="Roy Harrison"/>
            </subject>
            <date value="2025-04-22"/>
            <author>
               <reference value="urn:uuid:7c0c77b1-3593-495a-984b-cd192e06088d"/>
            </author>
            <title value="European Patient Summary"/>
            <confidentiality value="N"/>
            <custodian>
               <reference value="urn:uuid:7d738262-13bf-4201-acad-4b464134d095"/>
            </custodian>
            <section>
               <title value="Problem list"/>
               <code>
                  <coding>
                     <system value="http://loinc.org"/>
                     <code value="11450-4"/>
                     <display value="Problem list - Reported"/>
                  </coding>
               </code>
               <text>
                  <status value="generated"/>
                  <div xmlns="http://www.w3.org/1999/xhtml">
                     <table class="hl7__ips">
                        <tr>
                           <th>Condition</th>
                           <th>Onset Date</th>
                           <th>Status</th>
                        </tr>
                        <tr>
                           <td>Hypertriglyceridemia</td>
                           <td>
                              <span class="nb">11-Dec-2001</span>
                           </td>
                           <td>active</td>
                        </tr>
                        <tr>
                           <td>Type 2 diabetes mellitus</td>
                           <td>
                              <span class="nb">05-Dec-2000</span>
                           </td>
                           <td>active</td>
                        </tr>
                        <tr>
                           <td>Essential hypertension</td>
                           <td>
                              <span class="nb">05-Dec-2000</span>
                           </td>
                           <td>active</td>
                        </tr>
                        <tr>
                           <td>Metabolic syndrome X</td>
                           <td>
                              <span class="nb">05-Dec-2000</span>
                           </td>
                           <td>active</td>
                        </tr>
                        <tr>
                           <td>Anemia</td>
                           <td>
                              <span class="nb">05-Dec-2000</span>
                           </td>
                           <td>active</td>
                        </tr>
                        <tr>
                           <td>Gout</td>
                           <td>
                              <span class="nb">09-Mar-1994</span>
                           </td>
                           <td>active</td>
                        </tr>
                     </table>
                  </div>
               </text>
               <entry>
                  <reference value="urn:uuid:3c69c551-9f9b-435a-a1bc-b23a1eb871d9"/>
               </entry>
               <entry>
                  <reference value="urn:uuid:e9877ee2-c358-4148-b3ac-afc7b8ea06ea"/>
               </entry>
               <entry>
                  <reference value="urn:uuid:64240b9b-ee2f-428d-9708-c63d647d076f"/>
               </entry>
               <entry>
                  <reference value="urn:uuid:49691131-c9ca-43b6-946b-678ec16e2031"/>
               </entry>
               <entry>
                  <reference value="urn:uuid:c6a03846-fa9a-42bf-be85-986eca84650f"/>
               </entry>
               <entry>
                  <reference value="urn:uuid:9aceb1a0-ba8f-404b-9069-bc8b19b35666"/>
               </entry>
            </section>
            <section>
               <title value="Medication list"/>
               <code>
                  <coding>
                     <system value="http://loinc.org"/>
                     <code value="10160-0"/>
                     <display value="History of Medication use Narrative"/>
                  </coding>
               </code>
               <text>
                  <status value="generated"/>
                  <div xmlns="http://www.w3.org/1999/xhtml">
                     <table class="hl7__ips">
                        <tr>
                           <th>Medication</th>
                           <th>Since</th>
                           <th>Form</th>
                           <th>Dosage</th>
                           <th>Reason</th>
                        </tr>
                        <tr>
                           <td>Lisinopril 10 mg oral tablet</td>
                           <td>
                              <span class="nb">2025-04-22</span>
                           </td>
                           <td>-</td>
                           <td>1 tablet (10 mg) by mouth once daily</td>
                           <td>Essential hypertension (disorder)</td>
                        </tr>
                     </table>
                  </div>
               </text>
               <entry>
                  <reference value="urn:uuid:6c8281c5-f50a-464d-b812-460b67603ae6"/>
               </entry>
            </section>
            <section>
               <title value="Immunizations list"/>
               <code>
                  <coding>
                     <system value="http://loinc.org"/>
                     <code value="11369-6"/>
                     <display value="History of Immunization note"/>
                  </coding>
               </code>
               <text>
                  <status value="generated"/>
                  <div xmlns="http://www.w3.org/1999/xhtml">
                     <table class="hl7__ips">
                        <tr>
                           <th>Vaccine</th>
                           <th>Date</th>
                        </tr>
                        <tr>
                           <td>Influenza virus antigen only vaccine product</td>
                           <td>
                              <span class="nb">22-Apr-2025</span>
                           </td>
                        </tr>
                        <tr>
                           <td>SARS-CoV-2 mRNA vaccine</td>
                           <td>
                              <span class="nb">23-Mar-2021</span>
                           </td>
                        </tr>
                        <tr>
                           <td>Clostridium tetani toxoid antigen adsorbed only vaccine product</td>
                           <td>
                              <span class="nb">13-Mar-2018</span>
                           </td>
                        </tr>
                        <tr>
                           <td>Live attenuated Human alphaherpesvirus 3 only vaccine product</td>
                           <td>
                              <span class="nb">13-Mar-2018</span>
                           </td>
                        </tr>
                     </table>
                  </div>
               </text>
               <entry>
                  <reference value="urn:uuid:5a68d8b6-865d-4046-9678-649c85071c22"/>
               </entry>
               <entry>
                  <reference value="urn:uuid:52546e62-1d54-4fb4-a1b7-ed380413a24e"/>
               </entry>
               <entry>
                  <reference value="urn:uuid:0ea97572-e73f-4a74-93e0-5bf5746aa395"/>
               </entry>
               <entry>
                  <reference value="urn:uuid:68885718-712b-4187-a20c-1fd0ed7398cf"/>
               </entry>
            </section>
            <section>
               <title value="Procedure History list"/>
               <code>
                  <coding>
                     <system value="http://loinc.org"/>
                     <code value="47519-4"/>
                     <display value="History of Procedures Document"/>
                  </coding>
               </code>
               <text>
                  <status value="generated"/>
                  <div xmlns="http://www.w3.org/1999/xhtml">
                     <table class="hl7__ips">
                        <tr>
                           <th>Procedure</th>
                           <th>Date</th>
                           <th>Reason</th>
                        </tr>
                        <tr>
                           <td>Pre-discharge assessment</td>
                           <td>
                              <span class="nb">13-Jun-2022</span>
                           </td>
                           <td>-</td>
                        </tr>
                        <tr>
                           <td>Discharge from skilled nursing facility (procedure)</td>
                           <td>
                              <span class="nb">13-Jun-2022</span>
                           </td>
                           <td>-</td>
                        </tr>
                        <tr>
                           <td>Nursing care/supplementary surveillance</td>
                           <td>
                              <span class="nb">12-Jun-2022</span>
                           </td>
                           <td>-</td>
                        </tr>
                        <tr>
                           <td>Occupational therapy</td>
                           <td>
                              <span class="nb">10-Jun-2022</span>
                           </td>
                           <td>-</td>
                        </tr>
                        <tr>
                           <td>Care regimes assessment</td>
                           <td>
                              <span class="nb">08-Jun-2022</span>
                           </td>
                           <td>-</td>
                        </tr>
                        <tr>
                           <td>Professional / ancillary services care</td>
                           <td>
                              <span class="nb">07-Jun-2022</span>
                           </td>
                           <td>-</td>
                        </tr>
                        <tr>
                           <td>Speech and language therapy regime</td>
                           <td>
                              <span class="nb">15-May-2022</span>
                           </td>
                           <td>-</td>
                        </tr>
                        <tr>
                           <td>Physical therapy procedure</td>
                           <td>
                              <span class="nb">02-May-2022</span>
                           </td>
                           <td>-</td>
                        </tr>
                        <tr>
                           <td>History AND physical examination</td>
                           <td>
                              <span class="nb">20-Apr-2022</span>
                           </td>
                           <td>-</td>
                        </tr>
                        <tr>
                           <td>Initial patient assessment</td>
                           <td>
                              <span class="nb">20-Apr-2022</span>
                           </td>
                           <td>-</td>
                        </tr>
                        <tr>
                           <td>Development of individualized plan of care</td>
                           <td>
                              <span class="nb">20-Apr-2022</span>
                           </td>
                           <td>-</td>
                        </tr>
                        <tr>
                           <td>Radiography of ankle</td>
                           <td>
                              <span class="nb">10-Mar-2016</span>
                           </td>
                           <td>-</td>
                        </tr>
                        <tr>
                           <td>Bone immobilization</td>
                           <td>
                              <span class="nb">10-Mar-2016</span>
                           </td>
                           <td>Fracture of ankle</td>
                        </tr>
                     </table>
                  </div>
               </text>
               <entry>
                  <reference value="urn:uuid:b2d06ef3-dbb7-4d56-bdf5-f9b7d6130fdd"/>
               </entry>
               <entry>
                  <reference value="urn:uuid:323fedd5-dfc0-409f-8a6e-9bab989a3b5c"/>
               </entry>
               <entry>
                  <reference value="urn:uuid:60ca922f-6a40-4c2a-82fc-d47def2e7b0d"/>
               </entry>
               <entry>
                  <reference value="urn:uuid:873de8e4-83ad-4bcd-8d80-a14b83e7d8eb"/>
               </entry>
               <entry>
                  <reference value="urn:uuid:11ab18f8-b7a6-4d82-9905-ddaa3c3b0718"/>
               </entry>
               <entry>
                  <reference value="urn:uuid:639d66aa-8f96-4f2b-b4c1-ea953f340d04"/>
               </entry>
               <entry>
                  <reference value="urn:uuid:ac4d406b-446f-4f06-9511-6dba9718a879"/>
               </entry>
               <entry>
                  <reference value="urn:uuid:a0fa4f6b-bb9d-4f28-afa1-a90a3b32e779"/>
               </entry>
               <entry>
                  <reference value="urn:uuid:fa0ea2e0-a6e5-4a25-bda8-4d9a0ba4755e"/>
               </entry>
               <entry>
                  <reference value="urn:uuid:188f0441-48df-4338-b6e2-33127653521f"/>
               </entry>
               <entry>
                  <reference value="urn:uuid:42005c5f-6539-488d-854f-94c305253485"/>
               </entry>
               <entry>
                  <reference value="urn:uuid:9cd1e1d0-72bf-424f-99c2-f0a8b6085762"/>
               </entry>
               <entry>
                  <reference value="urn:uuid:ad99e929-b9b1-47c1-9b60-910fce2f5466"/>
               </entry>
            </section>
            <section>
               <title value="Allergies and Intolerances"/>
               <code>
                  <coding>
                     <system value="http://loinc.org"/>
                     <code value="48765-2"/>
                     <display value="Allergies and adverse reactions Document"/>
                  </coding>
               </code>
               <text>
                  <status value="generated"/>
                  <div xmlns="http://www.w3.org/1999/xhtml">
                     <table class="hl7__ips">
                        <tr>
                           <th>Allergy/Intolerance</th>
                           <th>Onset Date</th>
                           <th>Status</th>
                           <th>Type</th>
                           <th>Reaction</th>
                        </tr>
                        <tr>
                           <td/>
                           <td>?</td>
                           <td>active</td>
                           <td>?</td>
                           <td/>
                        </tr>
                     </table>
                  </div>
               </text>
               <entry>
                  <reference value="urn:uuid:4daecb10-f9b4-455f-a8a2-e246fde0ab9b"/>
               </entry>
            </section>
            <section>
               <title value="Care Plan"/>
               <code>
                  <coding>
                     <system value="http://loinc.org"/>
                     <code value="18776-5"/>
                     <display value="Plan of care note"/>
                  </coding>
               </code>
               <text>
                  <status value="generated"/>
                  <div xmlns="http://www.w3.org/1999/xhtml">
                     <table class="hl7__ips">
                        <tr>
                           <th>Active Planned Care / Goals</th>
                           <th>Start Date</th>
                           <th>Reason</th>
                        </tr>
                        <tr>
                           <td>Lifestyle education regarding hypertension</td>
                           <td>
                              <span class="nb">05-Dec-2000</span>
                           </td>
                           <td>Essential hypertension (disorder)</td>
                        </tr>
                        <tr>
                           <td>
                              <ul>
                                 <li>Maintain blood pressure below 130/80 mmHg through lifestyle modifications.</li>
                                 <li>Reduce body weight by 5% to improve blood pressure control.</li>
                                 <li>Limit sodium intake to less than 2.3 grams per day to help control blood pressure.</li>
                                 <li>Engage in at least 150 minutes of moderate-intensity aerobic physical activity per week.</li>
                              </ul>
                           </td>
                           <td/>
                           <td/>
                        </tr>
                        <tr>
                           <td>Diabetes self management plan</td>
                           <td>
                              <span class="nb">05-Dec-2000</span>
                           </td>
                           <td>Diabetes mellitus type 2 (disorder)</td>
                        </tr>
                        <tr>
                           <td>
                              <ul>
                                 <li>Maintain or reduce hemoglobin A1c to individualized target to optimize glycemic control.</li>
                                 <li>Maintain fasting blood glucose within recommended range to support diabetes control.</li>
                                 <li>Maintain blood pressure below recommended threshold to reduce cardiovascular risk in diabetes.</li>
                                 <li>Maintain LDL cholesterol below recommended threshold to reduce cardiovascular risk.</li>
                                 <li>Achieve and maintain weight reduction to support glycemic control and overall health.</li>
                              </ul>
                           </td>
                           <td/>
                           <td/>
                        </tr>
                        <tr>
                           <td>Musculoskeletal care</td>
                           <td>
                              <span class="nb">09-Mar-1994</span>
                           </td>
                           <td>-</td>
                        </tr>
                     </table>
                  </div>
               </text>
               <entry>
                  <reference value="urn:uuid:771206c5-39c1-4cff-aabe-cab6134535fc"/>
               </entry>
               <entry>
                  <reference value="urn:uuid:c425f9ed-a511-45b7-8024-35f18455f9c5"/>
               </entry>
               <entry>
                  <reference value="urn:uuid:e466e2c1-8024-4214-83b0-a7532280cf41"/>
               </entry>
            </section>
            <section>
               <title value="Vital Signs"/>
               <code>
                  <coding>
                     <system value="http://loinc.org"/>
                     <code value="8716-3"/>
                     <display value="Vital signs note"/>
                  </coding>
               </code>
               <text>
                  <status value="generated"/>
                  <div xmlns="http://www.w3.org/1999/xhtml">
                     <table class="hl7__ips">
                        <tr>
                           <th>Vital Signs</th>
                           <th>2025-04-22</th>
                           <th>2024-04-16</th>
                        </tr>
                        <tr>
                           <td>Body Height</td>
                           <td>180.6 cm</td>
                           <td>180.6 cm</td>
                        </tr>
                        <tr>
                           <td>Pain severity - 0-10 verbal numeric rating [Score] - Reported</td>
                           <td>1 {score}</td>
                           <td>3 {score}</td>
                        </tr>
                        <tr>
                           <td>Body Weight</td>
                           <td>91.2 kg</td>
                           <td>91.2 kg</td>
                        </tr>
                        <tr>
                           <td>Body mass index (BMI) [Ratio]</td>
                           <td>28 kg/m2</td>
                           <td>28 kg/m2</td>
                        </tr>
                        <tr>
                           <td>Diastolic Blood Pressure</td>
                           <td>94 mm[Hg]</td>
                           <td>94 mm[Hg]</td>
                        </tr>
                        <tr>
                           <td>Systolic Blood Pressure</td>
                           <td>129 mm[Hg]</td>
                           <td>131 mm[Hg]</td>
                        </tr>
                        <tr>
                           <td>Heart rate</td>
                           <td>65 /min</td>
                           <td>81 /min</td>
                        </tr>
                        <tr>
                           <td>Respiratory rate</td>
                           <td>13 /min</td>
                           <td>14 /min</td>
                        </tr>
                     </table>
                  </div>
               </text>
               <entry>
                  <reference value="urn:uuid:eb859592-562b-4e52-847e-715fde166cd2"/>
               </entry>
               <entry>
                  <reference value="urn:uuid:a0df9a6e-4840-44ac-8a85-ab9e2239d2cf"/>
               </entry>
               <entry>
                  <reference value="urn:uuid:b059a088-76c6-43ed-829e-95cdcb5d41ab"/>
               </entry>
               <entry>
                  <reference value="urn:uuid:338e63c2-c3e7-4927-8f8d-14bb9019bf6a"/>
               </entry>
               <entry>
                  <reference value="urn:uuid:b7b645f6-9db4-4e57-bb9d-910f3efb284b"/>
               </entry>
               <entry>
                  <reference value="urn:uuid:a180761f-5675-40b8-8fac-084d4f2551a4"/>
               </entry>
               <entry>
                  <reference value="urn:uuid:f636e7be-b977-4bf5-b316-b49bf71ee372"/>
               </entry>
               <entry>
                  <reference value="urn:uuid:7bbd254f-9f11-454a-9fbe-e7e3d98456d4"/>
               </entry>
               <entry>
                  <reference value="urn:uuid:70ec58dc-3c3f-4624-9c28-e3bfff7aaa40"/>
               </entry>
               <entry>
                  <reference value="urn:uuid:ab969e41-5ccb-48be-aea5-5b371c220292"/>
               </entry>
               <entry>
                  <reference value="urn:uuid:648c05a0-b3bd-40b2-a01e-0b003340118a"/>
               </entry>
               <entry>
                  <reference value="urn:uuid:00d730d2-ee8b-4265-bbaa-c6dc15822c14"/>
               </entry>
               <entry>
                  <reference value="urn:uuid:2a5feb51-0e50-40ec-ad62-3d327e2c11e9"/>
               </entry>
               <entry>
                  <reference value="urn:uuid:0b6a2a0c-37b6-4c17-a13c-caf7cb2f3068"/>
               </entry>
               <entry>
                  <reference value="urn:uuid:c6f5bfe2-16a1-44c5-9d03-660334263122"/>
               </entry>
               <entry>
                  <reference value="urn:uuid:45581e7b-ee26-4445-9d38-50c9dcae72c3"/>
               </entry>
            </section>
            <section>
               <title value="Relevant diagnostic tests/laboratory data"/>
               <code>
                  <coding>
                     <system value="http://loinc.org"/>
                     <code value="30954-2"/>
                     <display value="Relevant diagnostic tests/laboratory data note"/>
                  </coding>
               </code>
               <text>
                  <status value="generated"/>
                  <div xmlns="http://www.w3.org/1999/xhtml">
                     <table class="hl7__ips">
                        <table class="hl7__ips">
                           <thead>
                              <tr>
                                 <th>Recent Lab Observations</th>
                                 <th>22-APR-2025</th>
                                 <th>Reference Range</th>
                                 <th>Unit</th>
                              </tr>
                           </thead>
                           <tbody>
                              <tr>
                                 <td>Hemoglobin A1c/Hemoglobin.total in Blood</td>
                                 <td>
                                    <strong>7.0 H</strong>
                                 </td>
                                 <td>4.6 - 6</td>
                                 <td>%</td>
                              </tr>
                              <tr>
                                 <td>Glucose [Mass/volume] in Blood</td>
                                 <td>
                                    <strong>114.5 H</strong>
                                 </td>
                                 <td>70 - 99</td>
                                 <td>mg/dL</td>
                              </tr>
                              <tr>
                                 <td>Urea nitrogen [Mass/volume] in Blood</td>
                                 <td>15.6</td>
                                 <td>7 - 50</td>
                                 <td>mg/dL</td>
                              </tr>
                              <tr>
                                 <td>Creatinine [Mass/volume] in Blood</td>
                                 <td>1.0</td>
                                 <td>0.9 - 1.3</td>
                                 <td>mg/dL</td>
                              </tr>
                              <tr>
                                 <td>Calcium [Mass/volume] in Blood</td>
                                 <td>8.6</td>
                                 <td>8.5 - 10.5</td>
                                 <td>mg/dL</td>
                              </tr>
                              <tr>
                                 <td>Sodium [Moles/volume] in Blood</td>
                                 <td>137.9</td>
                                 <td>135 - 145</td>
                                 <td>mmol/L</td>
                              </tr>
                              <tr>
                                 <td>Potassium [Moles/volume] in Blood</td>
                                 <td>5.0</td>
                                 <td>3.5 - 5.1</td>
                                 <td>mmol/L</td>
                              </tr>
                              <tr>
                                 <td>Chloride [Moles/volume] in Blood</td>
                                 <td>102.3</td>
                                 <td>98 - 114</td>
                                 <td>mmol/L</td>
                              </tr>
                              <tr>
                                 <td>Carbon dioxide, total [Moles/volume] in Blood</td>
                                 <td>25.5</td>
                                 <td>22 - 32</td>
                                 <td>mmol/L</td>
                              </tr>
                              <tr>
                                 <td>Cholesterol [Mass/volume] in Serum or Plasma</td>
                                 <td>
                                    <strong>215.3 H</strong>
                                 </td>
                                 <td>125 - 200</td>
                                 <td>mg/dL</td>
                              </tr>
                              <tr>
                                 <td>Triglyceride [Mass/volume] in Serum or Plasma</td>
                                 <td>
                                    <strong>183.1 H</strong>
                                 </td>
                                 <td>0 - 150</td>
                                 <td>mg/dL</td>
                              </tr>
                              <tr>
                                 <td>Cholesterol in LDL [Mass/volume] in Serum or Plasma by Direct assay</td>
                                 <td>
                                    <strong>134.9 H</strong>
                                 </td>
                                 <td>0 - 130</td>
                                 <td>mg/dL</td>
                              </tr>
                              <tr>
                                 <td>Cholesterol in HDL [Mass/volume] in Serum or Plasma</td>
                                 <td>43.8</td>
                                 <td>40 - 60</td>
                                 <td>mg/dL</td>
                              </tr>
                              <tr>
                                 <td>Microalbumin/Creatinine [Mass Ratio] in Urine</td>
                                 <td>8.3</td>
                                 <td>0 - 30</td>
                                 <td>mg/g</td>
                              </tr>
                           </tbody>
                        </table>
                     </table>
                  </div>
               </text>
               <entry>
                  <reference value="urn:uuid:54953c49-310c-4264-9cb9-3643fc38793d"/>
               </entry>
               <entry>
                  <reference value="urn:uuid:66de5714-1dfe-45d2-abfe-39f4bbe00765"/>
               </entry>
               <entry>
                  <reference value="urn:uuid:e6a972a9-d816-4cff-ac0a-4e8694dadb63"/>
               </entry>
               <entry>
                  <reference value="urn:uuid:5208a3d2-ebba-47de-a8f6-7f9b88afe256"/>
               </entry>
               <entry>
                  <reference value="urn:uuid:3d5753ca-c7ce-45d8-a95b-2ad85b182f49"/>
               </entry>
               <entry>
                  <reference value="urn:uuid:fa954540-dbf0-4755-a9e7-008856e0c426"/>
               </entry>
               <entry>
                  <reference value="urn:uuid:5aba2e4c-17c4-4fe1-b961-6e88a63a2c88"/>
               </entry>
               <entry>
                  <reference value="urn:uuid:0fe102c4-4cf6-471b-ba74-e788e4c37275"/>
               </entry>
               <entry>
                  <reference value="urn:uuid:1f5f65df-6272-4f9c-8689-270988d70cd0"/>
               </entry>
               <entry>
                  <reference value="urn:uuid:354f6143-ada3-495b-9e1e-af7b474337b1"/>
               </entry>
               <entry>
                  <reference value="urn:uuid:35f0d447-54d3-45e6-9fb6-e971ef0f3937"/>
               </entry>
               <entry>
                  <reference value="urn:uuid:8571743a-388f-46d3-b315-1dca11c513a1"/>
               </entry>
               <entry>
                  <reference value="urn:uuid:ce295b25-4ed9-4b53-97e4-579ef0b7d623"/>
               </entry>
               <entry>
                  <reference value="urn:uuid:5dfd16d7-41e6-4f27-81f8-1fd846adc9e1"/>
               </entry>
            </section>
            <section>
               <title value="Device Use"/>
               <code>
                  <coding>
                     <system value="http://loinc.org"/>
                     <code value="46264-8"/>
                     <display value="History of medical device use"/>
                  </coding>
               </code>
               <text>
                  <status value="generated"/>
                  <div xmlns="http://www.w3.org/1999/xhtml">
                     <table class="hl7__ips">
                        <tr>
                           <th>Device</th>
                           <th>Date (since)</th>
                        </tr>
                        <tr>
                           <td>Blood glucose meter (physical object)</td>
                           <td>
                              <span class="nb">05-Dec-2000</span>
                           </td>
                        </tr>
                     </table>
                  </div>
               </text>
               <entry>
                  <reference value="urn:uuid:c667d56f-9aea-485d-bc38-efa031e4c1e6"/>
               </entry>
            </section>
         </Composition>
      </resource>
   </entry>
   <entry>
      <fullUrl value="urn:uuid:67c3ba28-c25a-4b97-9eef-e80f5cad2359"/>
      <resource>
         <Patient>
            <id value="67c3ba28-c25a-4b97-9eef-e80f5cad2359"/>
            <meta>
               <profile value="http://hl7.eu/fhir/eps/StructureDefinition/patient-eu-eps"/>
               <security>
                  <system value="http://terminology.hl7.org/CodeSystem/v3-ActReason"/>
                  <code value="HTEST"/>
               </security>
               <security>
                  <system value="http://terminology.hl7.org/CodeSystem/v3-ActReason"/>
                  <code value="TRAIN"/>
               </security>
               <tag>
                  <system value="https://synderai.net/fhir/CodeSystem/tags"/>
                  <code value="synthetic"/>
                  <display value="SYNDERAI Synthetic data"/>
               </tag>
            </meta>
            <text>
               <status value="generated"/>
               <div xmlns="http://www.w3.org/1999/xhtml">
                  <table class="hl7__ips">
                     <tr>
                        <td>Roy Harrison</td>
                        <td>male</td>
                        <td>02-Oct-1969</td>
                     </tr>
                  </table>
               </div>
            </text>
            <extension url="http://hl7.org/fhir/StructureDefinition/patient-nationality">
               <valueCodeableConcept>
                  <coding>
                     <system value="http://hl7.org/fhir/ValueSet/country"/>
                     <code value="GB"/>
                  </coding>
               </valueCodeableConcept>
            </extension>
            <identifier>
               <type>
                  <coding>
                     <system value="http://terminology.hl7.org/CodeSystem/v2-0203"/>
                     <code value="PT"/>
                  </coding>
               </type>
               <system value="http://ec.europa.eu/identifier/eci"/>
               <value value="7093-553922-4"/>
            </identifier>
            <identifier>
               <type>
                  <coding>
                     <system value="http://terminology.hl7.org/CodeSystem/v2-0203"/>
                     <code value="MR"/>
                  </coding>
               </type>
               <system value="http://local.setting.eu/identifier"/>
               <value value="42633ccd-9ef5-6a00-b7c9-353a9679bf2b"/>
            </identifier>
            <name>
               <family value="Harrison"/>
            </name>
            <name>
               <given value="Roy"/>
            </name>
            <name>
               <text value="Roy Harrison"/>
            </name>
            <telecom>
               <system value="phone"/>
               <value value="01632960974"/>
            </telecom>
            <gender value="male"/>
            <birthDate value="1969-10-02"/>
            <address>
               <use value="home"/>
               <type value="physical"/>
               <line value="Flat 4"/>
               <line value="Dyer route"/>
               <city value="Baileyville"/>
               <postalCode value="BA1"/>
               <country value="United Kingdom"/>
            </address>
         </Patient>
      </resource>
   </entry>
   <entry>
      <fullUrl value="urn:uuid:7c0c77b1-3593-495a-984b-cd192e06088d"/>
      <resource>
         <PractitionerRole>
            <id value="7c0c77b1-3593-495a-984b-cd192e06088d"/>
            <meta>
               <profile value="http://hl7.eu/fhir/base/StructureDefinition/practitionerRole-eu"/>
            </meta>
            <text>
               <status value="generated"/>
               <div xmlns="http://www.w3.org/1999/xhtml">
                  <table class="hl7__ips">Provider Role Id 7c0c77b1-3593-495a-984b-cd192e06088d</table>
               </div>
            </text>
            <practitioner>
               <reference value="urn:uuid:d7b4ed99-b15e-4288-81be-b32e877e2dd0"/>
            </practitioner>
            <organization>
               <reference value="urn:uuid:7d738262-13bf-4201-acad-4b464134d095"/>
            </organization>
         </PractitionerRole>
      </resource>
   </entry>
   <entry>
      <fullUrl value="urn:uuid:d7b4ed99-b15e-4288-81be-b32e877e2dd0"/>
      <resource>
         <Practitioner>
            <id value="d7b4ed99-b15e-4288-81be-b32e877e2dd0"/>
            <meta>
               <profile value="http://hl7.eu/fhir/base/StructureDefinition/practitioner-eu"/>
            </meta>
            <text>
               <status value="generated"/>
               <div xmlns="http://www.w3.org/1999/xhtml">
                  <table class="hl7__ips">Dr. Hel Ping</table>
               </div>
            </text>
            <name>
               <family value="Ping"/>
               <given value="Hel"/>
               <prefix value="Dr."/>
            </name>
         </Practitioner>
      </resource>
   </entry>
   <entry>
      <fullUrl value="urn:uuid:7d738262-13bf-4201-acad-4b464134d095"/>
      <resource>
         <Organization>
            <id value="7d738262-13bf-4201-acad-4b464134d095"/>
            <meta>
               <profile value="http://hl7.eu/fhir/base/StructureDefinition/organization-eu"/>
            </meta>
            <text>
               <status value="generated"/>
               <div xmlns="http://www.w3.org/1999/xhtml">
                  <table class="hl7__ips">Evelina Children's Hospital</table>
               </div>
            </text>
            <identifier>
               <system value="urn:oid:2.16.840.1.113883.2.51.999"/>
               <value value="24c30b20-abf4-4ea7-bd83-b3b37947b385"/>
               <assigner>
                  <display value="HL7 Europe"/>
               </assigner>
            </identifier>
            <name value="Evelina Children&amp;#039;s Hospital"/>
            <address>
               <city value="London"/>
               <postalCode value="SE1 7"/>
               <country value="United Kingdom"/>
            </address>
         </Organization>
      </resource>
   </entry>
   <entry>
      <fullUrl value="urn:uuid:3c69c551-9f9b-435a-a1bc-b23a1eb871d9"/>
      <resource>
         <Condition>
            <id value="3c69c551-9f9b-435a-a1bc-b23a1eb871d9"/>
            <meta>
               <profile value="http://hl7.org/fhir/uv/ips/StructureDefinition/Condition-uv-ips"/>
            </meta>
            <text>
               <status value="generated"/>
               <div xmlns="http://www.w3.org/1999/xhtml">
                  <table class="hl7__ips">
                     <tr>
                        <td>Hypertriglyceridemia</td>
                        <td>
                           <span class="nb">11-Dec-2001</span>
                        </td>
                        <td>active</td>
                     </tr>
                  </table>
               </div>
            </text>
            <category>
               <coding>
                  <system value="http://terminology.hl7.org/CodeSystem/condition-category"/>
                  <code value="problem-list-item"/>
                  <display value="Problem List Item"/>
               </coding>
            </category>
            <code>
               <coding>
                  <system value="http://snomed.info/sct"/>
                  <code value="302870006"/>
                  <display value="Hypertriglyceridemia (disorder)"/>
               </coding>
               <text value="Hypertriglyceridemia"/>
            </code>
            <subject>
               <reference value="urn:uuid:"/>
               <display value="Roy Harrison"/>
            </subject>
            <onsetDateTime value="2001-12-11"/>
            <asserter>
               <reference value="urn:uuid:"/>
               <display value="Evelina Children&amp;#039;s Hospital"/>
            </asserter>
         </Condition>
      </resource>
   </entry>
   <entry>
      <fullUrl value="urn:uuid:e9877ee2-c358-4148-b3ac-afc7b8ea06ea"/>
      <resource>
         <Condition>
            <id value="e9877ee2-c358-4148-b3ac-afc7b8ea06ea"/>
            <meta>
               <profile value="http://hl7.org/fhir/uv/ips/StructureDefinition/Condition-uv-ips"/>
            </meta>
            <text>
               <status value="generated"/>
               <div xmlns="http://www.w3.org/1999/xhtml">
                  <table class="hl7__ips">
                     <tr>
                        <td>Type 2 diabetes mellitus</td>
                        <td>
                           <span class="nb">05-Dec-2000</span>
                        </td>
                        <td>active</td>
                     </tr>
                  </table>
               </div>
            </text>
            <category>
               <coding>
                  <system value="http://terminology.hl7.org/CodeSystem/condition-category"/>
                  <code value="problem-list-item"/>
                  <display value="Problem List Item"/>
               </coding>
            </category>
            <code>
               <coding>
                  <system value="http://snomed.info/sct"/>
                  <code value="44054006"/>
                  <display value="Diabetes mellitus type 2 (disorder)"/>
               </coding>
               <text value="Type 2 diabetes mellitus"/>
            </code>
            <subject>
               <reference value="urn:uuid:"/>
               <display value="Roy Harrison"/>
            </subject>
            <onsetDateTime value="2000-12-05"/>
            <asserter>
               <reference value="urn:uuid:"/>
               <display value="Evelina Children&amp;#039;s Hospital"/>
            </asserter>
         </Condition>
      </resource>
   </entry>
   <entry>
      <fullUrl value="urn:uuid:64240b9b-ee2f-428d-9708-c63d647d076f"/>
      <resource>
         <Condition>
            <id value="64240b9b-ee2f-428d-9708-c63d647d076f"/>
            <meta>
               <profile value="http://hl7.org/fhir/uv/ips/StructureDefinition/Condition-uv-ips"/>
            </meta>
            <text>
               <status value="generated"/>
               <div xmlns="http://www.w3.org/1999/xhtml">
                  <table class="hl7__ips">
                     <tr>
                        <td>Essential hypertension</td>
                        <td>
                           <span class="nb">05-Dec-2000</span>
                        </td>
                        <td>active</td>
                     </tr>
                  </table>
               </div>
            </text>
            <category>
               <coding>
                  <system value="http://terminology.hl7.org/CodeSystem/condition-category"/>
                  <code value="problem-list-item"/>
                  <display value="Problem List Item"/>
               </coding>
            </category>
            <code>
               <coding>
                  <system value="http://snomed.info/sct"/>
                  <code value="59621000"/>
                  <display value="Essential hypertension (disorder)"/>
               </coding>
               <text value="Essential hypertension"/>
            </code>
            <subject>
               <reference value="urn:uuid:"/>
               <display value="Roy Harrison"/>
            </subject>
            <onsetDateTime value="2000-12-05"/>
            <asserter>
               <reference value="urn:uuid:"/>
               <display value="Evelina Children&amp;#039;s Hospital"/>
            </asserter>
         </Condition>
      </resource>
   </entry>
   <entry>
      <fullUrl value="urn:uuid:49691131-c9ca-43b6-946b-678ec16e2031"/>
      <resource>
         <Condition>
            <id value="49691131-c9ca-43b6-946b-678ec16e2031"/>
            <meta>
               <profile value="http://hl7.org/fhir/uv/ips/StructureDefinition/Condition-uv-ips"/>
            </meta>
            <text>
               <status value="generated"/>
               <div xmlns="http://www.w3.org/1999/xhtml">
                  <table class="hl7__ips">
                     <tr>
                        <td>Metabolic syndrome X</td>
                        <td>
                           <span class="nb">05-Dec-2000</span>
                        </td>
                        <td>active</td>
                     </tr>
                  </table>
               </div>
            </text>
            <category>
               <coding>
                  <system value="http://terminology.hl7.org/CodeSystem/condition-category"/>
                  <code value="problem-list-item"/>
                  <display value="Problem List Item"/>
               </coding>
            </category>
            <code>
               <coding>
                  <system value="http://snomed.info/sct"/>
                  <code value="237602007"/>
                  <display value="Metabolic syndrome X (disorder)"/>
               </coding>
               <text value="Metabolic syndrome X"/>
            </code>
            <subject>
               <reference value="urn:uuid:"/>
               <display value="Roy Harrison"/>
            </subject>
            <onsetDateTime value="2000-12-05"/>
            <asserter>
               <reference value="urn:uuid:"/>
               <display value="Evelina Children&amp;#039;s Hospital"/>
            </asserter>
         </Condition>
      </resource>
   </entry>
   <entry>
      <fullUrl value="urn:uuid:c6a03846-fa9a-42bf-be85-986eca84650f"/>
      <resource>
         <Condition>
            <id value="c6a03846-fa9a-42bf-be85-986eca84650f"/>
            <meta>
               <profile value="http://hl7.org/fhir/uv/ips/StructureDefinition/Condition-uv-ips"/>
            </meta>
            <text>
               <status value="generated"/>
               <div xmlns="http://www.w3.org/1999/xhtml">
                  <table class="hl7__ips">
                     <tr>
                        <td>Anemia</td>
                        <td>
                           <span class="nb">05-Dec-2000</span>
                        </td>
                        <td>active</td>
                     </tr>
                  </table>
               </div>
            </text>
            <category>
               <coding>
                  <system value="http://terminology.hl7.org/CodeSystem/condition-category"/>
                  <code value="problem-list-item"/>
                  <display value="Problem List Item"/>
               </coding>
            </category>
            <code>
               <coding>
                  <system value="http://snomed.info/sct"/>
                  <code value="271737000"/>
                  <display value="Anemia (disorder)"/>
               </coding>
               <text value="Anemia"/>
            </code>
            <subject>
               <reference value="urn:uuid:"/>
               <display value="Roy Harrison"/>
            </subject>
            <onsetDateTime value="2000-12-05"/>
            <asserter>
               <reference value="urn:uuid:"/>
               <display value="Evelina Children&amp;#039;s Hospital"/>
            </asserter>
         </Condition>
      </resource>
   </entry>
   <entry>
      <fullUrl value="urn:uuid:9aceb1a0-ba8f-404b-9069-bc8b19b35666"/>
      <resource>
         <Condition>
            <id value="9aceb1a0-ba8f-404b-9069-bc8b19b35666"/>
            <meta>
               <profile value="http://hl7.org/fhir/uv/ips/StructureDefinition/Condition-uv-ips"/>
            </meta>
            <text>
               <status value="generated"/>
               <div xmlns="http://www.w3.org/1999/xhtml">
                  <table class="hl7__ips">
                     <tr>
                        <td>Gout</td>
                        <td>
                           <span class="nb">09-Mar-1994</span>
                        </td>
                        <td>active</td>
                     </tr>
                  </table>
               </div>
            </text>
            <category>
               <coding>
                  <system value="http://terminology.hl7.org/CodeSystem/condition-category"/>
                  <code value="problem-list-item"/>
                  <display value="Problem List Item"/>
               </coding>
            </category>
            <code>
               <coding>
                  <system value="http://snomed.info/sct"/>
                  <code value="90560007"/>
                  <display value="Gout (disorder)"/>
               </coding>
               <text value="Gout"/>
            </code>
            <subject>
               <reference value="urn:uuid:"/>
               <display value="Roy Harrison"/>
            </subject>
            <onsetDateTime value="1994-03-09"/>
            <asserter>
               <reference value="urn:uuid:"/>
               <display value="Evelina Children&amp;#039;s Hospital"/>
            </asserter>
         </Condition>
      </resource>
   </entry>
   <entry>
      <fullUrl value="urn:uuid:e9c09c4a-5294-461e-87c1-687480ff2cae"/>
      <resource>
         <Condition>
            <id value="e9c09c4a-5294-461e-87c1-687480ff2cae"/>
            <meta>
               <profile value="http://hl7.org/fhir/uv/ips/StructureDefinition/Condition-uv-ips"/>
            </meta>
            <text>
               <status value="generated"/>
               <div xmlns="http://www.w3.org/1999/xhtml">
                  <table class="hl7__ips">
                     <tr>
                        <td>
                           <span class="grayedout">Sprain of ankle</span>
                        </td>
                        <td>
                           <span class="nb">09-Jun-2025 - 23-Jun-2025</span>
                        </td>
                        <td>
                           <span class="grayedout">inactive</span>
                        </td>
                     </tr>
                  </table>
               </div>
            </text>
            <category>
               <coding>
                  <system value="http://terminology.hl7.org/CodeSystem/condition-category"/>
                  <code value="problem-list-item"/>
                  <display value="Problem List Item"/>
               </coding>
            </category>
            <code>
               <coding>
                  <system value="http://snomed.info/sct"/>
                  <code value="44465007"/>
                  <display value="Sprain of ankle (disorder)"/>
               </coding>
               <text value="Sprain of ankle"/>
            </code>
            <subject>
               <reference value="urn:uuid:"/>
               <display value="Roy Harrison"/>
            </subject>
            <onsetDateTime value="2025-06-09"/>
            <abatementDateTime value="2025-06-23"/>
            <asserter>
               <reference value="urn:uuid:"/>
               <display value="Evelina Children&amp;#039;s Hospital"/>
            </asserter>
         </Condition>
      </resource>
   </entry>
   <entry>
      <fullUrl value="urn:uuid:f71211be-8d56-4cb0-a82c-913b96a0c127"/>
      <resource>
         <Condition>
            <id value="f71211be-8d56-4cb0-a82c-913b96a0c127"/>
            <meta>
               <profile value="http://hl7.org/fhir/uv/ips/StructureDefinition/Condition-uv-ips"/>
            </meta>
            <text>
               <status value="generated"/>
               <div xmlns="http://www.w3.org/1999/xhtml">
                  <table class="hl7__ips">
                     <tr>
                        <td>
                           <span class="grayedout">Epidermal burn of skin</span>
                        </td>
                        <td>
                           <span class="nb">20-Apr-2022 - 28-Jun-2022</span>
                        </td>
                        <td>
                           <span class="grayedout">inactive</span>
                        </td>
                     </tr>
                  </table>
               </div>
            </text>
            <category>
               <coding>
                  <system value="http://terminology.hl7.org/CodeSystem/condition-category"/>
                  <code value="problem-list-item"/>
                  <display value="Problem List Item"/>
               </coding>
            </category>
            <code>
               <coding>
                  <system value="http://snomed.info/sct"/>
                  <code value="403190006"/>
                  <display value="Epidermal burn of skin (disorder)"/>
               </coding>
               <text value="Epidermal burn of skin"/>
            </code>
            <subject>
               <reference value="urn:uuid:"/>
               <display value="Roy Harrison"/>
            </subject>
            <onsetDateTime value="2022-04-20"/>
            <abatementDateTime value="2022-06-28"/>
            <asserter>
               <reference value="urn:uuid:"/>
               <display value="Evelina Children&amp;#039;s Hospital"/>
            </asserter>
         </Condition>
      </resource>
   </entry>
   <entry>
      <fullUrl value="urn:uuid:04cb43db-9af6-40f6-88aa-2a5a4cc04638"/>
      <resource>
         <Condition>
            <id value="04cb43db-9af6-40f6-88aa-2a5a4cc04638"/>
            <meta>
               <profile value="http://hl7.org/fhir/uv/ips/StructureDefinition/Condition-uv-ips"/>
            </meta>
            <text>
               <status value="generated"/>
               <div xmlns="http://www.w3.org/1999/xhtml">
                  <table class="hl7__ips">
                     <tr>
                        <td>
                           <span class="grayedout">Fracture of ankle</span>
                        </td>
                        <td>
                           <span class="nb">10-Mar-2016 - 26-Jun-2016</span>
                        </td>
                        <td>
                           <span class="grayedout">inactive</span>
                        </td>
                     </tr>
                  </table>
               </div>
            </text>
            <category>
               <coding>
                  <system value="http://terminology.hl7.org/CodeSystem/condition-category"/>
                  <code value="problem-list-item"/>
                  <display value="Problem List Item"/>
               </coding>
            </category>
            <code>
               <coding>
                  <system value="http://snomed.info/sct"/>
                  <code value="16114001"/>
                  <display value="Fracture of ankle (disorder)"/>
               </coding>
               <text value="Fracture of ankle"/>
            </code>
            <subject>
               <reference value="urn:uuid:"/>
               <display value="Roy Harrison"/>
            </subject>
            <onsetDateTime value="2016-03-10"/>
            <abatementDateTime value="2016-06-26"/>
            <asserter>
               <reference value="urn:uuid:"/>
               <display value="Evelina Children&amp;#039;s Hospital"/>
            </asserter>
         </Condition>
      </resource>
   </entry>
   <entry>
      <fullUrl value="urn:uuid:96e86518-5cc0-4210-875a-930b13c8219e"/>
      <resource>
         <Condition>
            <id value="96e86518-5cc0-4210-875a-930b13c8219e"/>
            <meta>
               <profile value="http://hl7.org/fhir/uv/ips/StructureDefinition/Condition-uv-ips"/>
            </meta>
            <text>
               <status value="generated"/>
               <div xmlns="http://www.w3.org/1999/xhtml">
                  <table class="hl7__ips">
                     <tr>
                        <td>
                           <span class="grayedout">Fracture of bone</span>
                        </td>
                        <td>
                           <span class="nb">10-Mar-2016 - 26-Jun-2016</span>
                        </td>
                        <td>
                           <span class="grayedout">inactive</span>
                        </td>
                     </tr>
                  </table>
               </div>
            </text>
            <category>
               <coding>
                  <system value="http://terminology.hl7.org/CodeSystem/condition-category"/>
                  <code value="problem-list-item"/>
                  <display value="Problem List Item"/>
               </coding>
            </category>
            <code>
               <coding>
                  <system value="http://snomed.info/sct"/>
                  <code value="125605004"/>
                  <display value="Fracture of bone (disorder)"/>
               </coding>
               <text value="Fracture of bone"/>
            </code>
            <subject>
               <reference value="urn:uuid:"/>
               <display value="Roy Harrison"/>
            </subject>
            <onsetDateTime value="2016-03-10"/>
            <abatementDateTime value="2016-06-26"/>
            <asserter>
               <reference value="urn:uuid:"/>
               <display value="Evelina Children&amp;#039;s Hospital"/>
            </asserter>
         </Condition>
      </resource>
   </entry>
   <entry>
      <fullUrl value="urn:uuid:0d71bd54-d3c7-43b4-b5d7-36456f52a7a0"/>
      <resource>
         <Medication>
            <id value="0d71bd54-d3c7-43b4-b5d7-36456f52a7a0"/>
            <meta>
               <profile value="http://hl7.eu/fhir/eps/StructureDefinition/Medication-eu-eps"/>
            </meta>
            <text>
               <status value="generated"/>
               <div xmlns="http://www.w3.org/1999/xhtml">Lisinopril 10 mg oral tablet</div>
            </text>
            <code>
               <coding>
                  <system value="http://snomed.info/sct"/>
                  <code value="318859000"/>
                  <display value="Lisinopril 10 mg oral tablet"/>
               </coding>
               <text value="Lisinopril 10 mg oral tablet"/>
            </code>
         </Medication>
      </resource>
   </entry>
   <entry>
      <fullUrl value="urn:uuid:6c8281c5-f50a-464d-b812-460b67603ae6"/>
      <resource>
         <MedicationStatement>
            <id value="6c8281c5-f50a-464d-b812-460b67603ae6"/>
            <meta>
               <profile value="http://hl7.eu/fhir/eps/StructureDefinition/MedicationStatement-eu-eps"/>
            </meta>
            <text>
               <status value="generated"/>
               <div xmlns="http://www.w3.org/1999/xhtml">
                  <table class="hl7__ips first25">
                     <tr>
                        <th>Medication</th>
                        <th>Since</th>
                        <th>Form</th>
                        <th>Dosage</th>
                        <th>Reason</th>
                     </tr>
                     <tr>
                        <td>Lisinopril 10 mg oral tablet</td>
                        <td>
                           <span class="nb">2025-04-22</span>
                        </td>
                        <td>-</td>
                        <td>1 tablet (10 mg) by mouth once daily</td>
                        <td>Essential hypertension (disorder)</td>
                     </tr>
                  </table>
               </div>
            </text>
            <status value="active"/>
            <medicationReference>
               <reference value="urn:uuid:0d71bd54-d3c7-43b4-b5d7-36456f52a7a0"/>
               <display value="Lisinopril 10 mg oral tablet"/>
            </medicationReference>
            <subject>
               <reference value="urn:uuid:67c3ba28-c25a-4b97-9eef-e80f5cad2359"/>
               <display value="Roy Harrison"/>
            </subject>
            <effectivePeriod>
               <start value="2025-04-22"/>
            </effectivePeriod>
            <reasonCode>
               <coding>
                  <system value="http://snomed.info/sct"/>
                  <code value="59621000"/>
                  <display value="Essential hypertension (disorder)"/>
               </coding>
            </reasonCode>
            <dosage>
               <text value="1 tablet (10 mg) by mouth once daily"/>
               <timing>
                  <repeat>
                     <frequency value="1"/>
                     <period value="1"/>
                     <periodUnit value="d"/>
                  </repeat>
               </timing>
               <asNeededBoolean value="false"/>
               <doseAndRate>
                  <doseQuantity>
                     <value value="1"/>
                     <unit value="{tbl}"/>
                     <code value="{tbl}"/>
                  </doseQuantity>
               </doseAndRate>
            </dosage>
         </MedicationStatement>
      </resource>
   </entry>
   <entry>
      <fullUrl value="urn:uuid:5a68d8b6-865d-4046-9678-649c85071c22"/>
      <resource>
         <Immunization>
            <id value="5a68d8b6-865d-4046-9678-649c85071c22"/>
            <meta>
               <profile value="http://hl7.org/fhir/uv/ips/StructureDefinition/Immunization-uv-ips"/>
            </meta>
            <text>
               <status value="generated"/>
               <div xmlns="http://www.w3.org/1999/xhtml">
                  <table class="hl7__ips">
                     <tr>
                        <td>Influenza virus antigen only vaccine product</td>
                        <td>
                           <span class="nb">22-Apr-2025</span>
                        </td>
                     </tr>
                  </table>
               </div>
            </text>
            <status value="completed"/>
            <vaccineCode>
               <coding>
                  <system value="http://snomed.info/sct"/>
                  <code value="1181000221105"/>
                  <display value="Vaccine product containing Influenza virus antigen"/>
               </coding>
               <coding>
                  <system value="http://www.whocc.no/atc"/>
                  <code value="J07BB02"/>
                  <display value="Influenza, inactivated, split virus"/>
               </coding>
               <text value="Influenza virus antigen only vaccine product"/>
            </vaccineCode>
            <patient>
               <reference value="urn:uuid:67c3ba28-c25a-4b97-9eef-e80f5cad2359"/>
               <display value="Roy Harrison"/>
            </patient>
            <occurrenceDateTime value="2025-04-22"/>
            <lotNumber value="YC-gPDndCj"/>
            <expirationDate value="2025-12-29"/>
            <site>
               <coding>
                  <system value="http://snomed.info/sct"/>
                  <code value="244979005"/>
                  <display value="Entire muscle of upper arm"/>
               </coding>
               <text value="Entire muscle of upper arm"/>
            </site>
            <route>
               <coding>
                  <system value="http://snomed.info/sct"/>
                  <code value="78421000"/>
                  <display value="Intramuscular route"/>
               </coding>
               <text value="Intramuscular route"/>
            </route>
         </Immunization>
      </resource>
   </entry>
   <entry>
      <fullUrl value="urn:uuid:52546e62-1d54-4fb4-a1b7-ed380413a24e"/>
      <resource>
         <Immunization>
            <id value="52546e62-1d54-4fb4-a1b7-ed380413a24e"/>
            <meta>
               <profile value="http://hl7.org/fhir/uv/ips/StructureDefinition/Immunization-uv-ips"/>
            </meta>
            <text>
               <status value="generated"/>
               <div xmlns="http://www.w3.org/1999/xhtml">
                  <table class="hl7__ips">
                     <tr>
                        <td>SARS-CoV-2 mRNA vaccine</td>
                        <td>
                           <span class="nb">23-Mar-2021</span>
                        </td>
                     </tr>
                  </table>
               </div>
            </text>
            <status value="completed"/>
            <vaccineCode>
               <coding>
                  <system value="http://snomed.info/sct"/>
                  <code value="1119349007"/>
                  <display value="Vaccine product containing SARS-CoV-2 mRNA"/>
               </coding>
               <coding>
                  <system value="http://www.whocc.no/atc"/>
                  <code value="J07BX03"/>
                  <display value="COVID-19 mRNA vaccines"/>
               </coding>
               <text value="SARS-CoV-2 mRNA vaccine"/>
            </vaccineCode>
            <patient>
               <reference value="urn:uuid:67c3ba28-c25a-4b97-9eef-e80f5cad2359"/>
               <display value="Roy Harrison"/>
            </patient>
            <occurrenceDateTime value="2021-03-23"/>
            <lotNumber value="GK-MGqe743L"/>
            <expirationDate value="2021-10-28"/>
            <site>
               <coding>
                  <system value="http://snomed.info/sct"/>
                  <code value="244979005"/>
                  <display value="Entire muscle of upper arm"/>
               </coding>
               <text value="Entire muscle of upper arm"/>
            </site>
            <route>
               <coding>
                  <system value="http://snomed.info/sct"/>
                  <code value="78421000"/>
                  <display value="Intramuscular route"/>
               </coding>
               <text value="Intramuscular route"/>
            </route>
         </Immunization>
      </resource>
   </entry>
   <entry>
      <fullUrl value="urn:uuid:0ea97572-e73f-4a74-93e0-5bf5746aa395"/>
      <resource>
         <Immunization>
            <id value="0ea97572-e73f-4a74-93e0-5bf5746aa395"/>
            <meta>
               <profile value="http://hl7.org/fhir/uv/ips/StructureDefinition/Immunization-uv-ips"/>
            </meta>
            <text>
               <status value="generated"/>
               <div xmlns="http://www.w3.org/1999/xhtml">
                  <table class="hl7__ips">
                     <tr>
                        <td>Clostridium tetani toxoid antigen adsorbed only vaccine product</td>
                        <td>
                           <span class="nb">13-Mar-2018</span>
                        </td>
                     </tr>
                  </table>
               </div>
            </text>
            <status value="completed"/>
            <vaccineCode>
               <coding>
                  <system value="http://snomed.info/sct"/>
                  <code value="777725002"/>
                  <display value="Vaccine product containing only Clostridium tetani toxoid antigen adsorbed"/>
               </coding>
               <coding>
                  <system value="http://www.whocc.no/atc"/>
                  <code value="J07AM51"/>
                  <display value="Diphtheria-tetanus vaccines, adult type"/>
               </coding>
               <text value="Clostridium tetani toxoid antigen adsorbed only vaccine product"/>
            </vaccineCode>
            <patient>
               <reference value="urn:uuid:67c3ba28-c25a-4b97-9eef-e80f5cad2359"/>
               <display value="Roy Harrison"/>
            </patient>
            <occurrenceDateTime value="2018-03-13"/>
            <lotNumber value="HJ-QeQVKDmEy"/>
            <expirationDate value="2018-10-06"/>
            <site>
               <coding>
                  <system value="http://snomed.info/sct"/>
                  <code value="244979005"/>
                  <display value="Entire muscle of upper arm"/>
               </coding>
               <text value="Entire muscle of upper arm"/>
            </site>
            <route>
               <coding>
                  <system value="http://snomed.info/sct"/>
                  <code value="78421000"/>
                  <display value="Intramuscular route"/>
               </coding>
               <text value="Intramuscular route"/>
            </route>
         </Immunization>
      </resource>
   </entry>
   <entry>
      <fullUrl value="urn:uuid:68885718-712b-4187-a20c-1fd0ed7398cf"/>
      <resource>
         <Immunization>
            <id value="68885718-712b-4187-a20c-1fd0ed7398cf"/>
            <meta>
               <profile value="http://hl7.org/fhir/uv/ips/StructureDefinition/Immunization-uv-ips"/>
            </meta>
            <text>
               <status value="generated"/>
               <div xmlns="http://www.w3.org/1999/xhtml">
                  <table class="hl7__ips">
                     <tr>
                        <td>Live attenuated Human alphaherpesvirus 3 only vaccine product</td>
                        <td>
                           <span class="nb">13-Mar-2018</span>
                        </td>
                     </tr>
                  </table>
               </div>
            </text>
            <status value="completed"/>
            <vaccineCode>
               <coding>
                  <system value="http://snomed.info/sct"/>
                  <code value="2221000221107"/>
                  <display value="Live attenuated Varicella-zoster vaccine"/>
               </coding>
               <coding>
                  <system value="http://www.whocc.no/atc"/>
                  <code value="J07BK02"/>
                  <display value="Varicella-zoster vaccines"/>
               </coding>
               <text value="Live attenuated Human alphaherpesvirus 3 only vaccine product"/>
            </vaccineCode>
            <patient>
               <reference value="urn:uuid:67c3ba28-c25a-4b97-9eef-e80f5cad2359"/>
               <display value="Roy Harrison"/>
            </patient>
            <occurrenceDateTime value="2018-03-13"/>
            <lotNumber value="RO-0jIua49"/>
            <expirationDate value="2018-12-30"/>
            <site>
               <coding>
                  <system value="http://snomed.info/sct"/>
                  <code value="368208006"/>
                  <display value="Left upper arm structure"/>
               </coding>
               <text value="Left upper arm structure"/>
            </site>
            <route>
               <coding>
                  <system value="http://snomed.info/sct"/>
                  <code value="34206005"/>
                  <display value="Subcutaneous route"/>
               </coding>
               <text value="Subcutaneous route"/>
            </route>
         </Immunization>
      </resource>
   </entry>
   <entry>
      <fullUrl value="urn:uuid:b2d06ef3-dbb7-4d56-bdf5-f9b7d6130fdd"/>
      <resource>
         <Procedure>
            <id value="b2d06ef3-dbb7-4d56-bdf5-f9b7d6130fdd"/>
            <meta>
               <profile value="http://hl7.org/fhir/uv/ips/StructureDefinition/Procedure-uv-ips"/>
            </meta>
            <text>
               <status value="generated"/>
               <div xmlns="http://www.w3.org/1999/xhtml">
                  <table class="hl7__ips">
                     <tr>
                        <td>Pre-discharge assessment</td>
                        <td>
                           <span class="nb">13-Jun-2022</span>
                        </td>
                        <td>-</td>
                     </tr>
                  </table>
               </div>
            </text>
            <status value="completed"/>
            <code>
               <coding>
                  <system value="http://snomed.info/sct"/>
                  <code value="225386006"/>
                  <display value="Pre-discharge assessment (procedure)"/>
               </coding>
               <text value="Pre-discharge assessment"/>
            </code>
            <subject>
               <reference value="urn:uuid:"/>
               <display value="Roy Harrison"/>
            </subject>
            <performedDateTime value="2022-06-13"/>
         </Procedure>
      </resource>
   </entry>
   <entry>
      <fullUrl value="urn:uuid:323fedd5-dfc0-409f-8a6e-9bab989a3b5c"/>
      <resource>
         <Procedure>
            <id value="323fedd5-dfc0-409f-8a6e-9bab989a3b5c"/>
            <meta>
               <profile value="http://hl7.org/fhir/uv/ips/StructureDefinition/Procedure-uv-ips"/>
            </meta>
            <text>
               <status value="generated"/>
               <div xmlns="http://www.w3.org/1999/xhtml">
                  <table class="hl7__ips">
                     <tr>
                        <td>Discharge from skilled nursing facility (procedure)</td>
                        <td>
                           <span class="nb">13-Jun-2022</span>
                        </td>
                        <td>-</td>
                     </tr>
                  </table>
               </div>
            </text>
            <status value="completed"/>
            <code>
               <coding>
                  <system value="http://snomed.info/sct"/>
                  <code value="449381000124108"/>
                  <display value="Discharge from skilled nursing facility (procedure)"/>
               </coding>
            </code>
            <subject>
               <reference value="urn:uuid:"/>
               <display value="Roy Harrison"/>
            </subject>
            <performedDateTime value="2022-06-13"/>
         </Procedure>
      </resource>
   </entry>
   <entry>
      <fullUrl value="urn:uuid:60ca922f-6a40-4c2a-82fc-d47def2e7b0d"/>
      <resource>
         <Procedure>
            <id value="60ca922f-6a40-4c2a-82fc-d47def2e7b0d"/>
            <meta>
               <profile value="http://hl7.org/fhir/uv/ips/StructureDefinition/Procedure-uv-ips"/>
            </meta>
            <text>
               <status value="generated"/>
               <div xmlns="http://www.w3.org/1999/xhtml">
                  <table class="hl7__ips">
                     <tr>
                        <td>Nursing care/supplementary surveillance</td>
                        <td>
                           <span class="nb">12-Jun-2022</span>
                        </td>
                        <td>-</td>
                     </tr>
                  </table>
               </div>
            </text>
            <status value="completed"/>
            <code>
               <coding>
                  <system value="http://snomed.info/sct"/>
                  <code value="410401003"/>
                  <display value="Nursing care/supplementary surveillance (regime/therapy)"/>
               </coding>
               <text value="Nursing care/supplementary surveillance"/>
            </code>
            <subject>
               <reference value="urn:uuid:"/>
               <display value="Roy Harrison"/>
            </subject>
            <performedDateTime value="2022-06-12"/>
         </Procedure>
      </resource>
   </entry>
   <entry>
      <fullUrl value="urn:uuid:873de8e4-83ad-4bcd-8d80-a14b83e7d8eb"/>
      <resource>
         <Procedure>
            <id value="873de8e4-83ad-4bcd-8d80-a14b83e7d8eb"/>
            <meta>
               <profile value="http://hl7.org/fhir/uv/ips/StructureDefinition/Procedure-uv-ips"/>
            </meta>
            <text>
               <status value="generated"/>
               <div xmlns="http://www.w3.org/1999/xhtml">
                  <table class="hl7__ips">
                     <tr>
                        <td>Occupational therapy</td>
                        <td>
                           <span class="nb">10-Jun-2022</span>
                        </td>
                        <td>-</td>
                     </tr>
                  </table>
               </div>
            </text>
            <status value="completed"/>
            <code>
               <coding>
                  <system value="http://snomed.info/sct"/>
                  <code value="84478008"/>
                  <display value="Occupational therapy (regime/therapy)"/>
               </coding>
               <text value="Occupational therapy"/>
            </code>
            <subject>
               <reference value="urn:uuid:"/>
               <display value="Roy Harrison"/>
            </subject>
            <performedDateTime value="2022-06-10"/>
         </Procedure>
      </resource>
   </entry>
   <entry>
      <fullUrl value="urn:uuid:11ab18f8-b7a6-4d82-9905-ddaa3c3b0718"/>
      <resource>
         <Procedure>
            <id value="11ab18f8-b7a6-4d82-9905-ddaa3c3b0718"/>
            <meta>
               <profile value="http://hl7.org/fhir/uv/ips/StructureDefinition/Procedure-uv-ips"/>
            </meta>
            <text>
               <status value="generated"/>
               <div xmlns="http://www.w3.org/1999/xhtml">
                  <table class="hl7__ips">
                     <tr>
                        <td>Care regimes assessment</td>
                        <td>
                           <span class="nb">08-Jun-2022</span>
                        </td>
                        <td>-</td>
                     </tr>
                  </table>
               </div>
            </text>
            <status value="completed"/>
            <code>
               <coding>
                  <system value="http://snomed.info/sct"/>
                  <code value="392091000"/>
                  <display value="Care regimes assessment (procedure)"/>
               </coding>
               <text value="Care regimes assessment"/>
            </code>
            <subject>
               <reference value="urn:uuid:"/>
               <display value="Roy Harrison"/>
            </subject>
            <performedDateTime value="2022-06-08"/>
         </Procedure>
      </resource>
   </entry>
   <entry>
      <fullUrl value="urn:uuid:639d66aa-8f96-4f2b-b4c1-ea953f340d04"/>
      <resource>
         <Procedure>
            <id value="639d66aa-8f96-4f2b-b4c1-ea953f340d04"/>
            <meta>
               <profile value="http://hl7.org/fhir/uv/ips/StructureDefinition/Procedure-uv-ips"/>
            </meta>
            <text>
               <status value="generated"/>
               <div xmlns="http://www.w3.org/1999/xhtml">
                  <table class="hl7__ips">
                     <tr>
                        <td>Professional / ancillary services care</td>
                        <td>
                           <span class="nb">07-Jun-2022</span>
                        </td>
                        <td>-</td>
                     </tr>
                  </table>
               </div>
            </text>
            <status value="completed"/>
            <code>
               <coding>
                  <system value="http://snomed.info/sct"/>
                  <code value="409023009"/>
                  <display value="Professional / ancillary services care (regime/therapy)"/>
               </coding>
               <text value="Professional / ancillary services care"/>
            </code>
            <subject>
               <reference value="urn:uuid:"/>
               <display value="Roy Harrison"/>
            </subject>
            <performedDateTime value="2022-06-07"/>
         </Procedure>
      </resource>
   </entry>
   <entry>
      <fullUrl value="urn:uuid:ac4d406b-446f-4f06-9511-6dba9718a879"/>
      <resource>
         <Procedure>
            <id value="ac4d406b-446f-4f06-9511-6dba9718a879"/>
            <meta>
               <profile value="http://hl7.org/fhir/uv/ips/StructureDefinition/Procedure-uv-ips"/>
            </meta>
            <text>
               <status value="generated"/>
               <div xmlns="http://www.w3.org/1999/xhtml">
                  <table class="hl7__ips">
                     <tr>
                        <td>Speech and language therapy regime</td>
                        <td>
                           <span class="nb">15-May-2022</span>
                        </td>
                        <td>-</td>
                     </tr>
                  </table>
               </div>
            </text>
            <status value="completed"/>
            <code>
               <coding>
                  <system value="http://snomed.info/sct"/>
                  <code value="311555007"/>
                  <display value="Speech and language therapy regime (regime/therapy)"/>
               </coding>
               <text value="Speech and language therapy regime"/>
            </code>
            <subject>
               <reference value="urn:uuid:"/>
               <display value="Roy Harrison"/>
            </subject>
            <performedDateTime value="2022-05-15"/>
         </Procedure>
      </resource>
   </entry>
   <entry>
      <fullUrl value="urn:uuid:a0fa4f6b-bb9d-4f28-afa1-a90a3b32e779"/>
      <resource>
         <Procedure>
            <id value="a0fa4f6b-bb9d-4f28-afa1-a90a3b32e779"/>
            <meta>
               <profile value="http://hl7.org/fhir/uv/ips/StructureDefinition/Procedure-uv-ips"/>
            </meta>
            <text>
               <status value="generated"/>
               <div xmlns="http://www.w3.org/1999/xhtml">
                  <table class="hl7__ips">
                     <tr>
                        <td>Physical therapy procedure</td>
                        <td>
                           <span class="nb">02-May-2022</span>
                        </td>
                        <td>-</td>
                     </tr>
                  </table>
               </div>
            </text>
            <status value="completed"/>
            <code>
               <coding>
                  <system value="http://snomed.info/sct"/>
                  <code value="91251008"/>
                  <display value="Physical therapy procedure (regime/therapy)"/>
               </coding>
               <text value="Physical therapy procedure"/>
            </code>
            <subject>
               <reference value="urn:uuid:"/>
               <display value="Roy Harrison"/>
            </subject>
            <performedDateTime value="2022-05-02"/>
         </Procedure>
      </resource>
   </entry>
   <entry>
      <fullUrl value="urn:uuid:fa0ea2e0-a6e5-4a25-bda8-4d9a0ba4755e"/>
      <resource>
         <Procedure>
            <id value="fa0ea2e0-a6e5-4a25-bda8-4d9a0ba4755e"/>
            <meta>
               <profile value="http://hl7.org/fhir/uv/ips/StructureDefinition/Procedure-uv-ips"/>
            </meta>
            <text>
               <status value="generated"/>
               <div xmlns="http://www.w3.org/1999/xhtml">
                  <table class="hl7__ips">
                     <tr>
                        <td>History AND physical examination</td>
                        <td>
                           <span class="nb">20-Apr-2022</span>
                        </td>
                        <td>-</td>
                     </tr>
                  </table>
               </div>
            </text>
            <status value="completed"/>
            <code>
               <coding>
                  <system value="http://snomed.info/sct"/>
                  <code value="63332003"/>
                  <display value="History AND physical examination (procedure)"/>
               </coding>
               <text value="History AND physical examination"/>
            </code>
            <subject>
               <reference value="urn:uuid:"/>
               <display value="Roy Harrison"/>
            </subject>
            <performedDateTime value="2022-04-20"/>
         </Procedure>
      </resource>
   </entry>
   <entry>
      <fullUrl value="urn:uuid:188f0441-48df-4338-b6e2-33127653521f"/>
      <resource>
         <Procedure>
            <id value="188f0441-48df-4338-b6e2-33127653521f"/>
            <meta>
               <profile value="http://hl7.org/fhir/uv/ips/StructureDefinition/Procedure-uv-ips"/>
            </meta>
            <text>
               <status value="generated"/>
               <div xmlns="http://www.w3.org/1999/xhtml">
                  <table class="hl7__ips">
                     <tr>
                        <td>Initial patient assessment</td>
                        <td>
                           <span class="nb">20-Apr-2022</span>
                        </td>
                        <td>-</td>
                     </tr>
                  </table>
               </div>
            </text>
            <status value="completed"/>
            <code>
               <coding>
                  <system value="http://snomed.info/sct"/>
                  <code value="315639002"/>
                  <display value="Initial patient assessment (procedure)"/>
               </coding>
               <text value="Initial patient assessment"/>
            </code>
            <subject>
               <reference value="urn:uuid:"/>
               <display value="Roy Harrison"/>
            </subject>
            <performedDateTime value="2022-04-20"/>
         </Procedure>
      </resource>
   </entry>
   <entry>
      <fullUrl value="urn:uuid:42005c5f-6539-488d-854f-94c305253485"/>
      <resource>
         <Procedure>
            <id value="42005c5f-6539-488d-854f-94c305253485"/>
            <meta>
               <profile value="http://hl7.org/fhir/uv/ips/StructureDefinition/Procedure-uv-ips"/>
            </meta>
            <text>
               <status value="generated"/>
               <div xmlns="http://www.w3.org/1999/xhtml">
                  <table class="hl7__ips">
                     <tr>
                        <td>Development of individualized plan of care</td>
                        <td>
                           <span class="nb">20-Apr-2022</span>
                        </td>
                        <td>-</td>
                     </tr>
                  </table>
               </div>
            </text>
            <status value="completed"/>
            <code>
               <coding>
                  <system value="http://snomed.info/sct"/>
                  <code value="370789001"/>
                  <display value="Development of individualized plan of care (procedure)"/>
               </coding>
               <text value="Development of individualized plan of care"/>
            </code>
            <subject>
               <reference value="urn:uuid:"/>
               <display value="Roy Harrison"/>
            </subject>
            <performedDateTime value="2022-04-20"/>
         </Procedure>
      </resource>
   </entry>
   <entry>
      <fullUrl value="urn:uuid:9cd1e1d0-72bf-424f-99c2-f0a8b6085762"/>
      <resource>
         <Procedure>
            <id value="9cd1e1d0-72bf-424f-99c2-f0a8b6085762"/>
            <meta>
               <profile value="http://hl7.org/fhir/uv/ips/StructureDefinition/Procedure-uv-ips"/>
            </meta>
            <text>
               <status value="generated"/>
               <div xmlns="http://www.w3.org/1999/xhtml">
                  <table class="hl7__ips">
                     <tr>
                        <td>Radiography of ankle</td>
                        <td>
                           <span class="nb">10-Mar-2016</span>
                        </td>
                        <td>-</td>
                     </tr>
                  </table>
               </div>
            </text>
            <status value="completed"/>
            <code>
               <coding>
                  <system value="http://snomed.info/sct"/>
                  <code value="19490002"/>
                  <display value="Ankle X-ray"/>
               </coding>
               <text value="Radiography of ankle"/>
            </code>
            <subject>
               <reference value="urn:uuid:"/>
               <display value="Roy Harrison"/>
            </subject>
            <performedDateTime value="2016-03-10"/>
         </Procedure>
      </resource>
   </entry>
   <entry>
      <fullUrl value="urn:uuid:ad99e929-b9b1-47c1-9b60-910fce2f5466"/>
      <resource>
         <Procedure>
            <id value="ad99e929-b9b1-47c1-9b60-910fce2f5466"/>
            <meta>
               <profile value="http://hl7.org/fhir/uv/ips/StructureDefinition/Procedure-uv-ips"/>
            </meta>
            <text>
               <status value="generated"/>
               <div xmlns="http://www.w3.org/1999/xhtml">
                  <table class="hl7__ips">
                     <tr>
                        <td>Bone immobilization</td>
                        <td>
                           <span class="nb">10-Mar-2016</span>
                        </td>
                        <td>Fracture of ankle</td>
                     </tr>
                  </table>
               </div>
            </text>
            <status value="completed"/>
            <code>
               <coding>
                  <system value="http://snomed.info/sct"/>
                  <code value="274474001"/>
                  <display value="Bone immobilization"/>
               </coding>
               <text value="Bone immobilization"/>
            </code>
            <subject>
               <reference value="urn:uuid:"/>
               <display value="Roy Harrison"/>
            </subject>
            <performedDateTime value="2016-03-10"/>
            <reasonCode>
               <coding>
                  <system value="http://snomed.info/sct"/>
                  <code value="16114001"/>
                  <display value="Fracture of ankle"/>
               </coding>
            </reasonCode>
         </Procedure>
      </resource>
   </entry>
   <entry>
      <fullUrl value="urn:uuid:4daecb10-f9b4-455f-a8a2-e246fde0ab9b"/>
      <resource>
         <AllergyIntolerance>
            <id value="4daecb10-f9b4-455f-a8a2-e246fde0ab9b"/>
            <meta>
               <profile value="http://hl7.eu/fhir/eps/StructureDefinition/allergyIntolerance-eu-eps"/>
            </meta>
            <text>
               <status value="generated"/>
               <div xmlns="http://www.w3.org/1999/xhtml">
                  <table class="hl7__ips">
                     <tr>
                        <th>Allergy/Intolerance</th>
                        <th>Onset Date</th>
                        <th>Status</th>
                        <th>Type</th>
                        <th>Reaction</th>
                     </tr>
                     <tr>
                        <td/>
                        <td>?</td>
                        <td>active</td>
                        <td>?</td>
                        <td/>
                     </tr>
                  </table>
               </div>
            </text>
            <clinicalStatus>
               <coding>
                  <system value="http://terminology.hl7.org/CodeSystem/allergyintolerance-clinical"/>
                  <code value="active"/>
               </coding>
            </clinicalStatus>
            <verificationStatus>
               <coding>
                  <system value="http://terminology.hl7.org/CodeSystem/allergyintolerance-verification"/>
                  <code value="confirmed"/>
               </coding>
            </verificationStatus>
            <code>
               <text/>
            </code>
            <patient>
               <reference value="urn:uuid:67c3ba28-c25a-4b97-9eef-e80f5cad2359"/>
               <display value="Roy Harrison"/>
            </patient>
            <onsetDateTime>
               <extension url="http://hl7.org/fhir/StructureDefinition/data-absent-reason">
                  <valueCode value="unknown"/>
               </extension>
            </onsetDateTime>
         </AllergyIntolerance>
      </resource>
   </entry>
   <entry>
      <fullUrl value="urn:uuid:771206c5-39c1-4cff-aabe-cab6134535fc"/>
      <resource>
         <CarePlan>
            <id value="771206c5-39c1-4cff-aabe-cab6134535fc"/>
            <text>
               <status value="generated"/>
               <div xmlns="http://www.w3.org/1999/xhtml">
                  <table class="hl7__ips first25">
                     <tr>
                        <th>Active Planned Care / Goals</th>
                        <th>Start Date</th>
                        <th>Reason</th>
                     </tr>
                     <tr>
                        <td>Lifestyle education regarding hypertension</td>
                        <td>
                           <span class="nb">05-Dec-2000</span>
                        </td>
                        <td>Essential hypertension (disorder)</td>
                     </tr>
                     <tr>
                        <td>
                           <ul>
                              <li>Maintain blood pressure below 130/80 mmHg through lifestyle modifications.</li>
                              <li>Reduce body weight by 5% to improve blood pressure control.</li>
                              <li>Limit sodium intake to less than 2.3 grams per day to help control blood pressure.</li>
                              <li>Engage in at least 150 minutes of moderate-intensity aerobic physical activity per week.</li>
                           </ul>
                        </td>
                        <td/>
                        <td/>
                     </tr>
                  </table>
               </div>
            </text>
            <status value="active"/>
            <intent value="plan"/>
            <category>
               <coding>
                  <system value="http://terminology.hl7.org/CodeSystem/care-plan-category"/>
                  <code value="assess-plan"/>
                  <display value="Assessment and Plan"/>
               </coding>
            </category>
            <subject>
               <reference value="urn:uuid:67c3ba28-c25a-4b97-9eef-e80f5cad2359"/>
               <display value="Roy Harrison"/>
            </subject>
            <period>
               <start value="2000-12-05"/>
            </period>
            <goal>
               <reference value="urn:uuid:e25dccd2-c6e3-458b-91a0-78f1144e5090"/>
            </goal>
            <goal>
               <reference value="urn:uuid:c6c61815-947a-49ad-8beb-951885f9303d"/>
            </goal>
            <goal>
               <reference value="urn:uuid:fcf684fc-ad4b-484d-b386-3830cecc16be"/>
            </goal>
            <goal>
               <reference value="urn:uuid:21ddacd0-a531-4fe5-a0cb-b947ae0d4c0e"/>
            </goal>
            <activity>
               <detail>
                  <kind value="Appointment"/>
                  <code>
                     <coding>
                        <system value="http://snomed.info/sct"/>
                        <code value="443402002"/>
                        <display value="Lifestyle education regarding hypertension (procedure)"/>
                     </coding>
                  </code>
                  <reasonCode>
                     <coding>
                        <system value="http://snomed.info/sct"/>
                        <code value="59621000"/>
                        <display value="Essential hypertension (disorder)"/>
                     </coding>
                  </reasonCode>
                  <status value="unknown"/>
                  <description value="Lifestyle education regarding hypertension"/>
               </detail>
            </activity>
         </CarePlan>
      </resource>
   </entry>
   <entry>
      <fullUrl value="urn:uuid:c425f9ed-a511-45b7-8024-35f18455f9c5"/>
      <resource>
         <CarePlan>
            <id value="c425f9ed-a511-45b7-8024-35f18455f9c5"/>
            <text>
               <status value="generated"/>
               <div xmlns="http://www.w3.org/1999/xhtml">
                  <table class="hl7__ips first25">
                     <tr>
                        <th>Active Planned Care / Goals</th>
                        <th>Start Date</th>
                        <th>Reason</th>
                     </tr>
                     <tr>
                        <td>Diabetes self management plan</td>
                        <td>
                           <span class="nb">05-Dec-2000</span>
                        </td>
                        <td>Diabetes mellitus type 2 (disorder)</td>
                     </tr>
                     <tr>
                        <td>
                           <ul>
                              <li>Maintain or reduce hemoglobin A1c to individualized target to optimize glycemic control.</li>
                              <li>Maintain fasting blood glucose within recommended range to support diabetes control.</li>
                              <li>Maintain blood pressure below recommended threshold to reduce cardiovascular risk in diabetes.</li>
                              <li>Maintain LDL cholesterol below recommended threshold to reduce cardiovascular risk.</li>
                              <li>Achieve and maintain weight reduction to support glycemic control and overall health.</li>
                           </ul>
                        </td>
                        <td/>
                        <td/>
                     </tr>
                  </table>
               </div>
            </text>
            <status value="active"/>
            <intent value="plan"/>
            <category>
               <coding>
                  <system value="http://terminology.hl7.org/CodeSystem/care-plan-category"/>
                  <code value="assess-plan"/>
                  <display value="Assessment and Plan"/>
               </coding>
            </category>
            <subject>
               <reference value="urn:uuid:67c3ba28-c25a-4b97-9eef-e80f5cad2359"/>
               <display value="Roy Harrison"/>
            </subject>
            <period>
               <start value="2000-12-05"/>
            </period>
            <goal>
               <reference value="urn:uuid:b658924c-e556-485e-8b34-a8a6e915cf54"/>
            </goal>
            <goal>
               <reference value="urn:uuid:4c0748c1-3952-4168-a597-cd9e1686d681"/>
            </goal>
            <goal>
               <reference value="urn:uuid:ab6ddc23-bfab-44f5-85c7-2b5fdb09f68e"/>
            </goal>
            <goal>
               <reference value="urn:uuid:5bda2c1a-ec53-40b7-b6a1-d0d63aabaed1"/>
            </goal>
            <goal>
               <reference value="urn:uuid:fff145ef-4cd3-4c8d-bed5-1d543b6b2c0f"/>
            </goal>
            <activity>
               <detail>
                  <kind value="Appointment"/>
                  <code>
                     <coding>
                        <system value="http://snomed.info/sct"/>
                        <code value="698360004"/>
                        <display value="Diabetes self management plan (qualifier value)"/>
                     </coding>
                  </code>
                  <reasonCode>
                     <coding>
                        <system value="http://snomed.info/sct"/>
                        <code value="44054006"/>
                        <display value="Diabetes mellitus type 2 (disorder)"/>
                     </coding>
                  </reasonCode>
                  <status value="unknown"/>
                  <description value="Diabetes self management plan"/>
               </detail>
            </activity>
         </CarePlan>
      </resource>
   </entry>
   <entry>
      <fullUrl value="urn:uuid:e466e2c1-8024-4214-83b0-a7532280cf41"/>
      <resource>
         <CarePlan>
            <id value="e466e2c1-8024-4214-83b0-a7532280cf41"/>
            <text>
               <status value="generated"/>
               <div xmlns="http://www.w3.org/1999/xhtml">
                  <table class="hl7__ips first25">
                     <tr>
                        <th>Active Planned Care / Goals</th>
                        <th>Start Date</th>
                        <th>Reason</th>
                     </tr>
                     <tr>
                        <td>Musculoskeletal care</td>
                        <td>
                           <span class="nb">09-Mar-1994</span>
                        </td>
                        <td>-</td>
                     </tr>
                  </table>
               </div>
            </text>
            <status value="active"/>
            <intent value="plan"/>
            <category>
               <coding>
                  <system value="http://terminology.hl7.org/CodeSystem/care-plan-category"/>
                  <code value="assess-plan"/>
                  <display value="Assessment and Plan"/>
               </coding>
            </category>
            <subject>
               <reference value="urn:uuid:67c3ba28-c25a-4b97-9eef-e80f5cad2359"/>
               <display value="Roy Harrison"/>
            </subject>
            <period>
               <start value="1994-03-09"/>
            </period>
            <activity>
               <detail>
                  <kind value="Appointment"/>
                  <code>
                     <coding>
                        <system value="http://snomed.info/sct"/>
                        <code value="408869004"/>
                        <display value="Musculoskeletal care (regime/therapy)"/>
                     </coding>
                  </code>
                  <status value="unknown"/>
                  <description value="Musculoskeletal care"/>
               </detail>
            </activity>
         </CarePlan>
      </resource>
   </entry>
   <entry>
      <fullUrl value="urn:uuid:eb859592-562b-4e52-847e-715fde166cd2"/>
      <resource>
         <Observation>
            <id value="eb859592-562b-4e52-847e-715fde166cd2"/>
            <meta>
               <profile value="http://hl7.org/fhir/StructureDefinition/vitalsigns"/>
            </meta>
            <text>
               <status value="generated"/>
               <div xmlns="http://www.w3.org/1999/xhtml">
                  <table class="hl7__ips">
                     <tr>
                        <th>Vital Sign</th>
                        <th>Date</th>
                        <th>Measurement</th>
                     </tr>
                     <tr>
                        <td>Body Height</td>
                        <td>22-Apr-2025</td>
                        <td>180.6 cm</td>
                     </tr>
                  </table>
               </div>
            </text>
            <status value="final"/>
            <category>
               <coding>
                  <system value="http://terminology.hl7.org/CodeSystem/observation-category"/>
                  <code value="vital-signs"/>
                  <display value="Vital Signs"/>
               </coding>
            </category>
            <code>
               <coding>
                  <system value="http://loinc.org"/>
                  <code value="$8302-2"/>
                  <display value="Body Height"/>
               </coding>
            </code>
            <subject>
               <reference value="urn:uuid:67c3ba28-c25a-4b97-9eef-e80f5cad2359"/>
               <display value="Roy Harrison"/>
            </subject>
            <effectiveDateTime value="2025-04-22"/>
            <valueQuantity>
               <value value="180.6"/>
               <unit value="cm"/>
               <code value="cm"/>
            </valueQuantity>
         </Observation>
      </resource>
   </entry>
   <entry>
      <fullUrl value="urn:uuid:a0df9a6e-4840-44ac-8a85-ab9e2239d2cf"/>
      <resource>
         <Observation>
            <id value="a0df9a6e-4840-44ac-8a85-ab9e2239d2cf"/>
            <meta>
               <profile value="http://hl7.org/fhir/StructureDefinition/vitalsigns"/>
            </meta>
            <text>
               <status value="generated"/>
               <div xmlns="http://www.w3.org/1999/xhtml">
                  <table class="hl7__ips">
                     <tr>
                        <th>Vital Sign</th>
                        <th>Date</th>
                        <th>Measurement</th>
                     </tr>
                     <tr>
                        <td>Pain severity - 0-10 verbal numeric rating [Score] - Reported</td>
                        <td>22-Apr-2025</td>
                        <td>1 {score}</td>
                     </tr>
                  </table>
               </div>
            </text>
            <status value="final"/>
            <category>
               <coding>
                  <system value="http://terminology.hl7.org/CodeSystem/observation-category"/>
                  <code value="vital-signs"/>
                  <display value="Vital Signs"/>
               </coding>
            </category>
            <code>
               <coding>
                  <system value="http://loinc.org"/>
                  <code value="$72514-3"/>
                  <display value="Pain severity - 0-10 verbal numeric rating [Score] - Reported"/>
               </coding>
            </code>
            <subject>
               <reference value="urn:uuid:67c3ba28-c25a-4b97-9eef-e80f5cad2359"/>
               <display value="Roy Harrison"/>
            </subject>
            <effectiveDateTime value="2025-04-22"/>
            <valueQuantity>
               <value value="1"/>
               <unit value="{score}"/>
               <code value="{score}"/>
            </valueQuantity>
         </Observation>
      </resource>
   </entry>
   <entry>
      <fullUrl value="urn:uuid:b059a088-76c6-43ed-829e-95cdcb5d41ab"/>
      <resource>
         <Observation>
            <id value="b059a088-76c6-43ed-829e-95cdcb5d41ab"/>
            <meta>
               <profile value="http://hl7.org/fhir/StructureDefinition/vitalsigns"/>
            </meta>
            <text>
               <status value="generated"/>
               <div xmlns="http://www.w3.org/1999/xhtml">
                  <table class="hl7__ips">
                     <tr>
                        <th>Vital Sign</th>
                        <th>Date</th>
                        <th>Measurement</th>
                     </tr>
                     <tr>
                        <td>Body Weight</td>
                        <td>22-Apr-2025</td>
                        <td>91.2 kg</td>
                     </tr>
                  </table>
               </div>
            </text>
            <status value="final"/>
            <category>
               <coding>
                  <system value="http://terminology.hl7.org/CodeSystem/observation-category"/>
                  <code value="vital-signs"/>
                  <display value="Vital Signs"/>
               </coding>
            </category>
            <code>
               <coding>
                  <system value="http://loinc.org"/>
                  <code value="$29463-7"/>
                  <display value="Body Weight"/>
               </coding>
            </code>
            <subject>
               <reference value="urn:uuid:67c3ba28-c25a-4b97-9eef-e80f5cad2359"/>
               <display value="Roy Harrison"/>
            </subject>
            <effectiveDateTime value="2025-04-22"/>
            <valueQuantity>
               <value value="91.2"/>
               <unit value="kg"/>
               <code value="kg"/>
            </valueQuantity>
         </Observation>
      </resource>
   </entry>
   <entry>
      <fullUrl value="urn:uuid:338e63c2-c3e7-4927-8f8d-14bb9019bf6a"/>
      <resource>
         <Observation>
            <id value="338e63c2-c3e7-4927-8f8d-14bb9019bf6a"/>
            <meta>
               <profile value="http://hl7.org/fhir/StructureDefinition/vitalsigns"/>
            </meta>
            <text>
               <status value="generated"/>
               <div xmlns="http://www.w3.org/1999/xhtml">
                  <table class="hl7__ips">
                     <tr>
                        <th>Vital Sign</th>
                        <th>Date</th>
                        <th>Measurement</th>
                     </tr>
                     <tr>
                        <td>Body mass index (BMI) [Ratio]</td>
                        <td>22-Apr-2025</td>
                        <td>28 kg/m2</td>
                     </tr>
                  </table>
               </div>
            </text>
            <status value="final"/>
            <category>
               <coding>
                  <system value="http://terminology.hl7.org/CodeSystem/observation-category"/>
                  <code value="vital-signs"/>
                  <display value="Vital Signs"/>
               </coding>
            </category>
            <code>
               <coding>
                  <system value="http://loinc.org"/>
                  <code value="$39156-5"/>
                  <display value="Body mass index (BMI) [Ratio]"/>
               </coding>
            </code>
            <subject>
               <reference value="urn:uuid:67c3ba28-c25a-4b97-9eef-e80f5cad2359"/>
               <display value="Roy Harrison"/>
            </subject>
            <effectiveDateTime value="2025-04-22"/>
            <valueQuantity>
               <value value="28"/>
               <unit value="kg/m2"/>
               <code value="kg/m2"/>
            </valueQuantity>
         </Observation>
      </resource>
   </entry>
   <entry>
      <fullUrl value="urn:uuid:b7b645f6-9db4-4e57-bb9d-910f3efb284b"/>
      <resource>
         <Observation>
            <id value="b7b645f6-9db4-4e57-bb9d-910f3efb284b"/>
            <meta>
               <profile value="http://hl7.org/fhir/StructureDefinition/vitalsigns"/>
            </meta>
            <text>
               <status value="generated"/>
               <div xmlns="http://www.w3.org/1999/xhtml">
                  <table class="hl7__ips">
                     <tr>
                        <th>Vital Sign</th>
                        <th>Date</th>
                        <th>Measurement</th>
                     </tr>
                     <tr>
                        <td>Diastolic Blood Pressure</td>
                        <td>22-Apr-2025</td>
                        <td>94 mm[Hg]</td>
                     </tr>
                  </table>
               </div>
            </text>
            <status value="final"/>
            <category>
               <coding>
                  <system value="http://terminology.hl7.org/CodeSystem/observation-category"/>
                  <code value="vital-signs"/>
                  <display value="Vital Signs"/>
               </coding>
            </category>
            <code>
               <coding>
                  <system value="http://loinc.org"/>
                  <code value="$8462-4"/>
                  <display value="Diastolic Blood Pressure"/>
               </coding>
            </code>
            <subject>
               <reference value="urn:uuid:67c3ba28-c25a-4b97-9eef-e80f5cad2359"/>
               <display value="Roy Harrison"/>
            </subject>
            <effectiveDateTime value="2025-04-22"/>
            <valueQuantity>
               <value value="94"/>
               <unit value="mm[Hg]"/>
               <code value="mm[Hg]"/>
            </valueQuantity>
         </Observation>
      </resource>
   </entry>
   <entry>
      <fullUrl value="urn:uuid:a180761f-5675-40b8-8fac-084d4f2551a4"/>
      <resource>
         <Observation>
            <id value="a180761f-5675-40b8-8fac-084d4f2551a4"/>
            <meta>
               <profile value="http://hl7.org/fhir/StructureDefinition/vitalsigns"/>
            </meta>
            <text>
               <status value="generated"/>
               <div xmlns="http://www.w3.org/1999/xhtml">
                  <table class="hl7__ips">
                     <tr>
                        <th>Vital Sign</th>
                        <th>Date</th>
                        <th>Measurement</th>
                     </tr>
                     <tr>
                        <td>Systolic Blood Pressure</td>
                        <td>22-Apr-2025</td>
                        <td>129 mm[Hg]</td>
                     </tr>
                  </table>
               </div>
            </text>
            <status value="final"/>
            <category>
               <coding>
                  <system value="http://terminology.hl7.org/CodeSystem/observation-category"/>
                  <code value="vital-signs"/>
                  <display value="Vital Signs"/>
               </coding>
            </category>
            <code>
               <coding>
                  <system value="http://loinc.org"/>
                  <code value="$8480-6"/>
                  <display value="Systolic Blood Pressure"/>
               </coding>
            </code>
            <subject>
               <reference value="urn:uuid:67c3ba28-c25a-4b97-9eef-e80f5cad2359"/>
               <display value="Roy Harrison"/>
            </subject>
            <effectiveDateTime value="2025-04-22"/>
            <valueQuantity>
               <value value="129"/>
               <unit value="mm[Hg]"/>
               <code value="mm[Hg]"/>
            </valueQuantity>
         </Observation>
      </resource>
   </entry>
   <entry>
      <fullUrl value="urn:uuid:f636e7be-b977-4bf5-b316-b49bf71ee372"/>
      <resource>
         <Observation>
            <id value="f636e7be-b977-4bf5-b316-b49bf71ee372"/>
            <meta>
               <profile value="http://hl7.org/fhir/StructureDefinition/vitalsigns"/>
            </meta>
            <text>
               <status value="generated"/>
               <div xmlns="http://www.w3.org/1999/xhtml">
                  <table class="hl7__ips">
                     <tr>
                        <th>Vital Sign</th>
                        <th>Date</th>
                        <th>Measurement</th>
                     </tr>
                     <tr>
                        <td>Heart rate</td>
                        <td>22-Apr-2025</td>
                        <td>65 /min</td>
                     </tr>
                  </table>
               </div>
            </text>
            <status value="final"/>
            <category>
               <coding>
                  <system value="http://terminology.hl7.org/CodeSystem/observation-category"/>
                  <code value="vital-signs"/>
                  <display value="Vital Signs"/>
               </coding>
            </category>
            <code>
               <coding>
                  <system value="http://loinc.org"/>
                  <code value="$8867-4"/>
                  <display value="Heart rate"/>
               </coding>
            </code>
            <subject>
               <reference value="urn:uuid:67c3ba28-c25a-4b97-9eef-e80f5cad2359"/>
               <display value="Roy Harrison"/>
            </subject>
            <effectiveDateTime value="2025-04-22"/>
            <valueQuantity>
               <value value="65"/>
               <unit value="/min"/>
               <code value="/min"/>
            </valueQuantity>
         </Observation>
      </resource>
   </entry>
   <entry>
      <fullUrl value="urn:uuid:7bbd254f-9f11-454a-9fbe-e7e3d98456d4"/>
      <resource>
         <Observation>
            <id value="7bbd254f-9f11-454a-9fbe-e7e3d98456d4"/>
            <meta>
               <profile value="http://hl7.org/fhir/StructureDefinition/vitalsigns"/>
            </meta>
            <text>
               <status value="generated"/>
               <div xmlns="http://www.w3.org/1999/xhtml">
                  <table class="hl7__ips">
                     <tr>
                        <th>Vital Sign</th>
                        <th>Date</th>
                        <th>Measurement</th>
                     </tr>
                     <tr>
                        <td>Respiratory rate</td>
                        <td>22-Apr-2025</td>
                        <td>13 /min</td>
                     </tr>
                  </table>
               </div>
            </text>
            <status value="final"/>
            <category>
               <coding>
                  <system value="http://terminology.hl7.org/CodeSystem/observation-category"/>
                  <code value="vital-signs"/>
                  <display value="Vital Signs"/>
               </coding>
            </category>
            <code>
               <coding>
                  <system value="http://loinc.org"/>
                  <code value="$9279-1"/>
                  <display value="Respiratory rate"/>
               </coding>
            </code>
            <subject>
               <reference value="urn:uuid:67c3ba28-c25a-4b97-9eef-e80f5cad2359"/>
               <display value="Roy Harrison"/>
            </subject>
            <effectiveDateTime value="2025-04-22"/>
            <valueQuantity>
               <value value="13"/>
               <unit value="/min"/>
               <code value="/min"/>
            </valueQuantity>
         </Observation>
      </resource>
   </entry>
   <entry>
      <fullUrl value="urn:uuid:70ec58dc-3c3f-4624-9c28-e3bfff7aaa40"/>
      <resource>
         <Observation>
            <id value="70ec58dc-3c3f-4624-9c28-e3bfff7aaa40"/>
            <meta>
               <profile value="http://hl7.org/fhir/StructureDefinition/vitalsigns"/>
            </meta>
            <text>
               <status value="generated"/>
               <div xmlns="http://www.w3.org/1999/xhtml">
                  <table class="hl7__ips">
                     <tr>
                        <th>Vital Sign</th>
                        <th>Date</th>
                        <th>Measurement</th>
                     </tr>
                     <tr>
                        <td>Body Height</td>
                        <td>16-Apr-2024</td>
                        <td>180.6 cm</td>
                     </tr>
                  </table>
               </div>
            </text>
            <status value="final"/>
            <category>
               <coding>
                  <system value="http://terminology.hl7.org/CodeSystem/observation-category"/>
                  <code value="vital-signs"/>
                  <display value="Vital Signs"/>
               </coding>
            </category>
            <code>
               <coding>
                  <system value="http://loinc.org"/>
                  <code value="$8302-2"/>
                  <display value="Body Height"/>
               </coding>
            </code>
            <subject>
               <reference value="urn:uuid:67c3ba28-c25a-4b97-9eef-e80f5cad2359"/>
               <display value="Roy Harrison"/>
            </subject>
            <effectiveDateTime value="2024-04-16"/>
            <valueQuantity>
               <value value="180.6"/>
               <unit value="cm"/>
               <code value="cm"/>
            </valueQuantity>
         </Observation>
      </resource>
   </entry>
   <entry>
      <fullUrl value="urn:uuid:ab969e41-5ccb-48be-aea5-5b371c220292"/>
      <resource>
         <Observation>
            <id value="ab969e41-5ccb-48be-aea5-5b371c220292"/>
            <meta>
               <profile value="http://hl7.org/fhir/StructureDefinition/vitalsigns"/>
            </meta>
            <text>
               <status value="generated"/>
               <div xmlns="http://www.w3.org/1999/xhtml">
                  <table class="hl7__ips">
                     <tr>
                        <th>Vital Sign</th>
                        <th>Date</th>
                        <th>Measurement</th>
                     </tr>
                     <tr>
                        <td>Pain severity - 0-10 verbal numeric rating [Score] - Reported</td>
                        <td>16-Apr-2024</td>
                        <td>3 {score}</td>
                     </tr>
                  </table>
               </div>
            </text>
            <status value="final"/>
            <category>
               <coding>
                  <system value="http://terminology.hl7.org/CodeSystem/observation-category"/>
                  <code value="vital-signs"/>
                  <display value="Vital Signs"/>
               </coding>
            </category>
            <code>
               <coding>
                  <system value="http://loinc.org"/>
                  <code value="$72514-3"/>
                  <display value="Pain severity - 0-10 verbal numeric rating [Score] - Reported"/>
               </coding>
            </code>
            <subject>
               <reference value="urn:uuid:67c3ba28-c25a-4b97-9eef-e80f5cad2359"/>
               <display value="Roy Harrison"/>
            </subject>
            <effectiveDateTime value="2024-04-16"/>
            <valueQuantity>
               <value value="3"/>
               <unit value="{score}"/>
               <code value="{score}"/>
            </valueQuantity>
         </Observation>
      </resource>
   </entry>
   <entry>
      <fullUrl value="urn:uuid:648c05a0-b3bd-40b2-a01e-0b003340118a"/>
      <resource>
         <Observation>
            <id value="648c05a0-b3bd-40b2-a01e-0b003340118a"/>
            <meta>
               <profile value="http://hl7.org/fhir/StructureDefinition/vitalsigns"/>
            </meta>
            <text>
               <status value="generated"/>
               <div xmlns="http://www.w3.org/1999/xhtml">
                  <table class="hl7__ips">
                     <tr>
                        <th>Vital Sign</th>
                        <th>Date</th>
                        <th>Measurement</th>
                     </tr>
                     <tr>
                        <td>Body Weight</td>
                        <td>16-Apr-2024</td>
                        <td>91.2 kg</td>
                     </tr>
                  </table>
               </div>
            </text>
            <status value="final"/>
            <category>
               <coding>
                  <system value="http://terminology.hl7.org/CodeSystem/observation-category"/>
                  <code value="vital-signs"/>
                  <display value="Vital Signs"/>
               </coding>
            </category>
            <code>
               <coding>
                  <system value="http://loinc.org"/>
                  <code value="$29463-7"/>
                  <display value="Body Weight"/>
               </coding>
            </code>
            <subject>
               <reference value="urn:uuid:67c3ba28-c25a-4b97-9eef-e80f5cad2359"/>
               <display value="Roy Harrison"/>
            </subject>
            <effectiveDateTime value="2024-04-16"/>
            <valueQuantity>
               <value value="91.2"/>
               <unit value="kg"/>
               <code value="kg"/>
            </valueQuantity>
         </Observation>
      </resource>
   </entry>
   <entry>
      <fullUrl value="urn:uuid:00d730d2-ee8b-4265-bbaa-c6dc15822c14"/>
      <resource>
         <Observation>
            <id value="00d730d2-ee8b-4265-bbaa-c6dc15822c14"/>
            <meta>
               <profile value="http://hl7.org/fhir/StructureDefinition/vitalsigns"/>
            </meta>
            <text>
               <status value="generated"/>
               <div xmlns="http://www.w3.org/1999/xhtml">
                  <table class="hl7__ips">
                     <tr>
                        <th>Vital Sign</th>
                        <th>Date</th>
                        <th>Measurement</th>
                     </tr>
                     <tr>
                        <td>Body mass index (BMI) [Ratio]</td>
                        <td>16-Apr-2024</td>
                        <td>28 kg/m2</td>
                     </tr>
                  </table>
               </div>
            </text>
            <status value="final"/>
            <category>
               <coding>
                  <system value="http://terminology.hl7.org/CodeSystem/observation-category"/>
                  <code value="vital-signs"/>
                  <display value="Vital Signs"/>
               </coding>
            </category>
            <code>
               <coding>
                  <system value="http://loinc.org"/>
                  <code value="$39156-5"/>
                  <display value="Body mass index (BMI) [Ratio]"/>
               </coding>
            </code>
            <subject>
               <reference value="urn:uuid:67c3ba28-c25a-4b97-9eef-e80f5cad2359"/>
               <display value="Roy Harrison"/>
            </subject>
            <effectiveDateTime value="2024-04-16"/>
            <valueQuantity>
               <value value="28"/>
               <unit value="kg/m2"/>
               <code value="kg/m2"/>
            </valueQuantity>
         </Observation>
      </resource>
   </entry>
   <entry>
      <fullUrl value="urn:uuid:2a5feb51-0e50-40ec-ad62-3d327e2c11e9"/>
      <resource>
         <Observation>
            <id value="2a5feb51-0e50-40ec-ad62-3d327e2c11e9"/>
            <meta>
               <profile value="http://hl7.org/fhir/StructureDefinition/vitalsigns"/>
            </meta>
            <text>
               <status value="generated"/>
               <div xmlns="http://www.w3.org/1999/xhtml">
                  <table class="hl7__ips">
                     <tr>
                        <th>Vital Sign</th>
                        <th>Date</th>
                        <th>Measurement</th>
                     </tr>
                     <tr>
                        <td>Diastolic Blood Pressure</td>
                        <td>16-Apr-2024</td>
                        <td>94 mm[Hg]</td>
                     </tr>
                  </table>
               </div>
            </text>
            <status value="final"/>
            <category>
               <coding>
                  <system value="http://terminology.hl7.org/CodeSystem/observation-category"/>
                  <code value="vital-signs"/>
                  <display value="Vital Signs"/>
               </coding>
            </category>
            <code>
               <coding>
                  <system value="http://loinc.org"/>
                  <code value="$8462-4"/>
                  <display value="Diastolic Blood Pressure"/>
               </coding>
            </code>
            <subject>
               <reference value="urn:uuid:67c3ba28-c25a-4b97-9eef-e80f5cad2359"/>
               <display value="Roy Harrison"/>
            </subject>
            <effectiveDateTime value="2024-04-16"/>
            <valueQuantity>
               <value value="94"/>
               <unit value="mm[Hg]"/>
               <code value="mm[Hg]"/>
            </valueQuantity>
         </Observation>
      </resource>
   </entry>
   <entry>
      <fullUrl value="urn:uuid:0b6a2a0c-37b6-4c17-a13c-caf7cb2f3068"/>
      <resource>
         <Observation>
            <id value="0b6a2a0c-37b6-4c17-a13c-caf7cb2f3068"/>
            <meta>
               <profile value="http://hl7.org/fhir/StructureDefinition/vitalsigns"/>
            </meta>
            <text>
               <status value="generated"/>
               <div xmlns="http://www.w3.org/1999/xhtml">
                  <table class="hl7__ips">
                     <tr>
                        <th>Vital Sign</th>
                        <th>Date</th>
                        <th>Measurement</th>
                     </tr>
                     <tr>
                        <td>Systolic Blood Pressure</td>
                        <td>16-Apr-2024</td>
                        <td>131 mm[Hg]</td>
                     </tr>
                  </table>
               </div>
            </text>
            <status value="final"/>
            <category>
               <coding>
                  <system value="http://terminology.hl7.org/CodeSystem/observation-category"/>
                  <code value="vital-signs"/>
                  <display value="Vital Signs"/>
               </coding>
            </category>
            <code>
               <coding>
                  <system value="http://loinc.org"/>
                  <code value="$8480-6"/>
                  <display value="Systolic Blood Pressure"/>
               </coding>
            </code>
            <subject>
               <reference value="urn:uuid:67c3ba28-c25a-4b97-9eef-e80f5cad2359"/>
               <display value="Roy Harrison"/>
            </subject>
            <effectiveDateTime value="2024-04-16"/>
            <valueQuantity>
               <value value="131"/>
               <unit value="mm[Hg]"/>
               <code value="mm[Hg]"/>
            </valueQuantity>
         </Observation>
      </resource>
   </entry>
   <entry>
      <fullUrl value="urn:uuid:c6f5bfe2-16a1-44c5-9d03-660334263122"/>
      <resource>
         <Observation>
            <id value="c6f5bfe2-16a1-44c5-9d03-660334263122"/>
            <meta>
               <profile value="http://hl7.org/fhir/StructureDefinition/vitalsigns"/>
            </meta>
            <text>
               <status value="generated"/>
               <div xmlns="http://www.w3.org/1999/xhtml">
                  <table class="hl7__ips">
                     <tr>
                        <th>Vital Sign</th>
                        <th>Date</th>
                        <th>Measurement</th>
                     </tr>
                     <tr>
                        <td>Heart rate</td>
                        <td>16-Apr-2024</td>
                        <td>81 /min</td>
                     </tr>
                  </table>
               </div>
            </text>
            <status value="final"/>
            <category>
               <coding>
                  <system value="http://terminology.hl7.org/CodeSystem/observation-category"/>
                  <code value="vital-signs"/>
                  <display value="Vital Signs"/>
               </coding>
            </category>
            <code>
               <coding>
                  <system value="http://loinc.org"/>
                  <code value="$8867-4"/>
                  <display value="Heart rate"/>
               </coding>
            </code>
            <subject>
               <reference value="urn:uuid:67c3ba28-c25a-4b97-9eef-e80f5cad2359"/>
               <display value="Roy Harrison"/>
            </subject>
            <effectiveDateTime value="2024-04-16"/>
            <valueQuantity>
               <value value="81"/>
               <unit value="/min"/>
               <code value="/min"/>
            </valueQuantity>
         </Observation>
      </resource>
   </entry>
   <entry>
      <fullUrl value="urn:uuid:45581e7b-ee26-4445-9d38-50c9dcae72c3"/>
      <resource>
         <Observation>
            <id value="45581e7b-ee26-4445-9d38-50c9dcae72c3"/>
            <meta>
               <profile value="http://hl7.org/fhir/StructureDefinition/vitalsigns"/>
            </meta>
            <text>
               <status value="generated"/>
               <div xmlns="http://www.w3.org/1999/xhtml">
                  <table class="hl7__ips">
                     <tr>
                        <th>Vital Sign</th>
                        <th>Date</th>
                        <th>Measurement</th>
                     </tr>
                     <tr>
                        <td>Respiratory rate</td>
                        <td>16-Apr-2024</td>
                        <td>14 /min</td>
                     </tr>
                  </table>
               </div>
            </text>
            <status value="final"/>
            <category>
               <coding>
                  <system value="http://terminology.hl7.org/CodeSystem/observation-category"/>
                  <code value="vital-signs"/>
                  <display value="Vital Signs"/>
               </coding>
            </category>
            <code>
               <coding>
                  <system value="http://loinc.org"/>
                  <code value="$9279-1"/>
                  <display value="Respiratory rate"/>
               </coding>
            </code>
            <subject>
               <reference value="urn:uuid:67c3ba28-c25a-4b97-9eef-e80f5cad2359"/>
               <display value="Roy Harrison"/>
            </subject>
            <effectiveDateTime value="2024-04-16"/>
            <valueQuantity>
               <value value="14"/>
               <unit value="/min"/>
               <code value="/min"/>
            </valueQuantity>
         </Observation>
      </resource>
   </entry>
   <entry>
      <fullUrl value="urn:uuid:54953c49-310c-4264-9cb9-3643fc38793d"/>
      <resource>
         <Observation>
            <id value="54953c49-310c-4264-9cb9-3643fc38793d"/>
            <meta>
               <profile value="http://hl7.eu/fhir/laboratory/StructureDefinition/Observation-resultslab-eu-lab"/>
            </meta>
            <text>
               <status value="generated"/>
               <div xmlns="http://www.w3.org/1999/xhtml">
                  <table class="hl7__eu__lab__report">
                     <tr>
                        <th>Test</th>
                        <th>22-Apr-2025</th>
                        <th>Reference Range</th>
                        <th>Unit</th>
                     </tr>
                     <tr>
                        <td>Hemoglobin A1c/Hemoglobin.total in Blood</td>
                        <td>7.0</td>
                        <td>4.6 - 6</td>
                        <td>H</td>
                        <td>%</td>
                     </tr>
                  </table>
               </div>
            </text>
            <status value="final"/>
            <category>
               <coding>
                  <system value="http://terminology.hl7.org/CodeSystem/observation-category"/>
                  <code value="laboratory"/>
               </coding>
            </category>
            <code>
               <coding>
                  <system value="http://loinc.org"/>
                  <code value="4548-4"/>
                  <display value="Hemoglobin A1c/Hemoglobin.total in Blood"/>
               </coding>
               <text value="Hemoglobin A1c/Hemoglobin.total in Blood"/>
            </code>
            <subject>
               <reference value="urn:uuid:67c3ba28-c25a-4b97-9eef-e80f5cad2359"/>
               <display value="Roy Harrison"/>
            </subject>
            <effectiveDateTime value="2025-04-22T02:49:43Z"/>
            <performer>
               <display value="The Central European Lab"/>
            </performer>
            <valueQuantity>
               <value value="7"/>
               <unit value="%"/>
               <system value="http://unitsofmeasure.org"/>
               <code value="%"/>
            </valueQuantity>
            <interpretation>
               <coding>
                  <system value="http://terminology.hl7.org/CodeSystem/v3-ObservationInterpretation"/>
                  <code value="H"/>
                  <display value="High"/>
               </coding>
            </interpretation>
            <referenceRange>
               <low>
                  <value value="4.6"/>
                  <system value="http://unitsofmeasure.org"/>
                  <code value="%"/>
               </low>
            </referenceRange>
            <referenceRange>
               <high>
                  <value value="6"/>
                  <system value="http://unitsofmeasure.org"/>
                  <code value="%"/>
               </high>
            </referenceRange>
         </Observation>
      </resource>
   </entry>
   <entry>
      <fullUrl value="urn:uuid:66de5714-1dfe-45d2-abfe-39f4bbe00765"/>
      <resource>
         <Observation>
            <id value="66de5714-1dfe-45d2-abfe-39f4bbe00765"/>
            <meta>
               <profile value="http://hl7.eu/fhir/laboratory/StructureDefinition/Observation-resultslab-eu-lab"/>
            </meta>
            <text>
               <status value="generated"/>
               <div xmlns="http://www.w3.org/1999/xhtml">
                  <table class="hl7__eu__lab__report">
                     <tr>
                        <th>Test</th>
                        <th>22-Apr-2025</th>
                        <th>Reference Range</th>
                        <th>Unit</th>
                     </tr>
                     <tr>
                        <td>Glucose [Mass/volume] in Blood</td>
                        <td>114.5</td>
                        <td>70 - 99</td>
                        <td>H</td>
                        <td>mg/dL</td>
                     </tr>
                  </table>
               </div>
            </text>
            <status value="final"/>
            <category>
               <coding>
                  <system value="http://terminology.hl7.org/CodeSystem/observation-category"/>
                  <code value="laboratory"/>
               </coding>
            </category>
            <code>
               <coding>
                  <system value="http://loinc.org"/>
                  <code value="2339-0"/>
                  <display value="Glucose [Mass/volume] in Blood"/>
               </coding>
               <text value="Glucose [Mass/volume] in Blood"/>
            </code>
            <subject>
               <reference value="urn:uuid:67c3ba28-c25a-4b97-9eef-e80f5cad2359"/>
               <display value="Roy Harrison"/>
            </subject>
            <effectiveDateTime value="2025-04-22T02:49:43Z"/>
            <performer>
               <display value="The Central European Lab"/>
            </performer>
            <valueQuantity>
               <value value="114.5"/>
               <unit value="mg/dL"/>
               <system value="http://unitsofmeasure.org"/>
               <code value="mg/dL"/>
            </valueQuantity>
            <interpretation>
               <coding>
                  <system value="http://terminology.hl7.org/CodeSystem/v3-ObservationInterpretation"/>
                  <code value="H"/>
                  <display value="High"/>
               </coding>
            </interpretation>
            <referenceRange>
               <low>
                  <value value="70"/>
                  <system value="http://unitsofmeasure.org"/>
                  <code value="mg/dL"/>
               </low>
            </referenceRange>
            <referenceRange>
               <high>
                  <value value="99"/>
                  <system value="http://unitsofmeasure.org"/>
                  <code value="mg/dL"/>
               </high>
            </referenceRange>
         </Observation>
      </resource>
   </entry>
   <entry>
      <fullUrl value="urn:uuid:e6a972a9-d816-4cff-ac0a-4e8694dadb63"/>
      <resource>
         <Observation>
            <id value="e6a972a9-d816-4cff-ac0a-4e8694dadb63"/>
            <meta>
               <profile value="http://hl7.eu/fhir/laboratory/StructureDefinition/Observation-resultslab-eu-lab"/>
            </meta>
            <text>
               <status value="generated"/>
               <div xmlns="http://www.w3.org/1999/xhtml">
                  <table class="hl7__eu__lab__report">
                     <tr>
                        <th>Test</th>
                        <th>22-Apr-2025</th>
                        <th>Reference Range</th>
                        <th>Unit</th>
                     </tr>
                     <tr>
                        <td>Urea nitrogen [Mass/volume] in Blood</td>
                        <td>15.6</td>
                        <td>7 - 50</td>
                        <td/>
                        <td>mg/dL</td>
                     </tr>
                  </table>
               </div>
            </text>
            <status value="final"/>
            <category>
               <coding>
                  <system value="http://terminology.hl7.org/CodeSystem/observation-category"/>
                  <code value="laboratory"/>
               </coding>
            </category>
            <code>
               <coding>
                  <system value="http://loinc.org"/>
                  <code value="6299-2"/>
                  <display value="Urea nitrogen [Mass/volume] in Blood"/>
               </coding>
               <text value="Urea nitrogen [Mass/volume] in Blood"/>
            </code>
            <subject>
               <reference value="urn:uuid:67c3ba28-c25a-4b97-9eef-e80f5cad2359"/>
               <display value="Roy Harrison"/>
            </subject>
            <effectiveDateTime value="2025-04-22T02:49:43Z"/>
            <performer>
               <display value="The Central European Lab"/>
            </performer>
            <valueQuantity>
               <value value="15.6"/>
               <unit value="mg/dL"/>
               <system value="http://unitsofmeasure.org"/>
               <code value="mg/dL"/>
            </valueQuantity>
            <referenceRange>
               <low>
                  <value value="7"/>
                  <system value="http://unitsofmeasure.org"/>
                  <code value="mg/dL"/>
               </low>
            </referenceRange>
            <referenceRange>
               <high>
                  <value value="50"/>
                  <system value="http://unitsofmeasure.org"/>
                  <code value="mg/dL"/>
               </high>
            </referenceRange>
         </Observation>
      </resource>
   </entry>
   <entry>
      <fullUrl value="urn:uuid:5208a3d2-ebba-47de-a8f6-7f9b88afe256"/>
      <resource>
         <Observation>
            <id value="5208a3d2-ebba-47de-a8f6-7f9b88afe256"/>
            <meta>
               <profile value="http://hl7.eu/fhir/laboratory/StructureDefinition/Observation-resultslab-eu-lab"/>
            </meta>
            <text>
               <status value="generated"/>
               <div xmlns="http://www.w3.org/1999/xhtml">
                  <table class="hl7__eu__lab__report">
                     <tr>
                        <th>Test</th>
                        <th>22-Apr-2025</th>
                        <th>Reference Range</th>
                        <th>Unit</th>
                     </tr>
                     <tr>
                        <td>Creatinine [Mass/volume] in Blood</td>
                        <td>1.0</td>
                        <td>0.9 - 1.3</td>
                        <td/>
                        <td>mg/dL</td>
                     </tr>
                  </table>
               </div>
            </text>
            <status value="final"/>
            <category>
               <coding>
                  <system value="http://terminology.hl7.org/CodeSystem/observation-category"/>
                  <code value="laboratory"/>
               </coding>
            </category>
            <code>
               <coding>
                  <system value="http://loinc.org"/>
                  <code value="38483-4"/>
                  <display value="Creatinine [Mass/volume] in Blood"/>
               </coding>
               <text value="Creatinine [Mass/volume] in Blood"/>
            </code>
            <subject>
               <reference value="urn:uuid:67c3ba28-c25a-4b97-9eef-e80f5cad2359"/>
               <display value="Roy Harrison"/>
            </subject>
            <effectiveDateTime value="2025-04-22T02:49:43Z"/>
            <performer>
               <display value="The Central European Lab"/>
            </performer>
            <valueQuantity>
               <value value="1"/>
               <unit value="mg/dL"/>
               <system value="http://unitsofmeasure.org"/>
               <code value="mg/dL"/>
            </valueQuantity>
            <referenceRange>
               <low>
                  <value value="0.9"/>
                  <system value="http://unitsofmeasure.org"/>
                  <code value="mg/dL"/>
               </low>
            </referenceRange>
            <referenceRange>
               <high>
                  <value value="1.3"/>
                  <system value="http://unitsofmeasure.org"/>
                  <code value="mg/dL"/>
               </high>
            </referenceRange>
         </Observation>
      </resource>
   </entry>
   <entry>
      <fullUrl value="urn:uuid:3d5753ca-c7ce-45d8-a95b-2ad85b182f49"/>
      <resource>
         <Observation>
            <id value="3d5753ca-c7ce-45d8-a95b-2ad85b182f49"/>
            <meta>
               <profile value="http://hl7.eu/fhir/laboratory/StructureDefinition/Observation-resultslab-eu-lab"/>
            </meta>
            <text>
               <status value="generated"/>
               <div xmlns="http://www.w3.org/1999/xhtml">
                  <table class="hl7__eu__lab__report">
                     <tr>
                        <th>Test</th>
                        <th>22-Apr-2025</th>
                        <th>Reference Range</th>
                        <th>Unit</th>
                     </tr>
                     <tr>
                        <td>Calcium [Mass/volume] in Blood</td>
                        <td>8.6</td>
                        <td>8.5 - 10.5</td>
                        <td/>
                        <td>mg/dL</td>
                     </tr>
                  </table>
               </div>
            </text>
            <status value="final"/>
            <category>
               <coding>
                  <system value="http://terminology.hl7.org/CodeSystem/observation-category"/>
                  <code value="laboratory"/>
               </coding>
            </category>
            <code>
               <coding>
                  <system value="http://loinc.org"/>
                  <code value="49765-1"/>
                  <display value="Calcium [Mass/volume] in Blood"/>
               </coding>
               <text value="Calcium [Mass/volume] in Blood"/>
            </code>
            <subject>
               <reference value="urn:uuid:67c3ba28-c25a-4b97-9eef-e80f5cad2359"/>
               <display value="Roy Harrison"/>
            </subject>
            <effectiveDateTime value="2025-04-22T02:49:43Z"/>
            <performer>
               <display value="The Central European Lab"/>
            </performer>
            <valueQuantity>
               <value value="8.6"/>
               <unit value="mg/dL"/>
               <system value="http://unitsofmeasure.org"/>
               <code value="mg/dL"/>
            </valueQuantity>
            <referenceRange>
               <low>
                  <value value="8.5"/>
                  <system value="http://unitsofmeasure.org"/>
                  <code value="mg/dL"/>
               </low>
            </referenceRange>
            <referenceRange>
               <high>
                  <value value="10.5"/>
                  <system value="http://unitsofmeasure.org"/>
                  <code value="mg/dL"/>
               </high>
            </referenceRange>
         </Observation>
      </resource>
   </entry>
   <entry>
      <fullUrl value="urn:uuid:fa954540-dbf0-4755-a9e7-008856e0c426"/>
      <resource>
         <Observation>
            <id value="fa954540-dbf0-4755-a9e7-008856e0c426"/>
            <meta>
               <profile value="http://hl7.eu/fhir/laboratory/StructureDefinition/Observation-resultslab-eu-lab"/>
            </meta>
            <text>
               <status value="generated"/>
               <div xmlns="http://www.w3.org/1999/xhtml">
                  <table class="hl7__eu__lab__report">
                     <tr>
                        <th>Test</th>
                        <th>22-Apr-2025</th>
                        <th>Reference Range</th>
                        <th>Unit</th>
                     </tr>
                     <tr>
                        <td>Sodium [Moles/volume] in Blood</td>
                        <td>137.9</td>
                        <td>135 - 145</td>
                        <td/>
                        <td>mmol/L</td>
                     </tr>
                  </table>
               </div>
            </text>
            <status value="final"/>
            <category>
               <coding>
                  <system value="http://terminology.hl7.org/CodeSystem/observation-category"/>
                  <code value="laboratory"/>
               </coding>
            </category>
            <code>
               <coding>
                  <system value="http://loinc.org"/>
                  <code value="2947-0"/>
                  <display value="Sodium [Moles/volume] in Blood"/>
               </coding>
               <text value="Sodium [Moles/volume] in Blood"/>
            </code>
            <subject>
               <reference value="urn:uuid:67c3ba28-c25a-4b97-9eef-e80f5cad2359"/>
               <display value="Roy Harrison"/>
            </subject>
            <effectiveDateTime value="2025-04-22T02:49:43Z"/>
            <performer>
               <display value="The Central European Lab"/>
            </performer>
            <valueQuantity>
               <value value="137.9"/>
               <unit value="mmol/L"/>
               <system value="http://unitsofmeasure.org"/>
               <code value="mmol/L"/>
            </valueQuantity>
            <referenceRange>
               <low>
                  <value value="135"/>
                  <system value="http://unitsofmeasure.org"/>
                  <code value="mmol/L"/>
               </low>
            </referenceRange>
            <referenceRange>
               <high>
                  <value value="145"/>
                  <system value="http://unitsofmeasure.org"/>
                  <code value="mmol/L"/>
               </high>
            </referenceRange>
         </Observation>
      </resource>
   </entry>
   <entry>
      <fullUrl value="urn:uuid:5aba2e4c-17c4-4fe1-b961-6e88a63a2c88"/>
      <resource>
         <Observation>
            <id value="5aba2e4c-17c4-4fe1-b961-6e88a63a2c88"/>
            <meta>
               <profile value="http://hl7.eu/fhir/laboratory/StructureDefinition/Observation-resultslab-eu-lab"/>
            </meta>
            <text>
               <status value="generated"/>
               <div xmlns="http://www.w3.org/1999/xhtml">
                  <table class="hl7__eu__lab__report">
                     <tr>
                        <th>Test</th>
                        <th>22-Apr-2025</th>
                        <th>Reference Range</th>
                        <th>Unit</th>
                     </tr>
                     <tr>
                        <td>Potassium [Moles/volume] in Blood</td>
                        <td>5.0</td>
                        <td>3.5 - 5.1</td>
                        <td/>
                        <td>mmol/L</td>
                     </tr>
                  </table>
               </div>
            </text>
            <status value="final"/>
            <category>
               <coding>
                  <system value="http://terminology.hl7.org/CodeSystem/observation-category"/>
                  <code value="laboratory"/>
               </coding>
            </category>
            <code>
               <coding>
                  <system value="http://loinc.org"/>
                  <code value="6298-4"/>
                  <display value="Potassium [Moles/volume] in Blood"/>
               </coding>
               <text value="Potassium [Moles/volume] in Blood"/>
            </code>
            <subject>
               <reference value="urn:uuid:67c3ba28-c25a-4b97-9eef-e80f5cad2359"/>
               <display value="Roy Harrison"/>
            </subject>
            <effectiveDateTime value="2025-04-22T02:49:43Z"/>
            <performer>
               <display value="The Central European Lab"/>
            </performer>
            <valueQuantity>
               <value value="5"/>
               <unit value="mmol/L"/>
               <system value="http://unitsofmeasure.org"/>
               <code value="mmol/L"/>
            </valueQuantity>
            <referenceRange>
               <low>
                  <value value="3.5"/>
                  <system value="http://unitsofmeasure.org"/>
                  <code value="mmol/L"/>
               </low>
            </referenceRange>
            <referenceRange>
               <high>
                  <value value="5.1"/>
                  <system value="http://unitsofmeasure.org"/>
                  <code value="mmol/L"/>
               </high>
            </referenceRange>
         </Observation>
      </resource>
   </entry>
   <entry>
      <fullUrl value="urn:uuid:0fe102c4-4cf6-471b-ba74-e788e4c37275"/>
      <resource>
         <Observation>
            <id value="0fe102c4-4cf6-471b-ba74-e788e4c37275"/>
            <meta>
               <profile value="http://hl7.eu/fhir/laboratory/StructureDefinition/Observation-resultslab-eu-lab"/>
            </meta>
            <text>
               <status value="generated"/>
               <div xmlns="http://www.w3.org/1999/xhtml">
                  <table class="hl7__eu__lab__report">
                     <tr>
                        <th>Test</th>
                        <th>22-Apr-2025</th>
                        <th>Reference Range</th>
                        <th>Unit</th>
                     </tr>
                     <tr>
                        <td>Chloride [Moles/volume] in Blood</td>
                        <td>102.3</td>
                        <td>98 - 114</td>
                        <td/>
                        <td>mmol/L</td>
                     </tr>
                  </table>
               </div>
            </text>
            <status value="final"/>
            <category>
               <coding>
                  <system value="http://terminology.hl7.org/CodeSystem/observation-category"/>
                  <code value="laboratory"/>
               </coding>
            </category>
            <code>
               <coding>
                  <system value="http://loinc.org"/>
                  <code value="2069-3"/>
                  <display value="Chloride [Moles/volume] in Blood"/>
               </coding>
               <text value="Chloride [Moles/volume] in Blood"/>
            </code>
            <subject>
               <reference value="urn:uuid:67c3ba28-c25a-4b97-9eef-e80f5cad2359"/>
               <display value="Roy Harrison"/>
            </subject>
            <effectiveDateTime value="2025-04-22T02:49:43Z"/>
            <performer>
               <display value="The Central European Lab"/>
            </performer>
            <valueQuantity>
               <value value="102.3"/>
               <unit value="mmol/L"/>
               <system value="http://unitsofmeasure.org"/>
               <code value="mmol/L"/>
            </valueQuantity>
            <referenceRange>
               <low>
                  <value value="98"/>
                  <system value="http://unitsofmeasure.org"/>
                  <code value="mmol/L"/>
               </low>
            </referenceRange>
            <referenceRange>
               <high>
                  <value value="114"/>
                  <system value="http://unitsofmeasure.org"/>
                  <code value="mmol/L"/>
               </high>
            </referenceRange>
         </Observation>
      </resource>
   </entry>
   <entry>
      <fullUrl value="urn:uuid:1f5f65df-6272-4f9c-8689-270988d70cd0"/>
      <resource>
         <Observation>
            <id value="1f5f65df-6272-4f9c-8689-270988d70cd0"/>
            <meta>
               <profile value="http://hl7.eu/fhir/laboratory/StructureDefinition/Observation-resultslab-eu-lab"/>
            </meta>
            <text>
               <status value="generated"/>
               <div xmlns="http://www.w3.org/1999/xhtml">
                  <table class="hl7__eu__lab__report">
                     <tr>
                        <th>Test</th>
                        <th>22-Apr-2025</th>
                        <th>Reference Range</th>
                        <th>Unit</th>
                     </tr>
                     <tr>
                        <td>Carbon dioxide, total [Moles/volume] in Blood</td>
                        <td>25.5</td>
                        <td>22 - 32</td>
                        <td/>
                        <td>mmol/L</td>
                     </tr>
                  </table>
               </div>
            </text>
            <status value="final"/>
            <category>
               <coding>
                  <system value="http://terminology.hl7.org/CodeSystem/observation-category"/>
                  <code value="laboratory"/>
               </coding>
            </category>
            <code>
               <coding>
                  <system value="http://loinc.org"/>
                  <code value="20565-8"/>
                  <display value="Carbon dioxide, total [Moles/volume] in Blood"/>
               </coding>
               <text value="Carbon dioxide, total [Moles/volume] in Blood"/>
            </code>
            <subject>
               <reference value="urn:uuid:67c3ba28-c25a-4b97-9eef-e80f5cad2359"/>
               <display value="Roy Harrison"/>
            </subject>
            <effectiveDateTime value="2025-04-22T02:49:43Z"/>
            <performer>
               <display value="The Central European Lab"/>
            </performer>
            <valueQuantity>
               <value value="25.5"/>
               <unit value="mmol/L"/>
               <system value="http://unitsofmeasure.org"/>
               <code value="mmol/L"/>
            </valueQuantity>
            <referenceRange>
               <low>
                  <value value="22"/>
                  <system value="http://unitsofmeasure.org"/>
                  <code value="mmol/L"/>
               </low>
            </referenceRange>
            <referenceRange>
               <high>
                  <value value="32"/>
                  <system value="http://unitsofmeasure.org"/>
                  <code value="mmol/L"/>
               </high>
            </referenceRange>
         </Observation>
      </resource>
   </entry>
   <entry>
      <fullUrl value="urn:uuid:354f6143-ada3-495b-9e1e-af7b474337b1"/>
      <resource>
         <Observation>
            <id value="354f6143-ada3-495b-9e1e-af7b474337b1"/>
            <meta>
               <profile value="http://hl7.eu/fhir/laboratory/StructureDefinition/Observation-resultslab-eu-lab"/>
            </meta>
            <text>
               <status value="generated"/>
               <div xmlns="http://www.w3.org/1999/xhtml">
                  <table class="hl7__eu__lab__report">
                     <tr>
                        <th>Test</th>
                        <th>22-Apr-2025</th>
                        <th>Reference Range</th>
                        <th>Unit</th>
                     </tr>
                     <tr>
                        <td>Cholesterol [Mass/volume] in Serum or Plasma</td>
                        <td>215.3</td>
                        <td>125 - 200</td>
                        <td>H</td>
                        <td>mg/dL</td>
                     </tr>
                  </table>
               </div>
            </text>
            <status value="final"/>
            <category>
               <coding>
                  <system value="http://terminology.hl7.org/CodeSystem/observation-category"/>
                  <code value="laboratory"/>
               </coding>
            </category>
            <code>
               <coding>
                  <system value="http://loinc.org"/>
                  <code value="2093-3"/>
                  <display value="Cholesterol [Mass/volume] in Serum or Plasma"/>
               </coding>
               <text value="Cholesterol [Mass/volume] in Serum or Plasma"/>
            </code>
            <subject>
               <reference value="urn:uuid:67c3ba28-c25a-4b97-9eef-e80f5cad2359"/>
               <display value="Roy Harrison"/>
            </subject>
            <effectiveDateTime value="2025-04-22T02:49:43Z"/>
            <performer>
               <display value="The Central European Lab"/>
            </performer>
            <valueQuantity>
               <value value="215.3"/>
               <unit value="mg/dL"/>
               <system value="http://unitsofmeasure.org"/>
               <code value="mg/dL"/>
            </valueQuantity>
            <interpretation>
               <coding>
                  <system value="http://terminology.hl7.org/CodeSystem/v3-ObservationInterpretation"/>
                  <code value="H"/>
                  <display value="High"/>
               </coding>
            </interpretation>
            <referenceRange>
               <low>
                  <value value="125"/>
                  <system value="http://unitsofmeasure.org"/>
                  <code value="mg/dL"/>
               </low>
            </referenceRange>
            <referenceRange>
               <high>
                  <value value="200"/>
                  <system value="http://unitsofmeasure.org"/>
                  <code value="mg/dL"/>
               </high>
            </referenceRange>
         </Observation>
      </resource>
   </entry>
   <entry>
      <fullUrl value="urn:uuid:35f0d447-54d3-45e6-9fb6-e971ef0f3937"/>
      <resource>
         <Observation>
            <id value="35f0d447-54d3-45e6-9fb6-e971ef0f3937"/>
            <meta>
               <profile value="http://hl7.eu/fhir/laboratory/StructureDefinition/Observation-resultslab-eu-lab"/>
            </meta>
            <text>
               <status value="generated"/>
               <div xmlns="http://www.w3.org/1999/xhtml">
                  <table class="hl7__eu__lab__report">
                     <tr>
                        <th>Test</th>
                        <th>22-Apr-2025</th>
                        <th>Reference Range</th>
                        <th>Unit</th>
                     </tr>
                     <tr>
                        <td>Triglyceride [Mass/volume] in Serum or Plasma</td>
                        <td>183.1</td>
                        <td>0 - 150</td>
                        <td>H</td>
                        <td>mg/dL</td>
                     </tr>
                  </table>
               </div>
            </text>
            <status value="final"/>
            <category>
               <coding>
                  <system value="http://terminology.hl7.org/CodeSystem/observation-category"/>
                  <code value="laboratory"/>
               </coding>
            </category>
            <code>
               <coding>
                  <system value="http://loinc.org"/>
                  <code value="2571-8"/>
                  <display value="Triglyceride [Mass/volume] in Serum or Plasma"/>
               </coding>
               <text value="Triglyceride [Mass/volume] in Serum or Plasma"/>
            </code>
            <subject>
               <reference value="urn:uuid:67c3ba28-c25a-4b97-9eef-e80f5cad2359"/>
               <display value="Roy Harrison"/>
            </subject>
            <effectiveDateTime value="2025-04-22T02:49:43Z"/>
            <performer>
               <display value="The Central European Lab"/>
            </performer>
            <valueQuantity>
               <value value="183.1"/>
               <unit value="mg/dL"/>
               <system value="http://unitsofmeasure.org"/>
               <code value="mg/dL"/>
            </valueQuantity>
            <interpretation>
               <coding>
                  <system value="http://terminology.hl7.org/CodeSystem/v3-ObservationInterpretation"/>
                  <code value="H"/>
                  <display value="High"/>
               </coding>
            </interpretation>
            <referenceRange>
               <low>
                  <value value="0"/>
                  <system value="http://unitsofmeasure.org"/>
                  <code value="mg/dL"/>
               </low>
            </referenceRange>
            <referenceRange>
               <high>
                  <value value="150"/>
                  <system value="http://unitsofmeasure.org"/>
                  <code value="mg/dL"/>
               </high>
            </referenceRange>
         </Observation>
      </resource>
   </entry>
   <entry>
      <fullUrl value="urn:uuid:8571743a-388f-46d3-b315-1dca11c513a1"/>
      <resource>
         <Observation>
            <id value="8571743a-388f-46d3-b315-1dca11c513a1"/>
            <meta>
               <profile value="http://hl7.eu/fhir/laboratory/StructureDefinition/Observation-resultslab-eu-lab"/>
            </meta>
            <text>
               <status value="generated"/>
               <div xmlns="http://www.w3.org/1999/xhtml">
                  <table class="hl7__eu__lab__report">
                     <tr>
                        <th>Test</th>
                        <th>22-Apr-2025</th>
                        <th>Reference Range</th>
                        <th>Unit</th>
                     </tr>
                     <tr>
                        <td>Cholesterol in LDL [Mass/volume] in Serum or Plasma by Direct assay</td>
                        <td>134.9</td>
                        <td>0 - 130</td>
                        <td>H</td>
                        <td>mg/dL</td>
                     </tr>
                  </table>
               </div>
            </text>
            <status value="final"/>
            <category>
               <coding>
                  <system value="http://terminology.hl7.org/CodeSystem/observation-category"/>
                  <code value="laboratory"/>
               </coding>
            </category>
            <code>
               <coding>
                  <system value="http://loinc.org"/>
                  <code value="18262-6"/>
                  <display value="Cholesterol in LDL [Mass/volume] in Serum or Plasma by Direct assay"/>
               </coding>
               <text value="Cholesterol in LDL [Mass/volume] in Serum or Plasma by Direct assay"/>
            </code>
            <subject>
               <reference value="urn:uuid:67c3ba28-c25a-4b97-9eef-e80f5cad2359"/>
               <display value="Roy Harrison"/>
            </subject>
            <effectiveDateTime value="2025-04-22T02:49:43Z"/>
            <performer>
               <display value="The Central European Lab"/>
            </performer>
            <valueQuantity>
               <value value="134.9"/>
               <unit value="mg/dL"/>
               <system value="http://unitsofmeasure.org"/>
               <code value="mg/dL"/>
            </valueQuantity>
            <interpretation>
               <coding>
                  <system value="http://terminology.hl7.org/CodeSystem/v3-ObservationInterpretation"/>
                  <code value="H"/>
                  <display value="High"/>
               </coding>
            </interpretation>
            <referenceRange>
               <low>
                  <value value="0"/>
                  <system value="http://unitsofmeasure.org"/>
                  <code value="mg/dL"/>
               </low>
            </referenceRange>
            <referenceRange>
               <high>
                  <value value="130"/>
                  <system value="http://unitsofmeasure.org"/>
                  <code value="mg/dL"/>
               </high>
            </referenceRange>
         </Observation>
      </resource>
   </entry>
   <entry>
      <fullUrl value="urn:uuid:ce295b25-4ed9-4b53-97e4-579ef0b7d623"/>
      <resource>
         <Observation>
            <id value="ce295b25-4ed9-4b53-97e4-579ef0b7d623"/>
            <meta>
               <profile value="http://hl7.eu/fhir/laboratory/StructureDefinition/Observation-resultslab-eu-lab"/>
            </meta>
            <text>
               <status value="generated"/>
               <div xmlns="http://www.w3.org/1999/xhtml">
                  <table class="hl7__eu__lab__report">
                     <tr>
                        <th>Test</th>
                        <th>22-Apr-2025</th>
                        <th>Reference Range</th>
                        <th>Unit</th>
                     </tr>
                     <tr>
                        <td>Cholesterol in HDL [Mass/volume] in Serum or Plasma</td>
                        <td>43.8</td>
                        <td>40 - 60</td>
                        <td/>
                        <td>mg/dL</td>
                     </tr>
                  </table>
               </div>
            </text>
            <status value="final"/>
            <category>
               <coding>
                  <system value="http://terminology.hl7.org/CodeSystem/observation-category"/>
                  <code value="laboratory"/>
               </coding>
            </category>
            <code>
               <coding>
                  <system value="http://loinc.org"/>
                  <code value="2085-9"/>
                  <display value="Cholesterol in HDL [Mass/volume] in Serum or Plasma"/>
               </coding>
               <text value="Cholesterol in HDL [Mass/volume] in Serum or Plasma"/>
            </code>
            <subject>
               <reference value="urn:uuid:67c3ba28-c25a-4b97-9eef-e80f5cad2359"/>
               <display value="Roy Harrison"/>
            </subject>
            <effectiveDateTime value="2025-04-22T02:49:43Z"/>
            <performer>
               <display value="The Central European Lab"/>
            </performer>
            <valueQuantity>
               <value value="43.8"/>
               <unit value="mg/dL"/>
               <system value="http://unitsofmeasure.org"/>
               <code value="mg/dL"/>
            </valueQuantity>
            <referenceRange>
               <low>
                  <value value="40"/>
                  <system value="http://unitsofmeasure.org"/>
                  <code value="mg/dL"/>
               </low>
            </referenceRange>
            <referenceRange>
               <high>
                  <value value="60"/>
                  <system value="http://unitsofmeasure.org"/>
                  <code value="mg/dL"/>
               </high>
            </referenceRange>
         </Observation>
      </resource>
   </entry>
   <entry>
      <fullUrl value="urn:uuid:5dfd16d7-41e6-4f27-81f8-1fd846adc9e1"/>
      <resource>
         <Observation>
            <id value="5dfd16d7-41e6-4f27-81f8-1fd846adc9e1"/>
            <meta>
               <profile value="http://hl7.eu/fhir/laboratory/StructureDefinition/Observation-resultslab-eu-lab"/>
            </meta>
            <text>
               <status value="generated"/>
               <div xmlns="http://www.w3.org/1999/xhtml">
                  <table class="hl7__eu__lab__report">
                     <tr>
                        <th>Test</th>
                        <th>22-Apr-2025</th>
                        <th>Reference Range</th>
                        <th>Unit</th>
                     </tr>
                     <tr>
                        <td>Microalbumin/Creatinine [Mass Ratio] in Urine</td>
                        <td>8.3</td>
                        <td>0 - 30</td>
                        <td/>
                        <td>mg/g</td>
                     </tr>
                  </table>
               </div>
            </text>
            <status value="final"/>
            <category>
               <coding>
                  <system value="http://terminology.hl7.org/CodeSystem/observation-category"/>
                  <code value="laboratory"/>
               </coding>
            </category>
            <code>
               <coding>
                  <system value="http://loinc.org"/>
                  <code value="14959-1"/>
                  <display value="Microalbumin/Creatinine [Mass Ratio] in Urine"/>
               </coding>
               <text value="Microalbumin/Creatinine [Mass Ratio] in Urine"/>
            </code>
            <subject>
               <reference value="urn:uuid:67c3ba28-c25a-4b97-9eef-e80f5cad2359"/>
               <display value="Roy Harrison"/>
            </subject>
            <effectiveDateTime value="2025-04-22T02:49:43Z"/>
            <performer>
               <display value="The Central European Lab"/>
            </performer>
            <valueQuantity>
               <value value="8.3"/>
               <unit value="mg/g"/>
               <system value="http://unitsofmeasure.org"/>
               <code value="mg/g"/>
            </valueQuantity>
            <referenceRange>
               <low>
                  <value value="0"/>
                  <system value="http://unitsofmeasure.org"/>
                  <code value="mg/g"/>
               </low>
            </referenceRange>
            <referenceRange>
               <high>
                  <value value="30"/>
                  <system value="http://unitsofmeasure.org"/>
                  <code value="mg/g"/>
               </high>
            </referenceRange>
         </Observation>
      </resource>
   </entry>
   <entry>
      <fullUrl value="urn:uuid:c667d56f-9aea-485d-bc38-efa031e4c1e6"/>
      <resource>
         <DeviceUseStatement>
            <id value="c667d56f-9aea-485d-bc38-efa031e4c1e6"/>
            <meta>
               <profile value="http://hl7.eu/fhir/eps/StructureDefinition/deviceUseStatement-eu-eps"/>
            </meta>
            <text>
               <status value="generated"/>
               <div xmlns="http://www.w3.org/1999/xhtml">
                  <table class="hl7__ips">
                     <tr>
                        <td>Blood glucose meter (physical object)</td>
                        <td>
                           <span class="nb">05-Dec-2000</span>
                        </td>
                     </tr>
                  </table>
               </div>
            </text>
            <status value="active"/>
            <subject>
               <reference value="urn:uuid:67c3ba28-c25a-4b97-9eef-e80f5cad2359"/>
               <display value="Roy Harrison"/>
            </subject>
            <timingPeriod>
               <start value="2000-12-05"/>
            </timingPeriod>
            <device>
               <reference value="urn:uuid:d92c65e3-04a1-4c0a-81b7-138004977fd3"/>
               <display value="Blood glucose meter (physical object)"/>
            </device>
         </DeviceUseStatement>
      </resource>
   </entry>
   <entry>
      <fullUrl value="urn:uuid:d92c65e3-04a1-4c0a-81b7-138004977fd3"/>
      <resource>
         <Device>
            <id value="d92c65e3-04a1-4c0a-81b7-138004977fd3"/>
            <meta>
               <profile value="http://hl7.eu/fhir/eps/StructureDefinition/device-eu-eps"/>
            </meta>
            <udiCarrier id="(01)18773424422491(11)001114(17)251129(10)74531879871370(21)68125890088005"/>
            <status value="active"/>
            <type>
               <coding>
                  <system value="http://snomed.info/sct"/>
                  <code value="337414009"/>
                  <display value="Blood glucose meter (physical object)"/>
               </coding>
            </type>
            <patient>
               <reference value="urn:uuid:67c3ba28-c25a-4b97-9eef-e80f5cad2359"/>
               <display value="Roy Harrison"/>
            </patient>
         </Device>
      </resource>
   </entry>
   <entry>
      <fullUrl value="urn:uuid:6a6c490c-7fca-4a81-8cb4-0f440cdf607e"/>
      <resource>
         <Device>
            <id value="6a6c490c-7fca-4a81-8cb4-0f440cdf607e"/>
            <text>
               <status value="generated"/>
               <div xmlns="http://www.w3.org/1999/xhtml">SYNDERAI Synthetic Generator v5.0</div>
            </text>
            <status value="active&#34;"/>
            <distinctIdentifier value="synderai-generator-50"/>
            <manufacturer value="SYNDERAI Project"/>
            <deviceName>
               <name value="SYNDERAI Synthetic Generator"/>
               <type value="manufacturer-name"/>
            </deviceName>
            <version>
               <value value="5.0"/>
            </version>
         </Device>
      </resource>
   </entry>
   <entry>
      <fullUrl value="urn:uuid:e6ba6e36-fd7c-4c34-b661-1f6882f54417"/>
      <resource>
         <Provenance>
            <id value="e6ba6e36-fd7c-4c34-b661-1f6882f54417"/>
            <text>
               <status value="generated"/>
               <div xmlns="http://www.w3.org/1999/xhtml">Provenance for SYNDERAI Synthetic Example Data Resource</div>
            </text>
            <target>
               <reference value="Patient/67c3ba28-c25a-4b97-9eef-e80f5cad2359"/>
            </target>
            <target>
               <reference value="Bundle/f11f96aa-703a-4523-816f-aa99552a3287"/>
            </target>
            <target>
               <reference value="Composition/2d9f2afa-d860-4629-97a5-417e233b1f41"/>
            </target>
            <target>
               <reference value="PractitionerRole/7c0c77b1-3593-495a-984b-cd192e06088d"/>
            </target>
            <target>
               <reference value="Organization/7d738262-13bf-4201-acad-4b464134d095"/>
            </target>
            <target>
               <reference value="Practitioner/d7b4ed99-b15e-4288-81be-b32e877e2dd0"/>
            </target>
            <recorded value="2025-04-22T02:49:43Z"/>
            <policy value="https://synderai.net/synderai-synthetic-data-policy"/>
            <reason>
               <text value="Interoperability Testing and Training (non-clinical use)"/>
            </reason>
            <activity>
               <text value="Synthetic Example Data Generation"/>
            </activity>
            <agent>
               <type>
                  <text value="author"/>
               </type>
               <who>
                  <reference value="Device/6a6c490c-7fca-4a81-8cb4-0f440cdf607e"/>
               </who>
            </agent>
         </Provenance>
      </resource>
   </entry>
</Bundle>