{
  "resourceType": "Bundle",
  "id": "917f9c2b-4d21-4c0b-be05-78375be13576",
  "meta": {
    "profile": [
      "http://hl7.eu/fhir/eps/StructureDefinition/bundle-eu-eps"
    ]
  },
  "identifier": {
    "assigner": {
      "display": "HL7 Europe"
    },
    "system": "urn:oid:2.16.840.1.113883.2.51.999",
    "value": "33ab865c-2d1f-4dc4-b045-0e36c2342da2"
  },
  "entry": [
    {
      "fullUrl": "urn:uuid:0b06a027-3828-4a39-80f0-077861f78986",
      "resource": {
        "resourceType": "Composition",
        "id": "0b06a027-3828-4a39-80f0-077861f78986",
        "meta": {
          "security": [
            {
              "system": "http://terminology.hl7.org/CodeSystem/v3-ActReason",
              "code": "HTEST"
            },
            {
              "system": "http://terminology.hl7.org/CodeSystem/v3-ActReason",
              "code": "TRAIN"
            }
          ],
          "tag": [
            {
              "system": "https://synderai.net/fhir/CodeSystem/tags",
              "code": "synthetic",
              "display": "SYNDERAI Synthetic data"
            }
          ],
          "profile": [
            "http://hl7.eu/fhir/eps/StructureDefinition/composition-eu-eps"
          ]
        },
        "identifier": {
          "assigner": {
            "display": "HL7 Europe"
          },
          "system": "urn:oid:2.16.840.1.113883.2.51.999",
          "value": "e3eb30dc-b1d3-4cdb-82de-04cf50bc9356"
        },
        "type": {
          "coding": [
            {
              "system": "http://loinc.org",
              "code": "60591-5",
              "display": "Patient summary Document"
            }
          ],
          "text": "Patient summary Document"
        },
        "author": [
          {
            "reference": "urn:uuid:93226f54-a095-40ed-b724-6205080f50d4"
          }
        ],
        "section": [
          {
            "text": {
              "status": "generated",
              "div": "<div xmlns=\"http://www.w3.org/1999/xhtml\"><table class=\"hl7__ips\"><tr><th>Condition</th><th>Onset Date</th><th>Status</th></tr><tr><td>Ischemic heart disease</td><td><span class=\"nb\">12-Oct-2016</span></td><td>active</td></tr><tr><td>Osteoporosis</td><td><span class=\"nb\">22-Aug-2007</span></td><td>active</td></tr><tr><td>Dependent drug abuse</td><td><span class=\"nb\">18-Mar-1999</span></td><td>active</td></tr><tr><td>Hyperlipidemia</td><td><span class=\"nb\">27-May-1992</span></td><td>active</td></tr><tr><td>Chronic intractable migraine without aura</td><td><span class=\"nb\">04-Nov-1990</span></td><td>active</td></tr><tr><td>Impacted molars</td><td><span class=\"nb\">22-Aug-1990</span></td><td>active</td></tr><tr><td>Osteoarthritis of hip</td><td><span class=\"nb\">06-Jan-1989</span></td><td>active</td></tr><tr><td>Chronic sinusitis</td><td><span class=\"nb\">20-Sep-1938</span></td><td>active</td></tr></table></div>"
            },
            "entry": [
              {
                "reference": "urn:uuid:2d0090a3-57d7-4ac8-8549-32b562c3fc8b"
              },
              {
                "reference": "urn:uuid:508101fb-9bcb-47b9-b991-c570622b3825"
              },
              {
                "reference": "urn:uuid:d4285eee-92d7-4959-bfc1-79a47646a8f9"
              },
              {
                "reference": "urn:uuid:f66f8d19-41dd-487e-8149-151c134d8162"
              },
              {
                "reference": "urn:uuid:d22f3230-dd1d-4d6d-b1f9-790f0ddbe3dd"
              },
              {
                "reference": "urn:uuid:1919d561-13fb-404a-876e-e70ef72060ce"
              },
              {
                "reference": "urn:uuid:5bfb2f59-4cee-4656-b00e-a927023d60c8"
              },
              {
                "reference": "urn:uuid:63432491-99c7-4a07-955f-d2c4effb5d08"
              }
            ],
            "code": {
              "coding": [
                {
                  "system": "http://loinc.org",
                  "code": "11450-4",
                  "display": "Problem list - Reported"
                }
              ]
            },
            "title": "Problem list"
          },
          {
            "text": {
              "status": "generated",
              "div": "<div xmlns=\"http://www.w3.org/1999/xhtml\"><table class=\"hl7__ips\"><tr><th>Medication</th><th>Since</th><th>Form</th><th>Dosage</th><th>Reason</th></tr><tr><td>Simvastatin 10 mg oral tablet</td><td><span class=\"nb\">2024-12-04</span></td><td>-</td><td>1 tablet (10 mg) by mouth once daily</td><td>Hyperlipidemia</td></tr><tr><td>Alendronic acid (as alendronate sodium) 10 mg oral tablet</td><td><span class=\"nb\">2024-11-27</span></td><td>-</td><td>1 tablet (10 mg) once daily</td><td>Osteoporosis (disorder)</td></tr><tr><td>Simvastatin 20 mg oral tablet</td><td><span class=\"nb\">2016-10-19</span></td><td>-</td><td>1 tablet (20 mg) by mouth once daily</td><td>-</td></tr><tr><td>Nitroglycerin 400 microgram/actuation sublingual spray</td><td><span class=\"nb\">2016-10-19</span></td><td>-</td><td>400 micrograms per spray, use one spray under the tongue as needed for chest pain, may repeat every 5 minutes as needed, up to 3 sprays in 15 minutes</td><td>-</td></tr><tr><td>Metoprolol tartrate (as metoprolol succinate) 100 mg prolonged-release oral tablet</td><td><span class=\"nb\">2016-10-19</span></td><td>-</td><td>1 tablet (100 mg) once daily</td><td>-</td></tr><tr><td>Clopidogrel (as clopidogrel bisulfate) 75 mg oral tablet</td><td><span class=\"nb\">2008-02-15</span></td><td>-</td><td>1 tablet (75 mg) by mouth once daily</td><td>-</td></tr><tr><td>Alteplase 100 MG Injection</td><td><span class=\"nb\">2008-02-15</span></td><td>-</td><td>100 mg IV as a single dose</td><td>-</td></tr></table></div>"
            },
            "entry": [
              {
                "reference": "urn:uuid:3249b4b5-1fb9-40a1-a7bd-3807001ec8f6"
              },
              {
                "reference": "urn:uuid:e09ce572-380c-4ed7-b3b4-6c604de7bf0d"
              },
              {
                "reference": "urn:uuid:a725062b-59ea-4568-837f-a9a033a0d696"
              },
              {
                "reference": "urn:uuid:175a19e1-2b1e-47de-98c4-63fb7743b147"
              },
              {
                "reference": "urn:uuid:0010322b-02e0-4892-8da1-323952e01649"
              },
              {
                "reference": "urn:uuid:fffe5f20-9007-4e20-813b-e6e95f161c4f"
              },
              {
                "reference": "urn:uuid:454312e7-f7c3-4463-bb3b-aa3604aeda9a"
              }
            ],
            "code": {
              "coding": [
                {
                  "system": "http://loinc.org",
                  "code": "10160-0",
                  "display": "History of Medication use Narrative"
                }
              ]
            },
            "title": "Medication list"
          },
          {
            "text": {
              "status": "generated",
              "div": "<div xmlns=\"http://www.w3.org/1999/xhtml\"><table class=\"hl7__ips\"><tr><th>Vaccine</th><th>Date</th></tr><tr><td>Influenza virus antigen only vaccine product</td><td><span class=\"nb\">27-Nov-2024</span></td></tr><tr><td>SARS-CoV-2 mRNA vaccine</td><td><span class=\"nb\">02-Jun-2021</span></td></tr><tr><td>Clostridium tetani toxoid antigen adsorbed only vaccine product</td><td><span class=\"nb\">24-Oct-2018</span></td></tr></table></div>"
            },
            "entry": [
              {
                "reference": "urn:uuid:239607ac-37e6-4b68-b3c9-4a25fd870957"
              },
              {
                "reference": "urn:uuid:7d7ae2ce-f71a-4063-9556-40a124ed4128"
              },
              {
                "reference": "urn:uuid:c4a86e52-b09e-4770-8253-a210f22d85c9"
              }
            ],
            "code": {
              "coding": [
                {
                  "system": "http://loinc.org",
                  "code": "11369-6",
                  "display": "History of Immunization note"
                }
              ]
            },
            "title": "Immunizations list"
          },
          {
            "text": {
              "status": "generated",
              "div": "<div xmlns=\"http://www.w3.org/1999/xhtml\"><table class=\"hl7__ips\"><tr><th>Procedure</th><th>Date</th><th>Reason</th></tr><tr><td>Pre-discharge assessment</td><td><span class=\"nb\">11-Jul-2021</span></td><td>-</td></tr><tr><td>Discharge from skilled nursing facility (procedure)</td><td><span class=\"nb\">11-Jul-2021</span></td><td>-</td></tr><tr><td>Professional / ancillary services care</td><td><span class=\"nb\">10-Jul-2021</span></td><td>-</td></tr><tr><td>Nursing care/supplementary surveillance</td><td><span class=\"nb\">10-Jul-2021</span></td><td>-</td></tr><tr><td>Physical therapy procedure</td><td><span class=\"nb\">07-Jul-2021</span></td><td>-</td></tr><tr><td>History AND physical examination</td><td><span class=\"nb\">06-Jul-2021</span></td><td>-</td></tr><tr><td>Pelvis X-ray</td><td><span class=\"nb\">06-Jul-2021</span></td><td>-</td></tr><tr><td>Admission to orthopedic department</td><td><span class=\"nb\">06-Jul-2021</span></td><td>Closed fracture of hip</td></tr><tr><td>Initial patient assessment</td><td><span class=\"nb\">06-Jul-2021</span></td><td>-</td></tr><tr><td>Development of individualized plan of care</td><td><span class=\"nb\">06-Jul-2021</span></td><td>-</td></tr><tr><td>Occupational therapy</td><td><span class=\"nb\">08-Mar-2020</span></td><td>-</td></tr><tr><td>Speech and language therapy regime</td><td><span class=\"nb\">05-Mar-2020</span></td><td>-</td></tr><tr><td>Radiography of humerus</td><td><span class=\"nb\">27-Feb-2020</span></td><td>-</td></tr><tr><td>Bone immobilization</td><td><span class=\"nb\">27-Feb-2020</span></td><td>Fracture of forearm</td></tr><tr><td>Postoperative procedure education</td><td><span class=\"nb\">10-Nov-2016</span></td><td>History of coronary artery bypass grafting (situation)</td></tr><tr><td>Stair-climbing test</td><td><span class=\"nb\">10-Nov-2016</span></td><td>History of coronary artery bypass grafting (situation)</td></tr><tr><td>Walking exercise test</td><td><span class=\"nb\">10-Nov-2016</span></td><td>History of coronary artery bypass grafting (situation)</td></tr><tr><td>Discharge to ward</td><td><span class=\"nb\">10-Nov-2016</span></td><td>-</td></tr><tr><td>Discharge from hospital</td><td><span class=\"nb\">10-Nov-2016</span></td><td>History of coronary artery bypass grafting (situation)</td></tr><tr><td>Electrocardiographic procedure</td><td><span class=\"nb\">09-Nov-2016</span></td><td>-</td></tr><tr><td>Transfusion of fresh frozen plasma</td><td><span class=\"nb\">09-Nov-2016</span></td><td>-</td></tr><tr><td>Plain X-ray of chest</td><td><span class=\"nb\">09-Nov-2016</span></td><td>-</td></tr><tr><td>Removal of endotracheal tube</td><td><span class=\"nb\">08-Nov-2016</span></td><td>-</td></tr></table></div>"
            },
            "entry": [
              {
                "reference": "urn:uuid:14c0fe10-c639-40c1-8ec7-3caa293e70c1"
              },
              {
                "reference": "urn:uuid:811342b4-4cf6-4984-9b8d-4678fab08042"
              },
              {
                "reference": "urn:uuid:74dd1b03-0725-4b0c-a681-5c74b50b2795"
              },
              {
                "reference": "urn:uuid:0bb7817b-0a3f-41fe-8ea4-d6f8c6a0901d"
              },
              {
                "reference": "urn:uuid:97831b32-f280-46cc-a699-5b82e737d469"
              },
              {
                "reference": "urn:uuid:3eeff230-4604-4ede-8930-b82510e2f987"
              },
              {
                "reference": "urn:uuid:d124f709-5317-443b-b661-ed3b700386c8"
              },
              {
                "reference": "urn:uuid:70b43b3d-fd9e-4a42-b74b-87148f6315c5"
              },
              {
                "reference": "urn:uuid:53929cdd-e38f-4208-81fb-a5694c21c019"
              },
              {
                "reference": "urn:uuid:f3b120a4-3463-4203-bc6d-a3d4cbd8cadb"
              },
              {
                "reference": "urn:uuid:981461f2-6362-4d21-9319-a2980add159c"
              },
              {
                "reference": "urn:uuid:b90a6093-1c76-4488-b35c-3c04c3873911"
              },
              {
                "reference": "urn:uuid:a31c9899-6026-45cd-b4bc-84f75f0892fe"
              },
              {
                "reference": "urn:uuid:c2b905ef-aff7-4906-af72-8669cc059e33"
              },
              {
                "reference": "urn:uuid:5effa65c-8097-459f-abb8-8a57fb86bdfa"
              },
              {
                "reference": "urn:uuid:9f136c1d-a495-47ea-bdb9-59baddb8f7a9"
              },
              {
                "reference": "urn:uuid:14ebf268-ba65-4787-91a1-ad54cec6b5a0"
              },
              {
                "reference": "urn:uuid:9aa1a38d-8ebb-4f38-b494-6a75524ee997"
              },
              {
                "reference": "urn:uuid:035e8003-d834-4a95-9f35-7fe2f7895e58"
              },
              {
                "reference": "urn:uuid:529ebc1f-73d7-48dc-b95b-429a7be7439e"
              },
              {
                "reference": "urn:uuid:4bd51d95-d87a-4f7b-9683-18b994a3b2d9"
              },
              {
                "reference": "urn:uuid:37eb0b2f-14bd-46f2-8220-3b96172fb62d"
              },
              {
                "reference": "urn:uuid:fca2aaca-358e-4601-8332-84363c4f652e"
              }
            ],
            "code": {
              "coding": [
                {
                  "system": "http://loinc.org",
                  "code": "47519-4",
                  "display": "History of Procedures Document"
                }
              ]
            },
            "title": "Procedure History list"
          },
          {
            "text": {
              "status": "generated",
              "div": "<div xmlns=\"http://www.w3.org/1999/xhtml\"><table class=\"hl7__ips\"><tr><th>Allergy/Intolerance</th><th>Onset Date</th><th>Status</th><th>Type</th><th>Reaction</th></tr><tr><td>Inadequate digital access affecting health care</td><td><span class=\"nb\">2025-10-22</span></td><td>active</td><td>environment</td><td></td></tr></table></div>"
            },
            "entry": [
              {
                "reference": "urn:uuid:42f8c051-de15-4f2f-8a3c-ece1c528a109"
              }
            ],
            "code": {
              "coding": [
                {
                  "system": "http://loinc.org",
                  "code": "48765-2",
                  "display": "Allergies and adverse reactions Document"
                }
              ]
            },
            "title": "Allergies and Intolerances"
          },
          {
            "text": {
              "status": "generated",
              "div": "<div xmlns=\"http://www.w3.org/1999/xhtml\"><table class=\"hl7__ips\"><tr><th>Active Planned Care / Goals</th><th>Start Date</th><th>Reason</th></tr><tr><td>Care plan</td><td><span class=\"nb\">01-Jan-1998</span></td><td>-</td></tr><tr><td>Hyperlipidemia clinical management plan</td><td><span class=\"nb\">17-Jun-1992</span></td><td>Hyperlipidemia</td></tr><tr><td><ul><li>Achieve and maintain LDL cholesterol below 70 mg/dL to reduce cardiovascular risk.</li><li>Maintain total cholesterol below 200 mg/dL.</li><li>Maintain HDL cholesterol above 50 mg/dL.</li><li>Maintain triglycerides below 150 mg/dL.</li></ul></td><td></td><td></td></tr><tr><td>Musculoskeletal care</td><td><span class=\"nb\">06-Jan-1989</span></td><td>Osteoarthritis of hip</td></tr><tr><td><ul><li>Reduce the severity of hip pain to a tolerable level for daily activities.</li><li>Increase range of motion in the affected hip to support independent ambulation.</li><li>Enable patient to perform basic activities of daily living (ADLs) such as dressing and bathing with minimal assistance.</li></ul></td><td></td><td></td></tr><tr><th>Immunization Recommendation</th><th>Due Date</th><th>Reason</th></tr><tr><td>Vaccine product containing only Influenza virus antigen (medicinal product)</td><td><span class=\"nb\">01-Oct-2025</span></td><td>Annual seasonal influenza vaccination</td></tr></table></div>"
            },
            "entry": [
              {
                "reference": "urn:uuid:10f5a749-9160-463c-bc4d-4ab8f94de878"
              },
              {
                "reference": "urn:uuid:a5b28457-1795-4f2e-a67c-c69277e97f4a"
              },
              {
                "reference": "urn:uuid:403087c3-03a4-474c-9579-c6e802905e93"
              },
              {
                "reference": "urn:uuid:d7b9f050-95b3-48ee-b0c9-f17cd6865c9f"
              }
            ],
            "code": {
              "coding": [
                {
                  "system": "http://loinc.org",
                  "code": "18776-5",
                  "display": "Plan of care note"
                }
              ]
            },
            "title": "Care Plan"
          },
          {
            "text": {
              "status": "generated",
              "div": "<div xmlns=\"http://www.w3.org/1999/xhtml\"><table class=\"hl7__ips\"><tr><th>Vital Signs</th><th>2024-11-27</th><th>2023-11-22</th></tr><tr><td>Body Height</td><td>170.6 cm</td><td>170.6 cm</td></tr><tr><td>Pain severity - 0-10 verbal numeric rating [Score] - Reported</td><td>1 {score}</td><td>2 {score}</td></tr><tr><td>Body Weight</td><td>79.7 kg</td><td>79.7 kg</td></tr><tr><td>Body mass index (BMI) [Ratio]</td><td>27.4 kg/m2</td><td>27.4 kg/m2</td></tr><tr><td>Diastolic Blood Pressure</td><td>61 mm[Hg]</td><td>64 mm[Hg]</td></tr><tr><td>Systolic Blood Pressure</td><td>132 mm[Hg]</td><td>122 mm[Hg]</td></tr><tr><td>Heart rate</td><td>82 /min</td><td>80 /min</td></tr><tr><td>Respiratory rate</td><td>16 /min</td><td>14 /min</td></tr></table></div>"
            },
            "entry": [
              {
                "reference": "urn:uuid:b85fac7f-0909-4495-8159-1bcf89133fd4"
              },
              {
                "reference": "urn:uuid:0f8f7a20-0d8c-4e3e-b50b-131ec60093cf"
              },
              {
                "reference": "urn:uuid:9b5a392d-6034-489a-9fba-707482ae35d6"
              },
              {
                "reference": "urn:uuid:a45362ef-4221-418f-8de6-f4bc6299ff2d"
              },
              {
                "reference": "urn:uuid:832912a6-f58c-4fc6-80b3-b7cbf19e8f1b"
              },
              {
                "reference": "urn:uuid:1614593f-068a-47b4-8129-3348e21bcd15"
              },
              {
                "reference": "urn:uuid:5aac31f5-beb0-4896-99e9-668fc33295d6"
              },
              {
                "reference": "urn:uuid:3ce60e60-aab0-477f-b5be-0e9a1edf00df"
              },
              {
                "reference": "urn:uuid:35e68fd3-253b-4a57-9b6e-be0cc96d30e5"
              },
              {
                "reference": "urn:uuid:c4fef15e-9f5e-4e1d-bf96-3b84bfda17d5"
              },
              {
                "reference": "urn:uuid:cd6fc11a-5d5a-4900-9669-e9d6cbd203c5"
              },
              {
                "reference": "urn:uuid:ede7beca-4add-4a4d-904f-b82182ab722c"
              },
              {
                "reference": "urn:uuid:71523ccd-3f8a-434e-9314-ce759ddc8bc1"
              },
              {
                "reference": "urn:uuid:4454d224-399c-40fc-bc5b-9dbc63f88197"
              },
              {
                "reference": "urn:uuid:59632b1b-2937-4cb2-a919-be59c68989a4"
              },
              {
                "reference": "urn:uuid:7a18e4ea-9ac2-4309-ad58-5c3e269bde36"
              }
            ],
            "code": {
              "coding": [
                {
                  "system": "http://loinc.org",
                  "code": "8716-3",
                  "display": "Vital signs note"
                }
              ]
            },
            "title": "Vital Signs"
          },
          {
            "text": {
              "status": "generated",
              "div": "<div xmlns=\"http://www.w3.org/1999/xhtml\"><table class=\"hl7__ips\"><table class=\"hl7__ips\"><thead><tr><th>Recent Lab Observations</th><th>04-DEC-2024</th><th>Reference&#xA0;Range</th><th>Unit</th></tr></thead><tbody><tr><td>Glucose [Mass/volume] in Blood</td><td><strong>64.9 L</strong></td><td>70 - 140</td><td>mg/dL</td></tr><tr><td>Urea nitrogen [Mass/volume] in Blood</td><td>15.3</td><td>7 - 25</td><td>mg/dL</td></tr><tr><td>Creatinine [Mass/volume] in Blood</td><td><strong>3.4 H</strong></td><td>0.6 - 1.1</td><td>mg/dL</td></tr><tr><td>Calcium [Mass/volume] in Blood</td><td>9.8</td><td>8.6 - 10.4</td><td>mg/dL</td></tr><tr><td>Sodium [Moles/volume] in Blood</td><td>142.2</td><td>135 - 145</td><td>mmol/L</td></tr><tr><td>Potassium [Moles/volume] in Blood</td><td>4.5</td><td>3.5 - 5.3</td><td>mmol/L</td></tr><tr><td>Chloride [Moles/volume] in Blood</td><td><strong>110.2 H</strong></td><td>98 - 108</td><td>mmol/L</td></tr><tr><td>Carbon dioxide, total [Moles/volume] in Blood</td><td><strong>21.2 L</strong></td><td>22 - 32</td><td>mmol/L</td></tr><tr><td>Protein [Mass/volume] in Serum or Plasma</td><td><strong>6.1 L</strong></td><td>6.6 - 8.3</td><td>g/dL</td></tr><tr><td>Albumin [Mass/volume] in Serum or Plasma</td><td>4.4</td><td>3.5 - 5.5</td><td>g/dL</td></tr><tr><td>Globulin [Mass/volume] in Serum by calculation</td><td>3.0</td><td>2.2 - 3.7</td><td>g/L</td></tr><tr><td>Bilirubin.total [Mass/volume] in Serum or Plasma</td><td>0.6</td><td>0.3 - 1.2</td><td>mg/dL</td></tr><tr><td>Alkaline phosphatase [Enzymatic activity/volume] in Serum or Plasma</td><td>87.8</td><td>40 - 130</td><td>U/L</td></tr><tr><td>Alanine aminotransferase [Enzymatic activity/volume] in Serum or Plasma</td><td>45.4</td><td>7 - 55</td><td>U/L</td></tr><tr><td>Aspartate aminotransferase [Enzymatic activity/volume] in Serum or Plasma</td><td>33.5</td><td>10 - 40</td><td>U/L</td></tr><tr><td>Cholesterol [Mass/volume] in Serum or Plasma</td><td>199.8</td><td>125 - 200</td><td>mg/dL</td></tr><tr><td>Triglyceride [Mass/volume] in Serum or Plasma</td><td>110.2</td><td>10 - 175</td><td>mg/dL</td></tr><tr><td>Cholesterol in LDL [Mass/volume] in Serum or Plasma by Direct assay</td><td><strong>140.2 H</strong></td><td>0 - 130</td><td>mg/dL</td></tr><tr><td>Cholesterol in HDL [Mass/volume] in Serum or Plasma</td><td><strong>34.0 L</strong></td><td>50 - 100</td><td>mg/dL</td></tr></tbody></table></table></div>"
            },
            "entry": [
              {
                "reference": "urn:uuid:56fbd016-e053-4761-906f-cf62aafe2927"
              },
              {
                "reference": "urn:uuid:ed6f7206-e52c-48a2-80ac-cda827ece1d2"
              },
              {
                "reference": "urn:uuid:abc10b7d-9d28-4616-b2e1-581ee8e132da"
              },
              {
                "reference": "urn:uuid:2b5deb1a-d22f-4e0d-82a2-6f4ec371a14e"
              },
              {
                "reference": "urn:uuid:8edd1563-df6d-4a5d-a97c-70b98dd9d183"
              },
              {
                "reference": "urn:uuid:20b280f0-4cf2-4396-852f-03f046477cba"
              },
              {
                "reference": "urn:uuid:f1d3e9ff-b1c9-4fa5-986a-89a4a9e43b90"
              },
              {
                "reference": "urn:uuid:6cc69f43-ad57-403c-9e94-0af7aa3e8fc7"
              },
              {
                "reference": "urn:uuid:d1e02577-5d7e-488c-9642-ad9bba8229d8"
              },
              {
                "reference": "urn:uuid:671f9e0e-081b-4744-9593-fb9727fa66b7"
              },
              {
                "reference": "urn:uuid:c4e5557b-32ad-455c-848c-f68b7261cac0"
              },
              {
                "reference": "urn:uuid:f6b53785-34a4-48e4-a59b-16f6b495f231"
              },
              {
                "reference": "urn:uuid:5adef732-cec6-49d8-883d-34f6bcf900b1"
              },
              {
                "reference": "urn:uuid:702a6e5c-f8e1-4909-80ed-17a10b0121db"
              },
              {
                "reference": "urn:uuid:b52eb2bb-f20d-4ff7-999f-0bf11ea69ae5"
              },
              {
                "reference": "urn:uuid:88b46320-bfd7-4907-bca5-e7af2b0e5fff"
              },
              {
                "reference": "urn:uuid:61ffb09f-9ca0-4ce5-b22a-34495c2a83ea"
              },
              {
                "reference": "urn:uuid:10c9e688-9da1-4093-9141-85d1599753d4"
              },
              {
                "reference": "urn:uuid:4a9db199-782d-45fc-b08a-dcc1e6067c59"
              }
            ],
            "code": {
              "coding": [
                {
                  "system": "http://loinc.org",
                  "code": "30954-2",
                  "display": "Relevant diagnostic tests/laboratory data note"
                }
              ]
            },
            "title": "Relevant diagnostic tests/laboratory data"
          },
          {
            "text": {
              "status": "generated",
              "div": "<div xmlns=\"http://www.w3.org/1999/xhtml\"><table class=\"hl7__ips\"><tr><th>Device</th><th>Date (since)</th></tr><tr><td>Walker (physical object)</td><td><span class=\"nb\">06-Jan-1989</span></td></tr><tr><td>Home nebulizer (physical object)</td><td><span class=\"nb\">20-Sep-1938</span></td></tr></table></div>"
            },
            "entry": [
              {
                "reference": "urn:uuid:0de7d1c3-b31e-4ee9-82ba-95aacce73026"
              },
              {
                "reference": "urn:uuid:e01f2a69-21e5-4745-93dc-7086c1dc6f0a"
              }
            ],
            "code": {
              "coding": [
                {
                  "system": "http://loinc.org",
                  "code": "46264-8",
                  "display": "History of medical device use"
                }
              ]
            },
            "title": "Device Use"
          }
        ],
        "title": "European Patient Summary",
        "status": "final",
        "subject": {
          "reference": "urn:uuid:e2677183-346a-4e54-a73f-3b765d2dd339",
          "display": "Ludmila Vávrová"
        },
        "custodian": {
          "reference": "urn:uuid:425dc6fb-5b4f-47b9-b987-b11130f83528"
        },
        "date": "2024-12-04",
        "confidentiality": "N"
      }
    },
    {
      "fullUrl": "urn:uuid:e2677183-346a-4e54-a73f-3b765d2dd339",
      "resource": {
        "resourceType": "Patient",
        "id": "e2677183-346a-4e54-a73f-3b765d2dd339",
        "meta": {
          "security": [
            {
              "system": "http://terminology.hl7.org/CodeSystem/v3-ActReason",
              "code": "HTEST"
            },
            {
              "system": "http://terminology.hl7.org/CodeSystem/v3-ActReason",
              "code": "TRAIN"
            }
          ],
          "tag": [
            {
              "system": "https://synderai.net/fhir/CodeSystem/tags",
              "code": "synthetic",
              "display": "SYNDERAI Synthetic data"
            }
          ],
          "profile": [
            "http://hl7.eu/fhir/eps/StructureDefinition/patient-eu-eps"
          ]
        },
        "identifier": [
          {
            "type": {
              "coding": [
                {
                  "code": "PT",
                  "system": "http://terminology.hl7.org/CodeSystem/v2-0203"
                }
              ]
            },
            "system": "http://ec.europa.eu/identifier/eci",
            "value": "1992-540676-1"
          },
          {
            "type": {
              "coding": [
                {
                  "code": "MR",
                  "system": "http://terminology.hl7.org/CodeSystem/v2-0203"
                }
              ]
            },
            "system": "http://local.setting.eu/identifier",
            "value": "7c533aae-6e7f-89aa-dfdc-8ff900a5990b"
          }
        ],
        "name": [
          {
            "family": "Vávrová"
          },
          {
            "given": [
              "Ludmila"
            ]
          },
          {
            "text": "Ludmila Vávrová"
          }
        ],
        "address": [
          {
            "line": [
              "Šárovo Kolo 116"
            ],
            "use": "home",
            "type": "physical",
            "postalCode": "29471",
            "city": "Bakov nad Jizerou",
            "country": "Czechia"
          }
        ],
        "telecom": [
          {
            "system": "phone",
            "value": "00420 607 610 889"
          }
        ],
        "extension": [
          {
            "url": "http://hl7.org/fhir/StructureDefinition/patient-nationality",
            "valueCodeableConcept": {
              "coding": [
                {
                  "code": "CZ",
                  "system": "http://hl7.org/fhir/ValueSet/country"
                }
              ]
            }
          }
        ],
        "text": {
          "status": "generated",
          "div": "<div xmlns=\"http://www.w3.org/1999/xhtml\"><table class=\"hl7__ips\"><tr><td>Ludmila Vávrová</td><td>female</td><td>08-Aug-1940</td></tr></table></div>"
        },
        "gender": "female",
        "birthDate": "1940-08-08"
      }
    },
    {
      "fullUrl": "urn:uuid:93226f54-a095-40ed-b724-6205080f50d4",
      "resource": {
        "resourceType": "PractitionerRole",
        "id": "93226f54-a095-40ed-b724-6205080f50d4",
        "meta": {
          "profile": [
            "http://hl7.eu/fhir/base/StructureDefinition/practitionerRole-eu"
          ]
        },
        "text": {
          "status": "generated",
          "div": "<div xmlns=\"http://www.w3.org/1999/xhtml\"><table class=\"hl7__ips\">Provider Role Id 93226f54-a095-40ed-b724-6205080f50d4</table></div>"
        },
        "practitioner": {
          "reference": "urn:uuid:0b87f678-803d-4b74-bb82-22d71c470166"
        },
        "organization": {
          "reference": "urn:uuid:425dc6fb-5b4f-47b9-b987-b11130f83528"
        }
      }
    },
    {
      "fullUrl": "urn:uuid:0b87f678-803d-4b74-bb82-22d71c470166",
      "resource": {
        "resourceType": "Practitioner",
        "id": "0b87f678-803d-4b74-bb82-22d71c470166",
        "meta": {
          "profile": [
            "http://hl7.eu/fhir/base/StructureDefinition/practitioner-eu"
          ]
        },
        "name": [
          {
            "prefix": [
              "Dr."
            ],
            "given": [
              "Hel"
            ],
            "family": "Ping"
          }
        ],
        "text": {
          "status": "generated",
          "div": "<div xmlns=\"http://www.w3.org/1999/xhtml\"><table class=\"hl7__ips\">Dr. Hel Ping</table></div>"
        }
      }
    },
    {
      "fullUrl": "urn:uuid:425dc6fb-5b4f-47b9-b987-b11130f83528",
      "resource": {
        "resourceType": "Organization",
        "id": "425dc6fb-5b4f-47b9-b987-b11130f83528",
        "meta": {
          "profile": [
            "http://hl7.eu/fhir/base/StructureDefinition/organization-eu"
          ]
        },
        "identifier": [
          {
            "assigner": {
              "display": "HL7 Europe"
            },
            "system": "urn:oid:2.16.840.1.113883.2.51.999",
            "value": "a49a6dbc-262b-461a-a462-c14d6713b647"
          }
        ],
        "address": [
          {
            "city": "Kosmonosy",
            "postalCode": "293 06",
            "country": "Czechia"
          }
        ],
        "text": {
          "status": "generated",
          "div": "<div xmlns=\"http://www.w3.org/1999/xhtml\"><table class=\"hl7__ips\">Psychiatrická nemocnice Kosmonosy</table></div>"
        },
        "name": "Psychiatrická nemocnice Kosmonosy"
      }
    },
    {
      "fullUrl": "urn:uuid:2d0090a3-57d7-4ac8-8549-32b562c3fc8b",
      "resource": {
        "resourceType": "Condition",
        "id": "2d0090a3-57d7-4ac8-8549-32b562c3fc8b",
        "meta": {
          "profile": [
            "http://hl7.org/fhir/uv/ips/StructureDefinition/Condition-uv-ips"
          ]
        },
        "category": [
          {
            "coding": [
              {
                "code": "problem-list-item",
                "system": "http://terminology.hl7.org/CodeSystem/condition-category",
                "display": "Problem List Item"
              }
            ]
          }
        ],
        "code": {
          "coding": [
            {
              "code": "414545008",
              "system": "http://snomed.info/sct",
              "display": "Ischemic heart disease (disorder)"
            }
          ],
          "text": "Ischemic heart disease"
        },
        "text": {
          "status": "generated",
          "div": "<div xmlns=\"http://www.w3.org/1999/xhtml\"><table class=\"hl7__ips\"><tr><td>Ischemic heart disease</td><td><span class=\"nb\">12-Oct-2016</span></td><td>active</td></tr></table></div>"
        },
        "onsetDateTime": "2016-10-12",
        "subject": {
          "reference": "urn:uuid:",
          "display": "Ludmila Vávrová"
        },
        "asserter": {
          "reference": "urn:uuid:",
          "display": "Psychiatrická nemocnice Kosmonosy"
        }
      }
    },
    {
      "fullUrl": "urn:uuid:508101fb-9bcb-47b9-b991-c570622b3825",
      "resource": {
        "resourceType": "Condition",
        "id": "508101fb-9bcb-47b9-b991-c570622b3825",
        "meta": {
          "profile": [
            "http://hl7.org/fhir/uv/ips/StructureDefinition/Condition-uv-ips"
          ]
        },
        "category": [
          {
            "coding": [
              {
                "code": "problem-list-item",
                "system": "http://terminology.hl7.org/CodeSystem/condition-category",
                "display": "Problem List Item"
              }
            ]
          }
        ],
        "code": {
          "coding": [
            {
              "code": "64859006",
              "system": "http://snomed.info/sct",
              "display": "Osteoporosis (disorder)"
            }
          ],
          "text": "Osteoporosis"
        },
        "text": {
          "status": "generated",
          "div": "<div xmlns=\"http://www.w3.org/1999/xhtml\"><table class=\"hl7__ips\"><tr><td>Osteoporosis</td><td><span class=\"nb\">22-Aug-2007</span></td><td>active</td></tr></table></div>"
        },
        "onsetDateTime": "2007-08-22",
        "subject": {
          "reference": "urn:uuid:",
          "display": "Ludmila Vávrová"
        },
        "asserter": {
          "reference": "urn:uuid:",
          "display": "Psychiatrická nemocnice Kosmonosy"
        }
      }
    },
    {
      "fullUrl": "urn:uuid:d4285eee-92d7-4959-bfc1-79a47646a8f9",
      "resource": {
        "resourceType": "Condition",
        "id": "d4285eee-92d7-4959-bfc1-79a47646a8f9",
        "meta": {
          "profile": [
            "http://hl7.org/fhir/uv/ips/StructureDefinition/Condition-uv-ips"
          ]
        },
        "category": [
          {
            "coding": [
              {
                "code": "problem-list-item",
                "system": "http://terminology.hl7.org/CodeSystem/condition-category",
                "display": "Problem List Item"
              }
            ]
          }
        ],
        "code": {
          "coding": [
            {
              "code": "6525002",
              "system": "http://snomed.info/sct",
              "display": "Dependent drug abuse (disorder)"
            }
          ],
          "text": "Dependent drug abuse"
        },
        "text": {
          "status": "generated",
          "div": "<div xmlns=\"http://www.w3.org/1999/xhtml\"><table class=\"hl7__ips\"><tr><td>Dependent drug abuse</td><td><span class=\"nb\">18-Mar-1999</span></td><td>active</td></tr></table></div>"
        },
        "onsetDateTime": "1999-03-18",
        "subject": {
          "reference": "urn:uuid:",
          "display": "Ludmila Vávrová"
        },
        "asserter": {
          "reference": "urn:uuid:",
          "display": "Psychiatrická nemocnice Kosmonosy"
        }
      }
    },
    {
      "fullUrl": "urn:uuid:f66f8d19-41dd-487e-8149-151c134d8162",
      "resource": {
        "resourceType": "Condition",
        "id": "f66f8d19-41dd-487e-8149-151c134d8162",
        "meta": {
          "profile": [
            "http://hl7.org/fhir/uv/ips/StructureDefinition/Condition-uv-ips"
          ]
        },
        "category": [
          {
            "coding": [
              {
                "code": "problem-list-item",
                "system": "http://terminology.hl7.org/CodeSystem/condition-category",
                "display": "Problem List Item"
              }
            ]
          }
        ],
        "code": {
          "coding": [
            {
              "code": "55822004",
              "system": "http://snomed.info/sct",
              "display": "Hyperlipidemia (disorder)"
            }
          ],
          "text": "Hyperlipidemia"
        },
        "text": {
          "status": "generated",
          "div": "<div xmlns=\"http://www.w3.org/1999/xhtml\"><table class=\"hl7__ips\"><tr><td>Hyperlipidemia</td><td><span class=\"nb\">27-May-1992</span></td><td>active</td></tr></table></div>"
        },
        "onsetDateTime": "1992-05-27",
        "subject": {
          "reference": "urn:uuid:",
          "display": "Ludmila Vávrová"
        },
        "asserter": {
          "reference": "urn:uuid:",
          "display": "Psychiatrická nemocnice Kosmonosy"
        }
      }
    },
    {
      "fullUrl": "urn:uuid:d22f3230-dd1d-4d6d-b1f9-790f0ddbe3dd",
      "resource": {
        "resourceType": "Condition",
        "id": "d22f3230-dd1d-4d6d-b1f9-790f0ddbe3dd",
        "meta": {
          "profile": [
            "http://hl7.org/fhir/uv/ips/StructureDefinition/Condition-uv-ips"
          ]
        },
        "category": [
          {
            "coding": [
              {
                "code": "problem-list-item",
                "system": "http://terminology.hl7.org/CodeSystem/condition-category",
                "display": "Problem List Item"
              }
            ]
          }
        ],
        "code": {
          "coding": [
            {
              "code": "124171000119105",
              "system": "http://snomed.info/sct",
              "display": "Chronic intractable migraine without aura (disorder)"
            }
          ],
          "text": "Chronic intractable migraine without aura"
        },
        "text": {
          "status": "generated",
          "div": "<div xmlns=\"http://www.w3.org/1999/xhtml\"><table class=\"hl7__ips\"><tr><td>Chronic intractable migraine without aura</td><td><span class=\"nb\">04-Nov-1990</span></td><td>active</td></tr></table></div>"
        },
        "onsetDateTime": "1990-11-04",
        "subject": {
          "reference": "urn:uuid:",
          "display": "Ludmila Vávrová"
        },
        "asserter": {
          "reference": "urn:uuid:",
          "display": "Psychiatrická nemocnice Kosmonosy"
        }
      }
    },
    {
      "fullUrl": "urn:uuid:1919d561-13fb-404a-876e-e70ef72060ce",
      "resource": {
        "resourceType": "Condition",
        "id": "1919d561-13fb-404a-876e-e70ef72060ce",
        "meta": {
          "profile": [
            "http://hl7.org/fhir/uv/ips/StructureDefinition/Condition-uv-ips"
          ]
        },
        "category": [
          {
            "coding": [
              {
                "code": "problem-list-item",
                "system": "http://terminology.hl7.org/CodeSystem/condition-category",
                "display": "Problem List Item"
              }
            ]
          }
        ],
        "code": {
          "coding": [
            {
              "code": "196416002",
              "system": "http://snomed.info/sct",
              "display": "Impacted molars (disorder)"
            }
          ],
          "text": "Impacted molars"
        },
        "text": {
          "status": "generated",
          "div": "<div xmlns=\"http://www.w3.org/1999/xhtml\"><table class=\"hl7__ips\"><tr><td>Impacted molars</td><td><span class=\"nb\">22-Aug-1990</span></td><td>active</td></tr></table></div>"
        },
        "onsetDateTime": "1990-08-22",
        "subject": {
          "reference": "urn:uuid:",
          "display": "Ludmila Vávrová"
        },
        "asserter": {
          "reference": "urn:uuid:",
          "display": "Psychiatrická nemocnice Kosmonosy"
        }
      }
    },
    {
      "fullUrl": "urn:uuid:5bfb2f59-4cee-4656-b00e-a927023d60c8",
      "resource": {
        "resourceType": "Condition",
        "id": "5bfb2f59-4cee-4656-b00e-a927023d60c8",
        "meta": {
          "profile": [
            "http://hl7.org/fhir/uv/ips/StructureDefinition/Condition-uv-ips"
          ]
        },
        "category": [
          {
            "coding": [
              {
                "code": "problem-list-item",
                "system": "http://terminology.hl7.org/CodeSystem/condition-category",
                "display": "Problem List Item"
              }
            ]
          }
        ],
        "code": {
          "coding": [
            {
              "code": "239872002",
              "system": "http://snomed.info/sct",
              "display": "Osteoarthritis of hip (disorder)"
            }
          ],
          "text": "Osteoarthritis of hip"
        },
        "text": {
          "status": "generated",
          "div": "<div xmlns=\"http://www.w3.org/1999/xhtml\"><table class=\"hl7__ips\"><tr><td>Osteoarthritis of hip</td><td><span class=\"nb\">06-Jan-1989</span></td><td>active</td></tr></table></div>"
        },
        "onsetDateTime": "1989-01-06",
        "subject": {
          "reference": "urn:uuid:",
          "display": "Ludmila Vávrová"
        },
        "asserter": {
          "reference": "urn:uuid:",
          "display": "Psychiatrická nemocnice Kosmonosy"
        }
      }
    },
    {
      "fullUrl": "urn:uuid:63432491-99c7-4a07-955f-d2c4effb5d08",
      "resource": {
        "resourceType": "Condition",
        "id": "63432491-99c7-4a07-955f-d2c4effb5d08",
        "meta": {
          "profile": [
            "http://hl7.org/fhir/uv/ips/StructureDefinition/Condition-uv-ips"
          ]
        },
        "category": [
          {
            "coding": [
              {
                "code": "problem-list-item",
                "system": "http://terminology.hl7.org/CodeSystem/condition-category",
                "display": "Problem List Item"
              }
            ]
          }
        ],
        "code": {
          "coding": [
            {
              "code": "40055000",
              "system": "http://snomed.info/sct",
              "display": "Chronic sinusitis (disorder)"
            }
          ],
          "text": "Chronic sinusitis"
        },
        "text": {
          "status": "generated",
          "div": "<div xmlns=\"http://www.w3.org/1999/xhtml\"><table class=\"hl7__ips\"><tr><td>Chronic sinusitis</td><td><span class=\"nb\">20-Sep-1938</span></td><td>active</td></tr></table></div>"
        },
        "onsetDateTime": "1938-09-20",
        "subject": {
          "reference": "urn:uuid:",
          "display": "Ludmila Vávrová"
        },
        "asserter": {
          "reference": "urn:uuid:",
          "display": "Psychiatrická nemocnice Kosmonosy"
        }
      }
    },
    {
      "fullUrl": "urn:uuid:7e4aa8f6-23f7-4e20-9bf4-b6a6d790e159",
      "resource": {
        "resourceType": "Condition",
        "id": "7e4aa8f6-23f7-4e20-9bf4-b6a6d790e159",
        "meta": {
          "profile": [
            "http://hl7.org/fhir/uv/ips/StructureDefinition/Condition-uv-ips"
          ]
        },
        "category": [
          {
            "coding": [
              {
                "code": "problem-list-item",
                "system": "http://terminology.hl7.org/CodeSystem/condition-category",
                "display": "Problem List Item"
              }
            ]
          }
        ],
        "code": {
          "coding": [
            {
              "code": "55680006",
              "system": "http://snomed.info/sct",
              "display": "Drug overdose (disorder)"
            }
          ],
          "text": "Drug overdose"
        },
        "text": {
          "status": "generated",
          "div": "<div xmlns=\"http://www.w3.org/1999/xhtml\"><table class=\"hl7__ips\"><tr><td><span class=\"grayedout\">Drug overdose</span></td><td><span class=\"nb\">08-Nov-2022 - 09-Nov-2022</span></td><td><span class=\"grayedout\">inactive</span></td></tr></table></div>"
        },
        "onsetDateTime": "2022-11-08",
        "abatementDateTime": "2022-11-09",
        "subject": {
          "reference": "urn:uuid:",
          "display": "Ludmila Vávrová"
        },
        "asserter": {
          "reference": "urn:uuid:",
          "display": "Psychiatrická nemocnice Kosmonosy"
        }
      }
    },
    {
      "fullUrl": "urn:uuid:56b7df0d-d535-47b2-9d49-f8d7aa01dae4",
      "resource": {
        "resourceType": "Condition",
        "id": "56b7df0d-d535-47b2-9d49-f8d7aa01dae4",
        "meta": {
          "profile": [
            "http://hl7.org/fhir/uv/ips/StructureDefinition/Condition-uv-ips"
          ]
        },
        "category": [
          {
            "coding": [
              {
                "code": "problem-list-item",
                "system": "http://terminology.hl7.org/CodeSystem/condition-category",
                "display": "Problem List Item"
              }
            ]
          }
        ],
        "code": {
          "coding": [
            {
              "code": "55680006",
              "system": "http://snomed.info/sct",
              "display": "Drug overdose (disorder)"
            }
          ],
          "text": "Drug overdose"
        },
        "text": {
          "status": "generated",
          "div": "<div xmlns=\"http://www.w3.org/1999/xhtml\"><table class=\"hl7__ips\"><tr><td><span class=\"grayedout\">Drug overdose</span></td><td><span class=\"nb\">17-Nov-2021 - 17-Nov-2021</span></td><td><span class=\"grayedout\">inactive</span></td></tr></table></div>"
        },
        "onsetDateTime": "2021-11-17",
        "abatementDateTime": "2021-11-17",
        "subject": {
          "reference": "urn:uuid:",
          "display": "Ludmila Vávrová"
        },
        "asserter": {
          "reference": "urn:uuid:",
          "display": "Psychiatrická nemocnice Kosmonosy"
        }
      }
    },
    {
      "fullUrl": "urn:uuid:445dbb86-e428-45b2-bb9d-2cba515f891e",
      "resource": {
        "resourceType": "Condition",
        "id": "445dbb86-e428-45b2-bb9d-2cba515f891e",
        "meta": {
          "profile": [
            "http://hl7.org/fhir/uv/ips/StructureDefinition/Condition-uv-ips"
          ]
        },
        "category": [
          {
            "coding": [
              {
                "code": "problem-list-item",
                "system": "http://terminology.hl7.org/CodeSystem/condition-category",
                "display": "Problem List Item"
              }
            ]
          }
        ],
        "code": {
          "coding": [
            {
              "code": "195662009",
              "system": "http://snomed.info/sct",
              "display": "Acute viral pharyngitis (disorder)"
            }
          ],
          "text": "Acute viral pharyngitis"
        },
        "text": {
          "status": "generated",
          "div": "<div xmlns=\"http://www.w3.org/1999/xhtml\"><table class=\"hl7__ips\"><tr><td><span class=\"grayedout\">Acute viral pharyngitis</span></td><td><span class=\"nb\">10-Aug-2021 - 20-Aug-2021</span></td><td><span class=\"grayedout\">inactive</span></td></tr></table></div>"
        },
        "onsetDateTime": "2021-08-10",
        "abatementDateTime": "2021-08-20",
        "subject": {
          "reference": "urn:uuid:",
          "display": "Ludmila Vávrová"
        },
        "asserter": {
          "reference": "urn:uuid:",
          "display": "Psychiatrická nemocnice Kosmonosy"
        }
      }
    },
    {
      "fullUrl": "urn:uuid:24ace141-cd99-4099-8282-4a0250dd576f",
      "resource": {
        "resourceType": "Condition",
        "id": "24ace141-cd99-4099-8282-4a0250dd576f",
        "meta": {
          "profile": [
            "http://hl7.org/fhir/uv/ips/StructureDefinition/Condition-uv-ips"
          ]
        },
        "category": [
          {
            "coding": [
              {
                "code": "problem-list-item",
                "system": "http://terminology.hl7.org/CodeSystem/condition-category",
                "display": "Problem List Item"
              }
            ]
          }
        ],
        "code": {
          "coding": [
            {
              "code": "125605004",
              "system": "http://snomed.info/sct",
              "display": "Fracture of bone (disorder)"
            }
          ],
          "text": "Fracture of bone"
        },
        "text": {
          "status": "generated",
          "div": "<div xmlns=\"http://www.w3.org/1999/xhtml\"><table class=\"hl7__ips\"><tr><td><span class=\"grayedout\">Fracture of bone</span></td><td><span class=\"nb\">06-Jul-2021 - 25-Aug-2021</span></td><td><span class=\"grayedout\">inactive</span></td></tr></table></div>"
        },
        "onsetDateTime": "2021-07-06",
        "abatementDateTime": "2021-08-25",
        "subject": {
          "reference": "urn:uuid:",
          "display": "Ludmila Vávrová"
        },
        "asserter": {
          "reference": "urn:uuid:",
          "display": "Psychiatrická nemocnice Kosmonosy"
        }
      }
    },
    {
      "fullUrl": "urn:uuid:5ef29c3d-cc42-432e-9517-c2143abeef85",
      "resource": {
        "resourceType": "Condition",
        "id": "5ef29c3d-cc42-432e-9517-c2143abeef85",
        "meta": {
          "profile": [
            "http://hl7.org/fhir/uv/ips/StructureDefinition/Condition-uv-ips"
          ]
        },
        "category": [
          {
            "coding": [
              {
                "code": "problem-list-item",
                "system": "http://terminology.hl7.org/CodeSystem/condition-category",
                "display": "Problem List Item"
              }
            ]
          }
        ],
        "code": {
          "coding": [
            {
              "code": "359817006",
              "system": "http://snomed.info/sct",
              "display": "Closed fracture of hip (disorder)"
            }
          ],
          "text": "Closed fracture of hip"
        },
        "text": {
          "status": "generated",
          "div": "<div xmlns=\"http://www.w3.org/1999/xhtml\"><table class=\"hl7__ips\"><tr><td><span class=\"grayedout\">Closed fracture of hip</span></td><td><span class=\"nb\">06-Jul-2021 - 25-Aug-2021</span></td><td><span class=\"grayedout\">inactive</span></td></tr></table></div>"
        },
        "onsetDateTime": "2021-07-06",
        "abatementDateTime": "2021-08-25",
        "subject": {
          "reference": "urn:uuid:",
          "display": "Ludmila Vávrová"
        },
        "asserter": {
          "reference": "urn:uuid:",
          "display": "Psychiatrická nemocnice Kosmonosy"
        }
      }
    },
    {
      "fullUrl": "urn:uuid:f76a8474-9da4-429b-a90d-074b1f00344a",
      "resource": {
        "resourceType": "Condition",
        "id": "f76a8474-9da4-429b-a90d-074b1f00344a",
        "meta": {
          "profile": [
            "http://hl7.org/fhir/uv/ips/StructureDefinition/Condition-uv-ips"
          ]
        },
        "category": [
          {
            "coding": [
              {
                "code": "problem-list-item",
                "system": "http://terminology.hl7.org/CodeSystem/condition-category",
                "display": "Problem List Item"
              }
            ]
          }
        ],
        "code": {
          "coding": [
            {
              "code": "443165006",
              "system": "http://snomed.info/sct",
              "display": "Osteoporotic fracture of bone (disorder)"
            }
          ],
          "text": "Osteoporotic fracture"
        },
        "text": {
          "status": "generated",
          "div": "<div xmlns=\"http://www.w3.org/1999/xhtml\"><table class=\"hl7__ips\"><tr><td><span class=\"grayedout\">Osteoporotic fracture</span></td><td><span class=\"nb\">06-Jul-2021 - 25-Aug-2021</span></td><td><span class=\"grayedout\">inactive</span></td></tr></table></div>"
        },
        "onsetDateTime": "2021-07-06",
        "abatementDateTime": "2021-08-25",
        "subject": {
          "reference": "urn:uuid:",
          "display": "Ludmila Vávrová"
        },
        "asserter": {
          "reference": "urn:uuid:",
          "display": "Psychiatrická nemocnice Kosmonosy"
        }
      }
    },
    {
      "fullUrl": "urn:uuid:47ac3a42-6515-4918-baca-792a0b97b281",
      "resource": {
        "resourceType": "Condition",
        "id": "47ac3a42-6515-4918-baca-792a0b97b281",
        "meta": {
          "profile": [
            "http://hl7.org/fhir/uv/ips/StructureDefinition/Condition-uv-ips"
          ]
        },
        "category": [
          {
            "coding": [
              {
                "code": "problem-list-item",
                "system": "http://terminology.hl7.org/CodeSystem/condition-category",
                "display": "Problem List Item"
              }
            ]
          }
        ],
        "code": {
          "coding": [
            {
              "code": "195662009",
              "system": "http://snomed.info/sct",
              "display": "Acute viral pharyngitis (disorder)"
            }
          ],
          "text": "Acute viral pharyngitis"
        },
        "text": {
          "status": "generated",
          "div": "<div xmlns=\"http://www.w3.org/1999/xhtml\"><table class=\"hl7__ips\"><tr><td><span class=\"grayedout\">Acute viral pharyngitis</span></td><td><span class=\"nb\">31-Mar-2021 - 11-Apr-2021</span></td><td><span class=\"grayedout\">inactive</span></td></tr></table></div>"
        },
        "onsetDateTime": "2021-03-31",
        "abatementDateTime": "2021-04-11",
        "subject": {
          "reference": "urn:uuid:",
          "display": "Ludmila Vávrová"
        },
        "asserter": {
          "reference": "urn:uuid:",
          "display": "Psychiatrická nemocnice Kosmonosy"
        }
      }
    },
    {
      "fullUrl": "urn:uuid:cfb60d67-a5a0-44c1-a0e0-002b5b87613d",
      "resource": {
        "resourceType": "Condition",
        "id": "cfb60d67-a5a0-44c1-a0e0-002b5b87613d",
        "meta": {
          "profile": [
            "http://hl7.org/fhir/uv/ips/StructureDefinition/Condition-uv-ips"
          ]
        },
        "category": [
          {
            "coding": [
              {
                "code": "problem-list-item",
                "system": "http://terminology.hl7.org/CodeSystem/condition-category",
                "display": "Problem List Item"
              }
            ]
          }
        ],
        "code": {
          "coding": [
            {
              "code": "65966004",
              "system": "http://snomed.info/sct",
              "display": "Fracture of forearm (disorder)"
            }
          ],
          "text": "Fracture of forearm"
        },
        "text": {
          "status": "generated",
          "div": "<div xmlns=\"http://www.w3.org/1999/xhtml\"><table class=\"hl7__ips\"><tr><td><span class=\"grayedout\">Fracture of forearm</span></td><td><span class=\"nb\">27-Feb-2020 - 28-Jun-2020</span></td><td><span class=\"grayedout\">inactive</span></td></tr></table></div>"
        },
        "onsetDateTime": "2020-02-27",
        "abatementDateTime": "2020-06-28",
        "subject": {
          "reference": "urn:uuid:",
          "display": "Ludmila Vávrová"
        },
        "asserter": {
          "reference": "urn:uuid:",
          "display": "Psychiatrická nemocnice Kosmonosy"
        }
      }
    },
    {
      "fullUrl": "urn:uuid:b81ad36b-3ccd-433a-b6a4-f3e5a38e1f9a",
      "resource": {
        "resourceType": "Condition",
        "id": "b81ad36b-3ccd-433a-b6a4-f3e5a38e1f9a",
        "meta": {
          "profile": [
            "http://hl7.org/fhir/uv/ips/StructureDefinition/Condition-uv-ips"
          ]
        },
        "category": [
          {
            "coding": [
              {
                "code": "problem-list-item",
                "system": "http://terminology.hl7.org/CodeSystem/condition-category",
                "display": "Problem List Item"
              }
            ]
          }
        ],
        "code": {
          "coding": [
            {
              "code": "125605004",
              "system": "http://snomed.info/sct",
              "display": "Fracture of bone (disorder)"
            }
          ],
          "text": "Fracture of bone"
        },
        "text": {
          "status": "generated",
          "div": "<div xmlns=\"http://www.w3.org/1999/xhtml\"><table class=\"hl7__ips\"><tr><td><span class=\"grayedout\">Fracture of bone</span></td><td><span class=\"nb\">27-Feb-2020 - 28-Jun-2020</span></td><td><span class=\"grayedout\">inactive</span></td></tr></table></div>"
        },
        "onsetDateTime": "2020-02-27",
        "abatementDateTime": "2020-06-28",
        "subject": {
          "reference": "urn:uuid:",
          "display": "Ludmila Vávrová"
        },
        "asserter": {
          "reference": "urn:uuid:",
          "display": "Psychiatrická nemocnice Kosmonosy"
        }
      }
    },
    {
      "fullUrl": "urn:uuid:62125649-361b-4405-a228-4285a90b3d2e",
      "resource": {
        "resourceType": "Condition",
        "id": "62125649-361b-4405-a228-4285a90b3d2e",
        "meta": {
          "profile": [
            "http://hl7.org/fhir/uv/ips/StructureDefinition/Condition-uv-ips"
          ]
        },
        "category": [
          {
            "coding": [
              {
                "code": "problem-list-item",
                "system": "http://terminology.hl7.org/CodeSystem/condition-category",
                "display": "Problem List Item"
              }
            ]
          }
        ],
        "code": {
          "coding": [
            {
              "code": "443165006",
              "system": "http://snomed.info/sct",
              "display": "Osteoporotic fracture of bone (disorder)"
            }
          ],
          "text": "Osteoporotic fracture"
        },
        "text": {
          "status": "generated",
          "div": "<div xmlns=\"http://www.w3.org/1999/xhtml\"><table class=\"hl7__ips\"><tr><td><span class=\"grayedout\">Osteoporotic fracture</span></td><td><span class=\"nb\">27-Feb-2020 - 28-Jun-2020</span></td><td><span class=\"grayedout\">inactive</span></td></tr></table></div>"
        },
        "onsetDateTime": "2020-02-27",
        "abatementDateTime": "2020-06-28",
        "subject": {
          "reference": "urn:uuid:",
          "display": "Ludmila Vávrová"
        },
        "asserter": {
          "reference": "urn:uuid:",
          "display": "Psychiatrická nemocnice Kosmonosy"
        }
      }
    },
    {
      "fullUrl": "urn:uuid:313c6dee-8e65-4899-9dde-e3325ba31cbe",
      "resource": {
        "resourceType": "Condition",
        "id": "313c6dee-8e65-4899-9dde-e3325ba31cbe",
        "meta": {
          "profile": [
            "http://hl7.org/fhir/uv/ips/StructureDefinition/Condition-uv-ips"
          ]
        },
        "category": [
          {
            "coding": [
              {
                "code": "problem-list-item",
                "system": "http://terminology.hl7.org/CodeSystem/condition-category",
                "display": "Problem List Item"
              }
            ]
          }
        ],
        "code": {
          "coding": [
            {
              "code": "55680006",
              "system": "http://snomed.info/sct",
              "display": "Drug overdose (disorder)"
            }
          ],
          "text": "Drug overdose"
        },
        "text": {
          "status": "generated",
          "div": "<div xmlns=\"http://www.w3.org/1999/xhtml\"><table class=\"hl7__ips\"><tr><td><span class=\"grayedout\">Drug overdose</span></td><td><span class=\"nb\">06-Nov-2018 - 06-Nov-2018</span></td><td><span class=\"grayedout\">inactive</span></td></tr></table></div>"
        },
        "onsetDateTime": "2018-11-06",
        "abatementDateTime": "2018-11-06",
        "subject": {
          "reference": "urn:uuid:",
          "display": "Ludmila Vávrová"
        },
        "asserter": {
          "reference": "urn:uuid:",
          "display": "Psychiatrická nemocnice Kosmonosy"
        }
      }
    },
    {
      "fullUrl": "urn:uuid:d19224a3-97f7-4f38-a81f-0161ae0184e7",
      "resource": {
        "resourceType": "Condition",
        "id": "d19224a3-97f7-4f38-a81f-0161ae0184e7",
        "meta": {
          "profile": [
            "http://hl7.org/fhir/uv/ips/StructureDefinition/Condition-uv-ips"
          ]
        },
        "category": [
          {
            "coding": [
              {
                "code": "problem-list-item",
                "system": "http://terminology.hl7.org/CodeSystem/condition-category",
                "display": "Problem List Item"
              }
            ]
          }
        ],
        "code": {
          "coding": [
            {
              "code": "65966004",
              "system": "http://snomed.info/sct",
              "display": "Fracture of forearm (disorder)"
            }
          ],
          "text": "Fracture of forearm"
        },
        "text": {
          "status": "generated",
          "div": "<div xmlns=\"http://www.w3.org/1999/xhtml\"><table class=\"hl7__ips\"><tr><td><span class=\"grayedout\">Fracture of forearm</span></td><td><span class=\"nb\">11-Nov-2017 - 22-Jan-2018</span></td><td><span class=\"grayedout\">inactive</span></td></tr></table></div>"
        },
        "onsetDateTime": "2017-11-11",
        "abatementDateTime": "2018-01-22",
        "subject": {
          "reference": "urn:uuid:",
          "display": "Ludmila Vávrová"
        },
        "asserter": {
          "reference": "urn:uuid:",
          "display": "Psychiatrická nemocnice Kosmonosy"
        }
      }
    },
    {
      "fullUrl": "urn:uuid:b6a7c6ff-1adf-4bab-a188-222006988c7f",
      "resource": {
        "resourceType": "Condition",
        "id": "b6a7c6ff-1adf-4bab-a188-222006988c7f",
        "meta": {
          "profile": [
            "http://hl7.org/fhir/uv/ips/StructureDefinition/Condition-uv-ips"
          ]
        },
        "category": [
          {
            "coding": [
              {
                "code": "problem-list-item",
                "system": "http://terminology.hl7.org/CodeSystem/condition-category",
                "display": "Problem List Item"
              }
            ]
          }
        ],
        "code": {
          "coding": [
            {
              "code": "125605004",
              "system": "http://snomed.info/sct",
              "display": "Fracture of bone (disorder)"
            }
          ],
          "text": "Fracture of bone"
        },
        "text": {
          "status": "generated",
          "div": "<div xmlns=\"http://www.w3.org/1999/xhtml\"><table class=\"hl7__ips\"><tr><td><span class=\"grayedout\">Fracture of bone</span></td><td><span class=\"nb\">11-Nov-2017 - 22-Jan-2018</span></td><td><span class=\"grayedout\">inactive</span></td></tr></table></div>"
        },
        "onsetDateTime": "2017-11-11",
        "abatementDateTime": "2018-01-22",
        "subject": {
          "reference": "urn:uuid:",
          "display": "Ludmila Vávrová"
        },
        "asserter": {
          "reference": "urn:uuid:",
          "display": "Psychiatrická nemocnice Kosmonosy"
        }
      }
    },
    {
      "fullUrl": "urn:uuid:a967ab0f-4f6a-4f2f-8199-1badbf7d3e14",
      "resource": {
        "resourceType": "Condition",
        "id": "a967ab0f-4f6a-4f2f-8199-1badbf7d3e14",
        "meta": {
          "profile": [
            "http://hl7.org/fhir/uv/ips/StructureDefinition/Condition-uv-ips"
          ]
        },
        "category": [
          {
            "coding": [
              {
                "code": "problem-list-item",
                "system": "http://terminology.hl7.org/CodeSystem/condition-category",
                "display": "Problem List Item"
              }
            ]
          }
        ],
        "code": {
          "coding": [
            {
              "code": "443165006",
              "system": "http://snomed.info/sct",
              "display": "Osteoporotic fracture of bone (disorder)"
            }
          ],
          "text": "Osteoporotic fracture"
        },
        "text": {
          "status": "generated",
          "div": "<div xmlns=\"http://www.w3.org/1999/xhtml\"><table class=\"hl7__ips\"><tr><td><span class=\"grayedout\">Osteoporotic fracture</span></td><td><span class=\"nb\">11-Nov-2017 - 22-Jan-2018</span></td><td><span class=\"grayedout\">inactive</span></td></tr></table></div>"
        },
        "onsetDateTime": "2017-11-11",
        "abatementDateTime": "2018-01-22",
        "subject": {
          "reference": "urn:uuid:",
          "display": "Ludmila Vávrová"
        },
        "asserter": {
          "reference": "urn:uuid:",
          "display": "Psychiatrická nemocnice Kosmonosy"
        }
      }
    },
    {
      "fullUrl": "urn:uuid:80474bf4-b859-4d32-a85c-cdcac9224d1d",
      "resource": {
        "resourceType": "Medication",
        "id": "80474bf4-b859-4d32-a85c-cdcac9224d1d",
        "meta": {
          "profile": [
            "http://hl7.eu/fhir/eps/StructureDefinition/Medication-eu-eps"
          ]
        },
        "code": {
          "coding": [
            {
              "code": "319996000",
              "system": "http://snomed.info/sct",
              "display": "Simvastatin 10 mg oral tablet"
            }
          ],
          "text": "Simvastatin 10 mg oral tablet"
        },
        "text": {
          "status": "generated",
          "div": "<div xmlns=\"http://www.w3.org/1999/xhtml\">Simvastatin 10 mg oral tablet</div>"
        }
      }
    },
    {
      "fullUrl": "urn:uuid:3249b4b5-1fb9-40a1-a7bd-3807001ec8f6",
      "resource": {
        "resourceType": "MedicationStatement",
        "id": "3249b4b5-1fb9-40a1-a7bd-3807001ec8f6",
        "meta": {
          "profile": [
            "http://hl7.eu/fhir/eps/StructureDefinition/MedicationStatement-eu-eps"
          ]
        },
        "effectivePeriod": {
          "start": "2024-12-04"
        },
        "dosage": [
          {
            "doseAndRate": [
              {
                "doseQuantity": {
                  "value": 1,
                  "unit": "{tbl}",
                  "code": "{tbl}"
                }
              }
            ],
            "timing": {
              "repeat": {
                "frequency": 1,
                "period": 1,
                "periodUnit": "d"
              }
            },
            "text": "1 tablet (10 mg) by mouth once daily",
            "asNeededBoolean": false
          }
        ],
        "reasonCode": [
          {
            "coding": [
              {
                "code": "55822004",
                "system": "http://snomed.info/sct",
                "display": "Hyperlipidemia"
              }
            ]
          }
        ],
        "text": {
          "status": "generated",
          "div": "<div xmlns=\"http://www.w3.org/1999/xhtml\"><table class=\"hl7__ips first25\"><tr><th>Medication</th><th>Since</th><th>Form</th><th>Dosage</th><th>Reason</th></tr><tr><td>Simvastatin 10 mg oral tablet</td><td><span class=\"nb\">2024-12-04</span></td><td>-</td><td>1 tablet (10 mg) by mouth once daily</td><td>Hyperlipidemia</td></tr></table></div>"
        },
        "status": "active",
        "medicationReference": {
          "reference": "urn:uuid:80474bf4-b859-4d32-a85c-cdcac9224d1d",
          "display": "Simvastatin 10 mg oral tablet"
        },
        "subject": {
          "reference": "urn:uuid:e2677183-346a-4e54-a73f-3b765d2dd339",
          "display": "Ludmila Vávrová"
        }
      }
    },
    {
      "fullUrl": "urn:uuid:b174b870-f96c-42d6-a4cd-c8c1b5cba567",
      "resource": {
        "resourceType": "Medication",
        "id": "b174b870-f96c-42d6-a4cd-c8c1b5cba567",
        "meta": {
          "profile": [
            "http://hl7.eu/fhir/eps/StructureDefinition/Medication-eu-eps"
          ]
        },
        "code": {
          "coding": [
            {
              "code": "783144007",
              "system": "http://snomed.info/sct",
              "display": "Alendronic acid (as alendronate sodium) 10 mg oral tablet"
            }
          ],
          "text": "Alendronic acid (as alendronate sodium) 10 mg oral tablet"
        },
        "text": {
          "status": "generated",
          "div": "<div xmlns=\"http://www.w3.org/1999/xhtml\">Alendronic acid (as alendronate sodium) 10 mg oral tablet</div>"
        }
      }
    },
    {
      "fullUrl": "urn:uuid:e09ce572-380c-4ed7-b3b4-6c604de7bf0d",
      "resource": {
        "resourceType": "MedicationStatement",
        "id": "e09ce572-380c-4ed7-b3b4-6c604de7bf0d",
        "meta": {
          "profile": [
            "http://hl7.eu/fhir/eps/StructureDefinition/MedicationStatement-eu-eps"
          ]
        },
        "effectivePeriod": {
          "start": "2024-11-27"
        },
        "dosage": [
          {
            "doseAndRate": [
              {
                "doseQuantity": {
                  "value": 1,
                  "unit": "{tbl}",
                  "code": "{tbl}"
                }
              }
            ],
            "timing": {
              "repeat": {
                "frequency": 1,
                "period": 1,
                "periodUnit": "d"
              }
            },
            "text": "1 tablet (10 mg) once daily",
            "asNeededBoolean": false
          }
        ],
        "reasonCode": [
          {
            "coding": [
              {
                "code": "64859006",
                "system": "http://snomed.info/sct",
                "display": "Osteoporosis (disorder)"
              }
            ]
          }
        ],
        "text": {
          "status": "generated",
          "div": "<div xmlns=\"http://www.w3.org/1999/xhtml\"><table class=\"hl7__ips first25\"><tr><th>Medication</th><th>Since</th><th>Form</th><th>Dosage</th><th>Reason</th></tr><tr><td>Alendronic acid (as alendronate sodium) 10 mg oral tablet</td><td><span class=\"nb\">2024-11-27</span></td><td>-</td><td>1 tablet (10 mg) once daily</td><td>Osteoporosis (disorder)</td></tr></table></div>"
        },
        "status": "active",
        "medicationReference": {
          "reference": "urn:uuid:b174b870-f96c-42d6-a4cd-c8c1b5cba567",
          "display": "Alendronic acid (as alendronate sodium) 10 mg oral tablet"
        },
        "subject": {
          "reference": "urn:uuid:e2677183-346a-4e54-a73f-3b765d2dd339",
          "display": "Ludmila Vávrová"
        }
      }
    },
    {
      "fullUrl": "urn:uuid:9e59e262-3f89-4af6-98ec-dd48e8d2455c",
      "resource": {
        "resourceType": "Medication",
        "id": "9e59e262-3f89-4af6-98ec-dd48e8d2455c",
        "meta": {
          "profile": [
            "http://hl7.eu/fhir/eps/StructureDefinition/Medication-eu-eps"
          ]
        },
        "code": {
          "coding": [
            {
              "code": "319997009",
              "system": "http://snomed.info/sct",
              "display": "Simvastatin 20 mg oral tablet"
            }
          ],
          "text": "Simvastatin 20 mg oral tablet"
        },
        "text": {
          "status": "generated",
          "div": "<div xmlns=\"http://www.w3.org/1999/xhtml\">Simvastatin 20 mg oral tablet</div>"
        }
      }
    },
    {
      "fullUrl": "urn:uuid:a725062b-59ea-4568-837f-a9a033a0d696",
      "resource": {
        "resourceType": "MedicationStatement",
        "id": "a725062b-59ea-4568-837f-a9a033a0d696",
        "meta": {
          "profile": [
            "http://hl7.eu/fhir/eps/StructureDefinition/MedicationStatement-eu-eps"
          ]
        },
        "effectivePeriod": {
          "start": "2016-10-19"
        },
        "dosage": [
          {
            "doseAndRate": [
              {
                "doseQuantity": {
                  "value": 1,
                  "unit": "{tbl}",
                  "code": "{tbl}"
                }
              }
            ],
            "timing": {
              "repeat": {
                "frequency": 1,
                "period": 1,
                "periodUnit": "d"
              }
            },
            "text": "1 tablet (20 mg) by mouth once daily",
            "asNeededBoolean": false
          }
        ],
        "text": {
          "status": "generated",
          "div": "<div xmlns=\"http://www.w3.org/1999/xhtml\"><table class=\"hl7__ips first25\"><tr><th>Medication</th><th>Since</th><th>Form</th><th>Dosage</th><th>Reason</th></tr><tr><td>Simvastatin 20 mg oral tablet</td><td><span class=\"nb\">2016-10-19</span></td><td>-</td><td>1 tablet (20 mg) by mouth once daily</td><td>-</td></tr></table></div>"
        },
        "status": "active",
        "medicationReference": {
          "reference": "urn:uuid:9e59e262-3f89-4af6-98ec-dd48e8d2455c",
          "display": "Simvastatin 20 mg oral tablet"
        },
        "subject": {
          "reference": "urn:uuid:e2677183-346a-4e54-a73f-3b765d2dd339",
          "display": "Ludmila Vávrová"
        }
      }
    },
    {
      "fullUrl": "urn:uuid:924447b4-ef27-4121-92bf-315f51a29875",
      "resource": {
        "resourceType": "Medication",
        "id": "924447b4-ef27-4121-92bf-315f51a29875",
        "meta": {
          "profile": [
            "http://hl7.eu/fhir/eps/StructureDefinition/Medication-eu-eps"
          ]
        },
        "code": {
          "coding": [
            {
              "code": "425176000",
              "system": "http://snomed.info/sct",
              "display": "Nitroglycerin 400 microgram/actuation sublingual spray"
            }
          ],
          "text": "Nitroglycerin 400 microgram/actuation sublingual spray"
        },
        "text": {
          "status": "generated",
          "div": "<div xmlns=\"http://www.w3.org/1999/xhtml\">Nitroglycerin 400 microgram/actuation sublingual spray</div>"
        }
      }
    },
    {
      "fullUrl": "urn:uuid:175a19e1-2b1e-47de-98c4-63fb7743b147",
      "resource": {
        "resourceType": "MedicationStatement",
        "id": "175a19e1-2b1e-47de-98c4-63fb7743b147",
        "meta": {
          "profile": [
            "http://hl7.eu/fhir/eps/StructureDefinition/MedicationStatement-eu-eps"
          ]
        },
        "effectivePeriod": {
          "start": "2016-10-19"
        },
        "dosage": [
          {
            "doseAndRate": [
              {
                "doseQuantity": {
                  "value": 400,
                  "unit": "microgram",
                  "code": "ug"
                }
              }
            ],
            "timing": {
              "repeat": {
                "frequency": 1,
                "period": 5,
                "periodUnit": "min"
              }
            },
            "text": "400 micrograms per spray, use one spray under the tongue as needed for chest pain, may repeat every 5 minutes as needed, up to 3 sprays in 15 minutes",
            "asNeededBoolean": true
          }
        ],
        "text": {
          "status": "generated",
          "div": "<div xmlns=\"http://www.w3.org/1999/xhtml\"><table class=\"hl7__ips first25\"><tr><th>Medication</th><th>Since</th><th>Form</th><th>Dosage</th><th>Reason</th></tr><tr><td>Nitroglycerin 400 microgram/actuation sublingual spray</td><td><span class=\"nb\">2016-10-19</span></td><td>-</td><td>400 micrograms per spray, use one spray under the tongue as needed for chest pain, may repeat every 5 minutes as needed, up to 3 sprays in 15 minutes</td><td>-</td></tr></table></div>"
        },
        "status": "active",
        "medicationReference": {
          "reference": "urn:uuid:924447b4-ef27-4121-92bf-315f51a29875",
          "display": "Nitroglycerin 400 microgram/actuation sublingual spray"
        },
        "subject": {
          "reference": "urn:uuid:e2677183-346a-4e54-a73f-3b765d2dd339",
          "display": "Ludmila Vávrová"
        }
      }
    },
    {
      "fullUrl": "urn:uuid:14366783-18cd-4afd-abb5-04e0fc4c8f5e",
      "resource": {
        "resourceType": "Medication",
        "id": "14366783-18cd-4afd-abb5-04e0fc4c8f5e",
        "meta": {
          "profile": [
            "http://hl7.eu/fhir/eps/StructureDefinition/Medication-eu-eps"
          ]
        },
        "code": {
          "coding": [
            {
              "code": "879980009",
              "system": "http://snomed.info/sct",
              "display": "Metoprolol tartrate (as metoprolol succinate) 100 mg prolonged-release oral tablet"
            }
          ],
          "text": "Metoprolol tartrate (as metoprolol succinate) 100 mg prolonged-release oral tablet"
        },
        "text": {
          "status": "generated",
          "div": "<div xmlns=\"http://www.w3.org/1999/xhtml\">Metoprolol tartrate (as metoprolol succinate) 100 mg prolonged-release oral tablet</div>"
        }
      }
    },
    {
      "fullUrl": "urn:uuid:0010322b-02e0-4892-8da1-323952e01649",
      "resource": {
        "resourceType": "MedicationStatement",
        "id": "0010322b-02e0-4892-8da1-323952e01649",
        "meta": {
          "profile": [
            "http://hl7.eu/fhir/eps/StructureDefinition/MedicationStatement-eu-eps"
          ]
        },
        "effectivePeriod": {
          "start": "2016-10-19"
        },
        "dosage": [
          {
            "doseAndRate": [
              {
                "doseQuantity": {
                  "value": 1,
                  "unit": "{tbl}",
                  "code": "{tbl}"
                }
              }
            ],
            "timing": {
              "repeat": {
                "frequency": 1,
                "period": 1,
                "periodUnit": "d"
              }
            },
            "text": "1 tablet (100 mg) once daily",
            "asNeededBoolean": false
          }
        ],
        "text": {
          "status": "generated",
          "div": "<div xmlns=\"http://www.w3.org/1999/xhtml\"><table class=\"hl7__ips first25\"><tr><th>Medication</th><th>Since</th><th>Form</th><th>Dosage</th><th>Reason</th></tr><tr><td>Metoprolol tartrate (as metoprolol succinate) 100 mg prolonged-release oral tablet</td><td><span class=\"nb\">2016-10-19</span></td><td>-</td><td>1 tablet (100 mg) once daily</td><td>-</td></tr></table></div>"
        },
        "status": "active",
        "medicationReference": {
          "reference": "urn:uuid:14366783-18cd-4afd-abb5-04e0fc4c8f5e",
          "display": "Metoprolol tartrate (as metoprolol succinate) 100 mg prolonged-release oral tablet"
        },
        "subject": {
          "reference": "urn:uuid:e2677183-346a-4e54-a73f-3b765d2dd339",
          "display": "Ludmila Vávrová"
        }
      }
    },
    {
      "fullUrl": "urn:uuid:545f4713-9be8-42b7-8041-a1ce364bbe40",
      "resource": {
        "resourceType": "Medication",
        "id": "545f4713-9be8-42b7-8041-a1ce364bbe40",
        "meta": {
          "profile": [
            "http://hl7.eu/fhir/eps/StructureDefinition/Medication-eu-eps"
          ]
        },
        "code": {
          "coding": [
            {
              "code": "783586007",
              "system": "http://snomed.info/sct",
              "display": "Clopidogrel (as clopidogrel bisulfate) 75 mg oral tablet"
            }
          ],
          "text": "Clopidogrel (as clopidogrel bisulfate) 75 mg oral tablet"
        },
        "text": {
          "status": "generated",
          "div": "<div xmlns=\"http://www.w3.org/1999/xhtml\">Clopidogrel (as clopidogrel bisulfate) 75 mg oral tablet</div>"
        }
      }
    },
    {
      "fullUrl": "urn:uuid:fffe5f20-9007-4e20-813b-e6e95f161c4f",
      "resource": {
        "resourceType": "MedicationStatement",
        "id": "fffe5f20-9007-4e20-813b-e6e95f161c4f",
        "meta": {
          "profile": [
            "http://hl7.eu/fhir/eps/StructureDefinition/MedicationStatement-eu-eps"
          ]
        },
        "effectivePeriod": {
          "start": "2008-02-15"
        },
        "dosage": [
          {
            "doseAndRate": [
              {
                "doseQuantity": {
                  "value": 1,
                  "unit": "{tbl}",
                  "code": "{tbl}"
                }
              }
            ],
            "timing": {
              "repeat": {
                "frequency": 1,
                "period": 1,
                "periodUnit": "d"
              }
            },
            "text": "1 tablet (75 mg) by mouth once daily",
            "asNeededBoolean": false
          }
        ],
        "text": {
          "status": "generated",
          "div": "<div xmlns=\"http://www.w3.org/1999/xhtml\"><table class=\"hl7__ips first25\"><tr><th>Medication</th><th>Since</th><th>Form</th><th>Dosage</th><th>Reason</th></tr><tr><td>Clopidogrel (as clopidogrel bisulfate) 75 mg oral tablet</td><td><span class=\"nb\">2008-02-15</span></td><td>-</td><td>1 tablet (75 mg) by mouth once daily</td><td>-</td></tr></table></div>"
        },
        "status": "active",
        "medicationReference": {
          "reference": "urn:uuid:545f4713-9be8-42b7-8041-a1ce364bbe40",
          "display": "Clopidogrel (as clopidogrel bisulfate) 75 mg oral tablet"
        },
        "subject": {
          "reference": "urn:uuid:e2677183-346a-4e54-a73f-3b765d2dd339",
          "display": "Ludmila Vávrová"
        }
      }
    },
    {
      "fullUrl": "urn:uuid:b8f95733-6c63-4843-9efc-0d792b7d1108",
      "resource": {
        "resourceType": "Medication",
        "id": "b8f95733-6c63-4843-9efc-0d792b7d1108",
        "meta": {
          "profile": [
            "http://hl7.eu/fhir/eps/StructureDefinition/Medication-eu-eps"
          ]
        },
        "code": {
          "coding": [
            {
              "code": "1804799",
              "system": "http://www.nlm.nih.gov/research/umls/rxnorm",
              "display": "Alteplase 100 MG Injection"
            }
          ],
          "text": "Alteplase 100 MG Injection"
        },
        "text": {
          "status": "generated",
          "div": "<div xmlns=\"http://www.w3.org/1999/xhtml\">Alteplase 100 MG Injection</div>"
        }
      }
    },
    {
      "fullUrl": "urn:uuid:454312e7-f7c3-4463-bb3b-aa3604aeda9a",
      "resource": {
        "resourceType": "MedicationStatement",
        "id": "454312e7-f7c3-4463-bb3b-aa3604aeda9a",
        "meta": {
          "profile": [
            "http://hl7.eu/fhir/eps/StructureDefinition/MedicationStatement-eu-eps"
          ]
        },
        "effectivePeriod": {
          "start": "2008-02-15"
        },
        "dosage": [
          {
            "doseAndRate": [
              {
                "doseQuantity": {
                  "value": 100,
                  "unit": "mg",
                  "system": "$ucum",
                  "code": "mg"
                }
              }
            ],
            "timing": {
              "repeat": {
                "frequency": 1,
                "period": 1,
                "periodUnit": "d"
              }
            },
            "text": "100 mg IV as a single dose",
            "asNeededBoolean": false
          }
        ],
        "text": {
          "status": "generated",
          "div": "<div xmlns=\"http://www.w3.org/1999/xhtml\"><table class=\"hl7__ips first25\"><tr><th>Medication</th><th>Since</th><th>Form</th><th>Dosage</th><th>Reason</th></tr><tr><td>Alteplase 100 MG Injection</td><td><span class=\"nb\">2008-02-15</span></td><td>-</td><td>100 mg IV as a single dose</td><td>-</td></tr></table></div>"
        },
        "status": "active",
        "medicationReference": {
          "reference": "urn:uuid:b8f95733-6c63-4843-9efc-0d792b7d1108",
          "display": "Alteplase 100 MG Injection"
        },
        "subject": {
          "reference": "urn:uuid:e2677183-346a-4e54-a73f-3b765d2dd339",
          "display": "Ludmila Vávrová"
        }
      }
    },
    {
      "fullUrl": "urn:uuid:239607ac-37e6-4b68-b3c9-4a25fd870957",
      "resource": {
        "resourceType": "Immunization",
        "id": "239607ac-37e6-4b68-b3c9-4a25fd870957",
        "meta": {
          "profile": [
            "http://hl7.org/fhir/uv/ips/StructureDefinition/Immunization-uv-ips"
          ]
        },
        "vaccineCode": {
          "coding": [
            {
              "code": "1181000221105",
              "system": "http://snomed.info/sct",
              "display": "Vaccine product containing Influenza virus antigen"
            },
            {
              "code": "J07BB02",
              "system": "http://www.whocc.no/atc",
              "display": "Influenza, inactivated, split virus"
            }
          ],
          "text": "Influenza virus antigen only vaccine product"
        },
        "site": {
          "coding": [
            {
              "code": "244979005",
              "system": "http://snomed.info/sct",
              "display": "Entire muscle of upper arm"
            }
          ],
          "text": "Entire muscle of upper arm"
        },
        "route": {
          "coding": [
            {
              "code": "78421000",
              "system": "http://snomed.info/sct",
              "display": "Intramuscular route"
            }
          ],
          "text": "Intramuscular route"
        },
        "text": {
          "status": "generated",
          "div": "<div xmlns=\"http://www.w3.org/1999/xhtml\"><table class=\"hl7__ips\"><tr><td>Influenza virus antigen only vaccine product</td><td><span class=\"nb\">27-Nov-2024</span></td></tr></table></div>"
        },
        "status": "completed",
        "patient": {
          "reference": "urn:uuid:e2677183-346a-4e54-a73f-3b765d2dd339",
          "display": "Ludmila Vávrová"
        },
        "occurrenceDateTime": "2024-11-27",
        "lotNumber": "CL-lddy",
        "expirationDate": "2025-07-15"
      }
    },
    {
      "fullUrl": "urn:uuid:7d7ae2ce-f71a-4063-9556-40a124ed4128",
      "resource": {
        "resourceType": "Immunization",
        "id": "7d7ae2ce-f71a-4063-9556-40a124ed4128",
        "meta": {
          "profile": [
            "http://hl7.org/fhir/uv/ips/StructureDefinition/Immunization-uv-ips"
          ]
        },
        "vaccineCode": {
          "coding": [
            {
              "code": "1119349007",
              "system": "http://snomed.info/sct",
              "display": "Vaccine product containing SARS-CoV-2 mRNA"
            },
            {
              "code": "J07BX03",
              "system": "http://www.whocc.no/atc",
              "display": "COVID-19 mRNA vaccines"
            }
          ],
          "text": "SARS-CoV-2 mRNA vaccine"
        },
        "site": {
          "coding": [
            {
              "code": "244979005",
              "system": "http://snomed.info/sct",
              "display": "Entire muscle of upper arm"
            }
          ],
          "text": "Entire muscle of upper arm"
        },
        "route": {
          "coding": [
            {
              "code": "78421000",
              "system": "http://snomed.info/sct",
              "display": "Intramuscular route"
            }
          ],
          "text": "Intramuscular route"
        },
        "text": {
          "status": "generated",
          "div": "<div xmlns=\"http://www.w3.org/1999/xhtml\"><table class=\"hl7__ips\"><tr><td>SARS-CoV-2 mRNA vaccine</td><td><span class=\"nb\">02-Jun-2021</span></td></tr></table></div>"
        },
        "status": "completed",
        "patient": {
          "reference": "urn:uuid:e2677183-346a-4e54-a73f-3b765d2dd339",
          "display": "Ludmila Vávrová"
        },
        "occurrenceDateTime": "2021-06-02",
        "lotNumber": "MC-7RSHGgkpn",
        "expirationDate": "2021-07-05"
      }
    },
    {
      "fullUrl": "urn:uuid:c4a86e52-b09e-4770-8253-a210f22d85c9",
      "resource": {
        "resourceType": "Immunization",
        "id": "c4a86e52-b09e-4770-8253-a210f22d85c9",
        "meta": {
          "profile": [
            "http://hl7.org/fhir/uv/ips/StructureDefinition/Immunization-uv-ips"
          ]
        },
        "vaccineCode": {
          "coding": [
            {
              "code": "777725002",
              "system": "http://snomed.info/sct",
              "display": "Vaccine product containing only Clostridium tetani toxoid antigen adsorbed"
            },
            {
              "code": "J07AM51",
              "system": "http://www.whocc.no/atc",
              "display": "Diphtheria-tetanus vaccines, adult type"
            }
          ],
          "text": "Clostridium tetani toxoid antigen adsorbed only vaccine product"
        },
        "site": {
          "coding": [
            {
              "code": "244979005",
              "system": "http://snomed.info/sct",
              "display": "Entire muscle of upper arm"
            }
          ],
          "text": "Entire muscle of upper arm"
        },
        "route": {
          "coding": [
            {
              "code": "78421000",
              "system": "http://snomed.info/sct",
              "display": "Intramuscular route"
            }
          ],
          "text": "Intramuscular route"
        },
        "text": {
          "status": "generated",
          "div": "<div xmlns=\"http://www.w3.org/1999/xhtml\"><table class=\"hl7__ips\"><tr><td>Clostridium tetani toxoid antigen adsorbed only vaccine product</td><td><span class=\"nb\">24-Oct-2018</span></td></tr></table></div>"
        },
        "status": "completed",
        "patient": {
          "reference": "urn:uuid:e2677183-346a-4e54-a73f-3b765d2dd339",
          "display": "Ludmila Vávrová"
        },
        "occurrenceDateTime": "2018-10-24",
        "lotNumber": "FX-uVRRdS",
        "expirationDate": "2019-07-25"
      }
    },
    {
      "fullUrl": "urn:uuid:14c0fe10-c639-40c1-8ec7-3caa293e70c1",
      "resource": {
        "resourceType": "Procedure",
        "id": "14c0fe10-c639-40c1-8ec7-3caa293e70c1",
        "meta": {
          "profile": [
            "http://hl7.org/fhir/uv/ips/StructureDefinition/Procedure-uv-ips"
          ]
        },
        "code": {
          "coding": [
            {
              "code": "225386006",
              "system": "http://snomed.info/sct",
              "display": "Pre-discharge assessment (procedure)"
            }
          ],
          "text": "Pre-discharge assessment"
        },
        "text": {
          "status": "generated",
          "div": "<div xmlns=\"http://www.w3.org/1999/xhtml\"><table class=\"hl7__ips\"><tr><td>Pre-discharge assessment</td><td><span class=\"nb\">11-Jul-2021</span></td><td>-</td></tr></table></div>"
        },
        "status": "completed",
        "performedDateTime": "2021-07-11",
        "subject": {
          "reference": "urn:uuid:",
          "display": "Ludmila Vávrová"
        }
      }
    },
    {
      "fullUrl": "urn:uuid:811342b4-4cf6-4984-9b8d-4678fab08042",
      "resource": {
        "resourceType": "Procedure",
        "id": "811342b4-4cf6-4984-9b8d-4678fab08042",
        "meta": {
          "profile": [
            "http://hl7.org/fhir/uv/ips/StructureDefinition/Procedure-uv-ips"
          ]
        },
        "code": {
          "coding": [
            {
              "code": "449381000124108",
              "system": "http://snomed.info/sct",
              "display": "Discharge from skilled nursing facility (procedure)"
            }
          ]
        },
        "text": {
          "status": "generated",
          "div": "<div xmlns=\"http://www.w3.org/1999/xhtml\"><table class=\"hl7__ips\"><tr><td>Discharge from skilled nursing facility (procedure)</td><td><span class=\"nb\">11-Jul-2021</span></td><td>-</td></tr></table></div>"
        },
        "status": "completed",
        "performedDateTime": "2021-07-11",
        "subject": {
          "reference": "urn:uuid:",
          "display": "Ludmila Vávrová"
        }
      }
    },
    {
      "fullUrl": "urn:uuid:74dd1b03-0725-4b0c-a681-5c74b50b2795",
      "resource": {
        "resourceType": "Procedure",
        "id": "74dd1b03-0725-4b0c-a681-5c74b50b2795",
        "meta": {
          "profile": [
            "http://hl7.org/fhir/uv/ips/StructureDefinition/Procedure-uv-ips"
          ]
        },
        "code": {
          "coding": [
            {
              "code": "409023009",
              "system": "http://snomed.info/sct",
              "display": "Professional / ancillary services care (regime/therapy)"
            }
          ],
          "text": "Professional / ancillary services care"
        },
        "text": {
          "status": "generated",
          "div": "<div xmlns=\"http://www.w3.org/1999/xhtml\"><table class=\"hl7__ips\"><tr><td>Professional / ancillary services care</td><td><span class=\"nb\">10-Jul-2021</span></td><td>-</td></tr></table></div>"
        },
        "status": "completed",
        "performedDateTime": "2021-07-10",
        "subject": {
          "reference": "urn:uuid:",
          "display": "Ludmila Vávrová"
        }
      }
    },
    {
      "fullUrl": "urn:uuid:0bb7817b-0a3f-41fe-8ea4-d6f8c6a0901d",
      "resource": {
        "resourceType": "Procedure",
        "id": "0bb7817b-0a3f-41fe-8ea4-d6f8c6a0901d",
        "meta": {
          "profile": [
            "http://hl7.org/fhir/uv/ips/StructureDefinition/Procedure-uv-ips"
          ]
        },
        "code": {
          "coding": [
            {
              "code": "410401003",
              "system": "http://snomed.info/sct",
              "display": "Nursing care/supplementary surveillance (regime/therapy)"
            }
          ],
          "text": "Nursing care/supplementary surveillance"
        },
        "text": {
          "status": "generated",
          "div": "<div xmlns=\"http://www.w3.org/1999/xhtml\"><table class=\"hl7__ips\"><tr><td>Nursing care/supplementary surveillance</td><td><span class=\"nb\">10-Jul-2021</span></td><td>-</td></tr></table></div>"
        },
        "status": "completed",
        "performedDateTime": "2021-07-10",
        "subject": {
          "reference": "urn:uuid:",
          "display": "Ludmila Vávrová"
        }
      }
    },
    {
      "fullUrl": "urn:uuid:97831b32-f280-46cc-a699-5b82e737d469",
      "resource": {
        "resourceType": "Procedure",
        "id": "97831b32-f280-46cc-a699-5b82e737d469",
        "meta": {
          "profile": [
            "http://hl7.org/fhir/uv/ips/StructureDefinition/Procedure-uv-ips"
          ]
        },
        "code": {
          "coding": [
            {
              "code": "91251008",
              "system": "http://snomed.info/sct",
              "display": "Physical therapy procedure (regime/therapy)"
            }
          ],
          "text": "Physical therapy procedure"
        },
        "text": {
          "status": "generated",
          "div": "<div xmlns=\"http://www.w3.org/1999/xhtml\"><table class=\"hl7__ips\"><tr><td>Physical therapy procedure</td><td><span class=\"nb\">07-Jul-2021</span></td><td>-</td></tr></table></div>"
        },
        "status": "completed",
        "performedDateTime": "2021-07-07",
        "subject": {
          "reference": "urn:uuid:",
          "display": "Ludmila Vávrová"
        }
      }
    },
    {
      "fullUrl": "urn:uuid:3eeff230-4604-4ede-8930-b82510e2f987",
      "resource": {
        "resourceType": "Procedure",
        "id": "3eeff230-4604-4ede-8930-b82510e2f987",
        "meta": {
          "profile": [
            "http://hl7.org/fhir/uv/ips/StructureDefinition/Procedure-uv-ips"
          ]
        },
        "code": {
          "coding": [
            {
              "code": "63332003",
              "system": "http://snomed.info/sct",
              "display": "History AND physical examination (procedure)"
            }
          ],
          "text": "History AND physical examination"
        },
        "text": {
          "status": "generated",
          "div": "<div xmlns=\"http://www.w3.org/1999/xhtml\"><table class=\"hl7__ips\"><tr><td>History AND physical examination</td><td><span class=\"nb\">06-Jul-2021</span></td><td>-</td></tr></table></div>"
        },
        "status": "completed",
        "performedDateTime": "2021-07-06",
        "subject": {
          "reference": "urn:uuid:",
          "display": "Ludmila Vávrová"
        }
      }
    },
    {
      "fullUrl": "urn:uuid:d124f709-5317-443b-b661-ed3b700386c8",
      "resource": {
        "resourceType": "Procedure",
        "id": "d124f709-5317-443b-b661-ed3b700386c8",
        "meta": {
          "profile": [
            "http://hl7.org/fhir/uv/ips/StructureDefinition/Procedure-uv-ips"
          ]
        },
        "code": {
          "coding": [
            {
              "code": "268425006",
              "system": "http://snomed.info/sct",
              "display": "Pelvis X-ray"
            }
          ],
          "text": "Pelvis X-ray"
        },
        "text": {
          "status": "generated",
          "div": "<div xmlns=\"http://www.w3.org/1999/xhtml\"><table class=\"hl7__ips\"><tr><td>Pelvis X-ray</td><td><span class=\"nb\">06-Jul-2021</span></td><td>-</td></tr></table></div>"
        },
        "status": "completed",
        "performedDateTime": "2021-07-06",
        "subject": {
          "reference": "urn:uuid:",
          "display": "Ludmila Vávrová"
        }
      }
    },
    {
      "fullUrl": "urn:uuid:70b43b3d-fd9e-4a42-b74b-87148f6315c5",
      "resource": {
        "resourceType": "Procedure",
        "id": "70b43b3d-fd9e-4a42-b74b-87148f6315c5",
        "meta": {
          "profile": [
            "http://hl7.org/fhir/uv/ips/StructureDefinition/Procedure-uv-ips"
          ]
        },
        "code": {
          "coding": [
            {
              "code": "305428000",
              "system": "http://snomed.info/sct",
              "display": "Admission to orthopedic department"
            }
          ],
          "text": "Admission to orthopedic department"
        },
        "reasonCode": [
          {
            "coding": [
              {
                "code": "359817006",
                "system": "http://snomed.info/sct",
                "display": "Closed fracture of hip"
              }
            ]
          }
        ],
        "text": {
          "status": "generated",
          "div": "<div xmlns=\"http://www.w3.org/1999/xhtml\"><table class=\"hl7__ips\"><tr><td>Admission to orthopedic department</td><td><span class=\"nb\">06-Jul-2021</span></td><td>Closed fracture of hip</td></tr></table></div>"
        },
        "status": "completed",
        "performedDateTime": "2021-07-06",
        "subject": {
          "reference": "urn:uuid:",
          "display": "Ludmila Vávrová"
        }
      }
    },
    {
      "fullUrl": "urn:uuid:53929cdd-e38f-4208-81fb-a5694c21c019",
      "resource": {
        "resourceType": "Procedure",
        "id": "53929cdd-e38f-4208-81fb-a5694c21c019",
        "meta": {
          "profile": [
            "http://hl7.org/fhir/uv/ips/StructureDefinition/Procedure-uv-ips"
          ]
        },
        "code": {
          "coding": [
            {
              "code": "315639002",
              "system": "http://snomed.info/sct",
              "display": "Initial patient assessment (procedure)"
            }
          ],
          "text": "Initial patient assessment"
        },
        "text": {
          "status": "generated",
          "div": "<div xmlns=\"http://www.w3.org/1999/xhtml\"><table class=\"hl7__ips\"><tr><td>Initial patient assessment</td><td><span class=\"nb\">06-Jul-2021</span></td><td>-</td></tr></table></div>"
        },
        "status": "completed",
        "performedDateTime": "2021-07-06",
        "subject": {
          "reference": "urn:uuid:",
          "display": "Ludmila Vávrová"
        }
      }
    },
    {
      "fullUrl": "urn:uuid:f3b120a4-3463-4203-bc6d-a3d4cbd8cadb",
      "resource": {
        "resourceType": "Procedure",
        "id": "f3b120a4-3463-4203-bc6d-a3d4cbd8cadb",
        "meta": {
          "profile": [
            "http://hl7.org/fhir/uv/ips/StructureDefinition/Procedure-uv-ips"
          ]
        },
        "code": {
          "coding": [
            {
              "code": "370789001",
              "system": "http://snomed.info/sct",
              "display": "Development of individualized plan of care (procedure)"
            }
          ],
          "text": "Development of individualized plan of care"
        },
        "text": {
          "status": "generated",
          "div": "<div xmlns=\"http://www.w3.org/1999/xhtml\"><table class=\"hl7__ips\"><tr><td>Development of individualized plan of care</td><td><span class=\"nb\">06-Jul-2021</span></td><td>-</td></tr></table></div>"
        },
        "status": "completed",
        "performedDateTime": "2021-07-06",
        "subject": {
          "reference": "urn:uuid:",
          "display": "Ludmila Vávrová"
        }
      }
    },
    {
      "fullUrl": "urn:uuid:981461f2-6362-4d21-9319-a2980add159c",
      "resource": {
        "resourceType": "Procedure",
        "id": "981461f2-6362-4d21-9319-a2980add159c",
        "meta": {
          "profile": [
            "http://hl7.org/fhir/uv/ips/StructureDefinition/Procedure-uv-ips"
          ]
        },
        "code": {
          "coding": [
            {
              "code": "84478008",
              "system": "http://snomed.info/sct",
              "display": "Occupational therapy (regime/therapy)"
            }
          ],
          "text": "Occupational therapy"
        },
        "text": {
          "status": "generated",
          "div": "<div xmlns=\"http://www.w3.org/1999/xhtml\"><table class=\"hl7__ips\"><tr><td>Occupational therapy</td><td><span class=\"nb\">08-Mar-2020</span></td><td>-</td></tr></table></div>"
        },
        "status": "completed",
        "performedDateTime": "2020-03-08",
        "subject": {
          "reference": "urn:uuid:",
          "display": "Ludmila Vávrová"
        }
      }
    },
    {
      "fullUrl": "urn:uuid:b90a6093-1c76-4488-b35c-3c04c3873911",
      "resource": {
        "resourceType": "Procedure",
        "id": "b90a6093-1c76-4488-b35c-3c04c3873911",
        "meta": {
          "profile": [
            "http://hl7.org/fhir/uv/ips/StructureDefinition/Procedure-uv-ips"
          ]
        },
        "code": {
          "coding": [
            {
              "code": "311555007",
              "system": "http://snomed.info/sct",
              "display": "Speech and language therapy regime (regime/therapy)"
            }
          ],
          "text": "Speech and language therapy regime"
        },
        "text": {
          "status": "generated",
          "div": "<div xmlns=\"http://www.w3.org/1999/xhtml\"><table class=\"hl7__ips\"><tr><td>Speech and language therapy regime</td><td><span class=\"nb\">05-Mar-2020</span></td><td>-</td></tr></table></div>"
        },
        "status": "completed",
        "performedDateTime": "2020-03-05",
        "subject": {
          "reference": "urn:uuid:",
          "display": "Ludmila Vávrová"
        }
      }
    },
    {
      "fullUrl": "urn:uuid:a31c9899-6026-45cd-b4bc-84f75f0892fe",
      "resource": {
        "resourceType": "Procedure",
        "id": "a31c9899-6026-45cd-b4bc-84f75f0892fe",
        "meta": {
          "profile": [
            "http://hl7.org/fhir/uv/ips/StructureDefinition/Procedure-uv-ips"
          ]
        },
        "code": {
          "coding": [
            {
              "code": "1225002",
              "system": "http://snomed.info/sct",
              "display": "Upper arm X-ray"
            }
          ],
          "text": "Radiography of humerus"
        },
        "text": {
          "status": "generated",
          "div": "<div xmlns=\"http://www.w3.org/1999/xhtml\"><table class=\"hl7__ips\"><tr><td>Radiography of humerus</td><td><span class=\"nb\">27-Feb-2020</span></td><td>-</td></tr></table></div>"
        },
        "status": "completed",
        "performedDateTime": "2020-02-27",
        "subject": {
          "reference": "urn:uuid:",
          "display": "Ludmila Vávrová"
        }
      }
    },
    {
      "fullUrl": "urn:uuid:c2b905ef-aff7-4906-af72-8669cc059e33",
      "resource": {
        "resourceType": "Procedure",
        "id": "c2b905ef-aff7-4906-af72-8669cc059e33",
        "meta": {
          "profile": [
            "http://hl7.org/fhir/uv/ips/StructureDefinition/Procedure-uv-ips"
          ]
        },
        "code": {
          "coding": [
            {
              "code": "274474001",
              "system": "http://snomed.info/sct",
              "display": "Bone immobilization"
            }
          ],
          "text": "Bone immobilization"
        },
        "reasonCode": [
          {
            "coding": [
              {
                "code": "65966004",
                "system": "http://snomed.info/sct",
                "display": "Fracture of forearm"
              }
            ]
          }
        ],
        "text": {
          "status": "generated",
          "div": "<div xmlns=\"http://www.w3.org/1999/xhtml\"><table class=\"hl7__ips\"><tr><td>Bone immobilization</td><td><span class=\"nb\">27-Feb-2020</span></td><td>Fracture of forearm</td></tr></table></div>"
        },
        "status": "completed",
        "performedDateTime": "2020-02-27",
        "subject": {
          "reference": "urn:uuid:",
          "display": "Ludmila Vávrová"
        }
      }
    },
    {
      "fullUrl": "urn:uuid:5effa65c-8097-459f-abb8-8a57fb86bdfa",
      "resource": {
        "resourceType": "Procedure",
        "id": "5effa65c-8097-459f-abb8-8a57fb86bdfa",
        "meta": {
          "profile": [
            "http://hl7.org/fhir/uv/ips/StructureDefinition/Procedure-uv-ips"
          ]
        },
        "code": {
          "coding": [
            {
              "code": "243063003",
              "system": "http://snomed.info/sct",
              "display": "Postoperative procedure education (procedure)"
            }
          ],
          "text": "Postoperative procedure education"
        },
        "reasonCode": [
          {
            "coding": [
              {
                "code": "399261000",
                "system": "http://snomed.info/sct",
                "display": "History of coronary artery bypass grafting (situation)"
              }
            ]
          }
        ],
        "text": {
          "status": "generated",
          "div": "<div xmlns=\"http://www.w3.org/1999/xhtml\"><table class=\"hl7__ips\"><tr><td>Postoperative procedure education</td><td><span class=\"nb\">10-Nov-2016</span></td><td>History of coronary artery bypass grafting (situation)</td></tr></table></div>"
        },
        "status": "completed",
        "performedDateTime": "2016-11-10",
        "subject": {
          "reference": "urn:uuid:",
          "display": "Ludmila Vávrová"
        }
      }
    },
    {
      "fullUrl": "urn:uuid:9f136c1d-a495-47ea-bdb9-59baddb8f7a9",
      "resource": {
        "resourceType": "Procedure",
        "id": "9f136c1d-a495-47ea-bdb9-59baddb8f7a9",
        "meta": {
          "profile": [
            "http://hl7.org/fhir/uv/ips/StructureDefinition/Procedure-uv-ips"
          ]
        },
        "code": {
          "coding": [
            {
              "code": "252482003",
              "system": "http://snomed.info/sct",
              "display": "Stair-climbing test (procedure)"
            }
          ],
          "text": "Stair-climbing test"
        },
        "reasonCode": [
          {
            "coding": [
              {
                "code": "399261000",
                "system": "http://snomed.info/sct",
                "display": "History of coronary artery bypass grafting (situation)"
              }
            ]
          }
        ],
        "text": {
          "status": "generated",
          "div": "<div xmlns=\"http://www.w3.org/1999/xhtml\"><table class=\"hl7__ips\"><tr><td>Stair-climbing test</td><td><span class=\"nb\">10-Nov-2016</span></td><td>History of coronary artery bypass grafting (situation)</td></tr></table></div>"
        },
        "status": "completed",
        "performedDateTime": "2016-11-10",
        "subject": {
          "reference": "urn:uuid:",
          "display": "Ludmila Vávrová"
        }
      }
    },
    {
      "fullUrl": "urn:uuid:14ebf268-ba65-4787-91a1-ad54cec6b5a0",
      "resource": {
        "resourceType": "Procedure",
        "id": "14ebf268-ba65-4787-91a1-ad54cec6b5a0",
        "meta": {
          "profile": [
            "http://hl7.org/fhir/uv/ips/StructureDefinition/Procedure-uv-ips"
          ]
        },
        "code": {
          "coding": [
            {
              "code": "302761001",
              "system": "http://snomed.info/sct",
              "display": "Walking exercise test (procedure)"
            }
          ],
          "text": "Walking exercise test"
        },
        "reasonCode": [
          {
            "coding": [
              {
                "code": "399261000",
                "system": "http://snomed.info/sct",
                "display": "History of coronary artery bypass grafting (situation)"
              }
            ]
          }
        ],
        "text": {
          "status": "generated",
          "div": "<div xmlns=\"http://www.w3.org/1999/xhtml\"><table class=\"hl7__ips\"><tr><td>Walking exercise test</td><td><span class=\"nb\">10-Nov-2016</span></td><td>History of coronary artery bypass grafting (situation)</td></tr></table></div>"
        },
        "status": "completed",
        "performedDateTime": "2016-11-10",
        "subject": {
          "reference": "urn:uuid:",
          "display": "Ludmila Vávrová"
        }
      }
    },
    {
      "fullUrl": "urn:uuid:9aa1a38d-8ebb-4f38-b494-6a75524ee997",
      "resource": {
        "resourceType": "Procedure",
        "id": "9aa1a38d-8ebb-4f38-b494-6a75524ee997",
        "meta": {
          "profile": [
            "http://hl7.org/fhir/uv/ips/StructureDefinition/Procedure-uv-ips"
          ]
        },
        "code": {
          "coding": [
            {
              "code": "306706006",
              "system": "http://snomed.info/sct",
              "display": "Discharge to ward (procedure)"
            }
          ],
          "text": "Discharge to ward"
        },
        "text": {
          "status": "generated",
          "div": "<div xmlns=\"http://www.w3.org/1999/xhtml\"><table class=\"hl7__ips\"><tr><td>Discharge to ward</td><td><span class=\"nb\">10-Nov-2016</span></td><td>-</td></tr></table></div>"
        },
        "status": "completed",
        "performedDateTime": "2016-11-10",
        "subject": {
          "reference": "urn:uuid:",
          "display": "Ludmila Vávrová"
        }
      }
    },
    {
      "fullUrl": "urn:uuid:035e8003-d834-4a95-9f35-7fe2f7895e58",
      "resource": {
        "resourceType": "Procedure",
        "id": "035e8003-d834-4a95-9f35-7fe2f7895e58",
        "meta": {
          "profile": [
            "http://hl7.org/fhir/uv/ips/StructureDefinition/Procedure-uv-ips"
          ]
        },
        "code": {
          "coding": [
            {
              "code": "308283009",
              "system": "http://snomed.info/sct",
              "display": "Discharge from hospital (procedure)"
            }
          ],
          "text": "Discharge from hospital"
        },
        "reasonCode": [
          {
            "coding": [
              {
                "code": "399261000",
                "system": "http://snomed.info/sct",
                "display": "History of coronary artery bypass grafting (situation)"
              }
            ]
          }
        ],
        "text": {
          "status": "generated",
          "div": "<div xmlns=\"http://www.w3.org/1999/xhtml\"><table class=\"hl7__ips\"><tr><td>Discharge from hospital</td><td><span class=\"nb\">10-Nov-2016</span></td><td>History of coronary artery bypass grafting (situation)</td></tr></table></div>"
        },
        "status": "completed",
        "performedDateTime": "2016-11-10",
        "subject": {
          "reference": "urn:uuid:",
          "display": "Ludmila Vávrová"
        }
      }
    },
    {
      "fullUrl": "urn:uuid:529ebc1f-73d7-48dc-b95b-429a7be7439e",
      "resource": {
        "resourceType": "Procedure",
        "id": "529ebc1f-73d7-48dc-b95b-429a7be7439e",
        "meta": {
          "profile": [
            "http://hl7.org/fhir/uv/ips/StructureDefinition/Procedure-uv-ips"
          ]
        },
        "code": {
          "coding": [
            {
              "code": "29303009",
              "system": "http://snomed.info/sct",
              "display": "Electrocardiographic procedure (procedure)"
            }
          ],
          "text": "Electrocardiographic procedure"
        },
        "text": {
          "status": "generated",
          "div": "<div xmlns=\"http://www.w3.org/1999/xhtml\"><table class=\"hl7__ips\"><tr><td>Electrocardiographic procedure</td><td><span class=\"nb\">09-Nov-2016</span></td><td>-</td></tr></table></div>"
        },
        "status": "completed",
        "performedDateTime": "2016-11-09",
        "subject": {
          "reference": "urn:uuid:",
          "display": "Ludmila Vávrová"
        }
      }
    },
    {
      "fullUrl": "urn:uuid:4bd51d95-d87a-4f7b-9683-18b994a3b2d9",
      "resource": {
        "resourceType": "Procedure",
        "id": "4bd51d95-d87a-4f7b-9683-18b994a3b2d9",
        "meta": {
          "profile": [
            "http://hl7.org/fhir/uv/ips/StructureDefinition/Procedure-uv-ips"
          ]
        },
        "code": {
          "coding": [
            {
              "code": "116861002",
              "system": "http://snomed.info/sct",
              "display": "Transfusion of fresh frozen plasma (procedure)"
            }
          ],
          "text": "Transfusion of fresh frozen plasma"
        },
        "text": {
          "status": "generated",
          "div": "<div xmlns=\"http://www.w3.org/1999/xhtml\"><table class=\"hl7__ips\"><tr><td>Transfusion of fresh frozen plasma</td><td><span class=\"nb\">09-Nov-2016</span></td><td>-</td></tr></table></div>"
        },
        "status": "completed",
        "performedDateTime": "2016-11-09",
        "subject": {
          "reference": "urn:uuid:",
          "display": "Ludmila Vávrová"
        }
      }
    },
    {
      "fullUrl": "urn:uuid:37eb0b2f-14bd-46f2-8220-3b96172fb62d",
      "resource": {
        "resourceType": "Procedure",
        "id": "37eb0b2f-14bd-46f2-8220-3b96172fb62d",
        "meta": {
          "profile": [
            "http://hl7.org/fhir/uv/ips/StructureDefinition/Procedure-uv-ips"
          ]
        },
        "code": {
          "coding": [
            {
              "code": "399208008",
              "system": "http://snomed.info/sct",
              "display": "Plain chest X-ray (procedure)"
            }
          ],
          "text": "Plain X-ray of chest"
        },
        "text": {
          "status": "generated",
          "div": "<div xmlns=\"http://www.w3.org/1999/xhtml\"><table class=\"hl7__ips\"><tr><td>Plain X-ray of chest</td><td><span class=\"nb\">09-Nov-2016</span></td><td>-</td></tr></table></div>"
        },
        "status": "completed",
        "performedDateTime": "2016-11-09",
        "subject": {
          "reference": "urn:uuid:",
          "display": "Ludmila Vávrová"
        }
      }
    },
    {
      "fullUrl": "urn:uuid:fca2aaca-358e-4601-8332-84363c4f652e",
      "resource": {
        "resourceType": "Procedure",
        "id": "fca2aaca-358e-4601-8332-84363c4f652e",
        "meta": {
          "profile": [
            "http://hl7.org/fhir/uv/ips/StructureDefinition/Procedure-uv-ips"
          ]
        },
        "code": {
          "coding": [
            {
              "code": "271280005",
              "system": "http://snomed.info/sct",
              "display": "Removal of endotracheal tube (procedure)"
            }
          ],
          "text": "Removal of endotracheal tube"
        },
        "text": {
          "status": "generated",
          "div": "<div xmlns=\"http://www.w3.org/1999/xhtml\"><table class=\"hl7__ips\"><tr><td>Removal of endotracheal tube</td><td><span class=\"nb\">08-Nov-2016</span></td><td>-</td></tr></table></div>"
        },
        "status": "completed",
        "performedDateTime": "2016-11-08",
        "subject": {
          "reference": "urn:uuid:",
          "display": "Ludmila Vávrová"
        }
      }
    },
    {
      "fullUrl": "urn:uuid:42f8c051-de15-4f2f-8a3c-ece1c528a109",
      "resource": {
        "resourceType": "AllergyIntolerance",
        "id": "42f8c051-de15-4f2f-8a3c-ece1c528a109",
        "meta": {
          "profile": [
            "http://hl7.eu/fhir/eps/StructureDefinition/allergyIntolerance-eu-eps"
          ]
        },
        "code": {
          "coding": [
            {
              "code": "1343356001",
              "system": "http://snomed.info/sct",
              "display": "Inadequate digital access affecting health care"
            }
          ],
          "text": "Inadequate digital access affecting health care"
        },
        "clinicalStatus": {
          "coding": [
            {
              "code": "active",
              "system": "http://terminology.hl7.org/CodeSystem/allergyintolerance-clinical"
            }
          ]
        },
        "category": [
          "environment"
        ],
        "text": {
          "status": "generated",
          "div": "<div xmlns=\"http://www.w3.org/1999/xhtml\"><table class=\"hl7__ips\"><tr><th>Allergy/Intolerance</th><th>Onset Date</th><th>Status</th><th>Type</th><th>Reaction</th></tr><tr><td>Inadequate digital access affecting health care</td><td><span class=\"nb\">2025-10-22</span></td><td>active</td><td>environment</td><td></td></tr></table></div>"
        },
        "onsetDateTime": "2025-10-22",
        "verificationStatus": {
          "coding": [
            {
              "code": "confirmed",
              "system": "http://terminology.hl7.org/CodeSystem/allergyintolerance-verification"
            }
          ]
        },
        "type": "intolerance",
        "patient": {
          "reference": "urn:uuid:e2677183-346a-4e54-a73f-3b765d2dd339",
          "display": "Ludmila Vávrová"
        }
      }
    },
    {
      "fullUrl": "urn:uuid:10f5a749-9160-463c-bc4d-4ab8f94de878",
      "resource": {
        "resourceType": "CarePlan",
        "id": "10f5a749-9160-463c-bc4d-4ab8f94de878",
        "category": [
          {
            "coding": [
              {
                "code": "assess-plan",
                "system": "http://terminology.hl7.org/CodeSystem/care-plan-category",
                "display": "Assessment and Plan"
              }
            ]
          }
        ],
        "activity": [
          {
            "detail": {
              "code": {
                "coding": [
                  {
                    "code": "734163000",
                    "system": "http://snomed.info/sct",
                    "display": "Care plan (record artifact)"
                  }
                ]
              },
              "status": "unknown",
              "description": "Care plan",
              "kind": "Appointment"
            }
          }
        ],
        "period": {
          "start": "1998-01-01"
        },
        "text": {
          "status": "generated",
          "div": "<div xmlns=\"http://www.w3.org/1999/xhtml\"><table class=\"hl7__ips first25\"><tr><th>Active Planned Care / Goals</th><th>Start Date</th><th>Reason</th></tr><tr><td>Care plan</td><td><span class=\"nb\">01-Jan-1998</span></td><td>-</td></tr></table></div>"
        },
        "status": "active",
        "intent": "plan",
        "subject": {
          "reference": "urn:uuid:e2677183-346a-4e54-a73f-3b765d2dd339",
          "display": "Ludmila Vávrová"
        }
      }
    },
    {
      "fullUrl": "urn:uuid:a5b28457-1795-4f2e-a67c-c69277e97f4a",
      "resource": {
        "resourceType": "CarePlan",
        "id": "a5b28457-1795-4f2e-a67c-c69277e97f4a",
        "category": [
          {
            "coding": [
              {
                "code": "assess-plan",
                "system": "http://terminology.hl7.org/CodeSystem/care-plan-category",
                "display": "Assessment and Plan"
              }
            ]
          }
        ],
        "activity": [
          {
            "detail": {
              "code": {
                "coding": [
                  {
                    "code": "736285004",
                    "system": "http://snomed.info/sct",
                    "display": "Hyperlipidemia clinical management plan (record artifact)"
                  }
                ]
              },
              "reasonCode": [
                {
                  "coding": [
                    {
                      "code": "55822004",
                      "system": "http://snomed.info/sct",
                      "display": "Hyperlipidemia"
                    }
                  ]
                }
              ],
              "status": "unknown",
              "description": "Hyperlipidemia clinical management plan",
              "kind": "Appointment"
            }
          }
        ],
        "period": {
          "start": "1992-06-17"
        },
        "goal": [
          {
            "reference": "urn:uuid:e712e710-2c87-4ca3-aaf9-3a2b08e39e22"
          },
          {
            "reference": "urn:uuid:7e2cedf2-89bc-4779-a68d-b646eb63f947"
          },
          {
            "reference": "urn:uuid:8a37e8a9-7a8a-468b-a852-8b59e1d8adab"
          },
          {
            "reference": "urn:uuid:65d90ae7-922b-465a-afcd-764298d604a4"
          }
        ],
        "text": {
          "status": "generated",
          "div": "<div xmlns=\"http://www.w3.org/1999/xhtml\"><table class=\"hl7__ips first25\"><tr><th>Active Planned Care / Goals</th><th>Start Date</th><th>Reason</th></tr><tr><td>Hyperlipidemia clinical management plan</td><td><span class=\"nb\">17-Jun-1992</span></td><td>Hyperlipidemia</td></tr><tr><td><ul><li>Achieve and maintain LDL cholesterol below 70 mg/dL to reduce cardiovascular risk.</li><li>Maintain total cholesterol below 200 mg/dL.</li><li>Maintain HDL cholesterol above 50 mg/dL.</li><li>Maintain triglycerides below 150 mg/dL.</li></ul></td><td></td><td></td></tr></table></div>"
        },
        "status": "active",
        "intent": "plan",
        "subject": {
          "reference": "urn:uuid:e2677183-346a-4e54-a73f-3b765d2dd339",
          "display": "Ludmila Vávrová"
        }
      }
    },
    {
      "fullUrl": "urn:uuid:403087c3-03a4-474c-9579-c6e802905e93",
      "resource": {
        "resourceType": "CarePlan",
        "id": "403087c3-03a4-474c-9579-c6e802905e93",
        "category": [
          {
            "coding": [
              {
                "code": "assess-plan",
                "system": "http://terminology.hl7.org/CodeSystem/care-plan-category",
                "display": "Assessment and Plan"
              }
            ]
          }
        ],
        "activity": [
          {
            "detail": {
              "code": {
                "coding": [
                  {
                    "code": "408869004",
                    "system": "http://snomed.info/sct",
                    "display": "Musculoskeletal care (regime/therapy)"
                  }
                ]
              },
              "reasonCode": [
                {
                  "coding": [
                    {
                      "code": "239872002",
                      "system": "http://snomed.info/sct",
                      "display": "Osteoarthritis of hip"
                    }
                  ]
                }
              ],
              "status": "unknown",
              "description": "Musculoskeletal care",
              "kind": "Appointment"
            }
          }
        ],
        "period": {
          "start": "1989-01-06"
        },
        "goal": [
          {
            "reference": "urn:uuid:8d92d80b-8360-42f9-83a1-f980597f5f78"
          },
          {
            "reference": "urn:uuid:c6747548-b65b-4795-abaf-909aed2a2975"
          },
          {
            "reference": "urn:uuid:657c75cb-9016-4b44-bb33-0ac8cfadb558"
          }
        ],
        "text": {
          "status": "generated",
          "div": "<div xmlns=\"http://www.w3.org/1999/xhtml\"><table class=\"hl7__ips first25\"><tr><th>Active Planned Care / Goals</th><th>Start Date</th><th>Reason</th></tr><tr><td>Musculoskeletal care</td><td><span class=\"nb\">06-Jan-1989</span></td><td>Osteoarthritis of hip</td></tr><tr><td><ul><li>Reduce the severity of hip pain to a tolerable level for daily activities.</li><li>Increase range of motion in the affected hip to support independent ambulation.</li><li>Enable patient to perform basic activities of daily living (ADLs) such as dressing and bathing with minimal assistance.</li></ul></td><td></td><td></td></tr></table></div>"
        },
        "status": "active",
        "intent": "plan",
        "subject": {
          "reference": "urn:uuid:e2677183-346a-4e54-a73f-3b765d2dd339",
          "display": "Ludmila Vávrová"
        }
      }
    },
    {
      "fullUrl": "urn:uuid:d7b9f050-95b3-48ee-b0c9-f17cd6865c9f",
      "resource": {
        "resourceType": "ImmunizationRecommendation",
        "id": "d7b9f050-95b3-48ee-b0c9-f17cd6865c9f",
        "recommendation": [
          {
            "vaccineCode": [
              {
                "coding": [
                  {
                    "code": "1181000221105",
                    "system": "http://snomed.info/sct",
                    "display": "Vaccine product containing only Influenza virus antigen (medicinal product)"
                  }
                ]
              }
            ],
            "dateCriterion": [
              {
                "code": {
                  "coding": [
                    {
                      "code": "30980-7",
                      "system": "http://loinc.org",
                      "display": "Date vaccine due"
                    }
                  ]
                },
                "value": "2025-10-01"
              }
            ],
            "targetDisease": {
              "coding": [
                {
                  "code": "6142004",
                  "system": "http://snomed.info/sct",
                  "display": "Influenza (disorder)"
                }
              ]
            },
            "series": "Annual seasonal influenza vaccination",
            "forecastStatus": {
              "coding": [
                {
                  "code": "due",
                  "system": "http://terminology.hl7.org/CodeSystem/immunization-recommendation-status",
                  "display": "Due"
                }
              ]
            }
          }
        ],
        "text": {
          "status": "generated",
          "div": "<div xmlns=\"http://www.w3.org/1999/xhtml\"><table class=\"hl7__ips\"><tr><td>Vaccine product containing only Influenza virus antigen (medicinal product)</td><td><span class=\"nb\">01-Oct-2025</span></td><td>Annual seasonal influenza vaccination</td></tr></table></div>"
        },
        "date": "2025-10-22",
        "patient": {
          "reference": "urn:uuid:e2677183-346a-4e54-a73f-3b765d2dd339",
          "display": "Ludmila Vávrová"
        }
      }
    },
    {
      "fullUrl": "urn:uuid:b85fac7f-0909-4495-8159-1bcf89133fd4",
      "resource": {
        "resourceType": "Observation",
        "id": "b85fac7f-0909-4495-8159-1bcf89133fd4",
        "meta": {
          "profile": [
            "http://hl7.org/fhir/StructureDefinition/vitalsigns"
          ]
        },
        "category": [
          {
            "coding": [
              {
                "system": "http://terminology.hl7.org/CodeSystem/observation-category",
                "code": "vital-signs",
                "display": "Vital Signs"
              }
            ]
          }
        ],
        "valueQuantity": {
          "value": 170.6,
          "code": "cm",
          "unit": "cm"
        },
        "text": {
          "status": "generated",
          "div": "<div xmlns=\"http://www.w3.org/1999/xhtml\"><table class=\"hl7__ips\"><tr><th>Vital Sign</th><th>Date</th><th>Measurement</th></tr><tr><td>Body Height</td><td>27-Nov-2024</td><td>170.6 cm</td></tr></table></div>"
        },
        "status": "final",
        "code": {
          "coding": [
            {
              "code": "$8302-2",
              "system": "http://loinc.org",
              "display": "Body Height"
            }
          ]
        },
        "subject": {
          "reference": "urn:uuid:e2677183-346a-4e54-a73f-3b765d2dd339",
          "display": "Ludmila Vávrová"
        },
        "effectiveDateTime": "2024-11-27"
      }
    },
    {
      "fullUrl": "urn:uuid:0f8f7a20-0d8c-4e3e-b50b-131ec60093cf",
      "resource": {
        "resourceType": "Observation",
        "id": "0f8f7a20-0d8c-4e3e-b50b-131ec60093cf",
        "meta": {
          "profile": [
            "http://hl7.org/fhir/StructureDefinition/vitalsigns"
          ]
        },
        "category": [
          {
            "coding": [
              {
                "system": "http://terminology.hl7.org/CodeSystem/observation-category",
                "code": "vital-signs",
                "display": "Vital Signs"
              }
            ]
          }
        ],
        "valueQuantity": {
          "value": 1,
          "code": "{score}",
          "unit": "{score}"
        },
        "text": {
          "status": "generated",
          "div": "<div xmlns=\"http://www.w3.org/1999/xhtml\"><table class=\"hl7__ips\"><tr><th>Vital Sign</th><th>Date</th><th>Measurement</th></tr><tr><td>Pain severity - 0-10 verbal numeric rating [Score] - Reported</td><td>27-Nov-2024</td><td>1 {score}</td></tr></table></div>"
        },
        "status": "final",
        "code": {
          "coding": [
            {
              "code": "$72514-3",
              "system": "http://loinc.org",
              "display": "Pain severity - 0-10 verbal numeric rating [Score] - Reported"
            }
          ]
        },
        "subject": {
          "reference": "urn:uuid:e2677183-346a-4e54-a73f-3b765d2dd339",
          "display": "Ludmila Vávrová"
        },
        "effectiveDateTime": "2024-11-27"
      }
    },
    {
      "fullUrl": "urn:uuid:9b5a392d-6034-489a-9fba-707482ae35d6",
      "resource": {
        "resourceType": "Observation",
        "id": "9b5a392d-6034-489a-9fba-707482ae35d6",
        "meta": {
          "profile": [
            "http://hl7.org/fhir/StructureDefinition/vitalsigns"
          ]
        },
        "category": [
          {
            "coding": [
              {
                "system": "http://terminology.hl7.org/CodeSystem/observation-category",
                "code": "vital-signs",
                "display": "Vital Signs"
              }
            ]
          }
        ],
        "valueQuantity": {
          "value": 79.7,
          "code": "kg",
          "unit": "kg"
        },
        "text": {
          "status": "generated",
          "div": "<div xmlns=\"http://www.w3.org/1999/xhtml\"><table class=\"hl7__ips\"><tr><th>Vital Sign</th><th>Date</th><th>Measurement</th></tr><tr><td>Body Weight</td><td>27-Nov-2024</td><td>79.7 kg</td></tr></table></div>"
        },
        "status": "final",
        "code": {
          "coding": [
            {
              "code": "$29463-7",
              "system": "http://loinc.org",
              "display": "Body Weight"
            }
          ]
        },
        "subject": {
          "reference": "urn:uuid:e2677183-346a-4e54-a73f-3b765d2dd339",
          "display": "Ludmila Vávrová"
        },
        "effectiveDateTime": "2024-11-27"
      }
    },
    {
      "fullUrl": "urn:uuid:a45362ef-4221-418f-8de6-f4bc6299ff2d",
      "resource": {
        "resourceType": "Observation",
        "id": "a45362ef-4221-418f-8de6-f4bc6299ff2d",
        "meta": {
          "profile": [
            "http://hl7.org/fhir/StructureDefinition/vitalsigns"
          ]
        },
        "category": [
          {
            "coding": [
              {
                "system": "http://terminology.hl7.org/CodeSystem/observation-category",
                "code": "vital-signs",
                "display": "Vital Signs"
              }
            ]
          }
        ],
        "valueQuantity": {
          "value": 27.4,
          "code": "kg/m2",
          "unit": "kg/m2"
        },
        "text": {
          "status": "generated",
          "div": "<div xmlns=\"http://www.w3.org/1999/xhtml\"><table class=\"hl7__ips\"><tr><th>Vital Sign</th><th>Date</th><th>Measurement</th></tr><tr><td>Body mass index (BMI) [Ratio]</td><td>27-Nov-2024</td><td>27.4 kg/m2</td></tr></table></div>"
        },
        "status": "final",
        "code": {
          "coding": [
            {
              "code": "$39156-5",
              "system": "http://loinc.org",
              "display": "Body mass index (BMI) [Ratio]"
            }
          ]
        },
        "subject": {
          "reference": "urn:uuid:e2677183-346a-4e54-a73f-3b765d2dd339",
          "display": "Ludmila Vávrová"
        },
        "effectiveDateTime": "2024-11-27"
      }
    },
    {
      "fullUrl": "urn:uuid:832912a6-f58c-4fc6-80b3-b7cbf19e8f1b",
      "resource": {
        "resourceType": "Observation",
        "id": "832912a6-f58c-4fc6-80b3-b7cbf19e8f1b",
        "meta": {
          "profile": [
            "http://hl7.org/fhir/StructureDefinition/vitalsigns"
          ]
        },
        "category": [
          {
            "coding": [
              {
                "system": "http://terminology.hl7.org/CodeSystem/observation-category",
                "code": "vital-signs",
                "display": "Vital Signs"
              }
            ]
          }
        ],
        "valueQuantity": {
          "value": 61,
          "code": "mm[Hg]",
          "unit": "mm[Hg]"
        },
        "text": {
          "status": "generated",
          "div": "<div xmlns=\"http://www.w3.org/1999/xhtml\"><table class=\"hl7__ips\"><tr><th>Vital Sign</th><th>Date</th><th>Measurement</th></tr><tr><td>Diastolic Blood Pressure</td><td>27-Nov-2024</td><td>61 mm[Hg]</td></tr></table></div>"
        },
        "status": "final",
        "code": {
          "coding": [
            {
              "code": "$8462-4",
              "system": "http://loinc.org",
              "display": "Diastolic Blood Pressure"
            }
          ]
        },
        "subject": {
          "reference": "urn:uuid:e2677183-346a-4e54-a73f-3b765d2dd339",
          "display": "Ludmila Vávrová"
        },
        "effectiveDateTime": "2024-11-27"
      }
    },
    {
      "fullUrl": "urn:uuid:1614593f-068a-47b4-8129-3348e21bcd15",
      "resource": {
        "resourceType": "Observation",
        "id": "1614593f-068a-47b4-8129-3348e21bcd15",
        "meta": {
          "profile": [
            "http://hl7.org/fhir/StructureDefinition/vitalsigns"
          ]
        },
        "category": [
          {
            "coding": [
              {
                "system": "http://terminology.hl7.org/CodeSystem/observation-category",
                "code": "vital-signs",
                "display": "Vital Signs"
              }
            ]
          }
        ],
        "valueQuantity": {
          "value": 132,
          "code": "mm[Hg]",
          "unit": "mm[Hg]"
        },
        "text": {
          "status": "generated",
          "div": "<div xmlns=\"http://www.w3.org/1999/xhtml\"><table class=\"hl7__ips\"><tr><th>Vital Sign</th><th>Date</th><th>Measurement</th></tr><tr><td>Systolic Blood Pressure</td><td>27-Nov-2024</td><td>132 mm[Hg]</td></tr></table></div>"
        },
        "status": "final",
        "code": {
          "coding": [
            {
              "code": "$8480-6",
              "system": "http://loinc.org",
              "display": "Systolic Blood Pressure"
            }
          ]
        },
        "subject": {
          "reference": "urn:uuid:e2677183-346a-4e54-a73f-3b765d2dd339",
          "display": "Ludmila Vávrová"
        },
        "effectiveDateTime": "2024-11-27"
      }
    },
    {
      "fullUrl": "urn:uuid:5aac31f5-beb0-4896-99e9-668fc33295d6",
      "resource": {
        "resourceType": "Observation",
        "id": "5aac31f5-beb0-4896-99e9-668fc33295d6",
        "meta": {
          "profile": [
            "http://hl7.org/fhir/StructureDefinition/vitalsigns"
          ]
        },
        "category": [
          {
            "coding": [
              {
                "system": "http://terminology.hl7.org/CodeSystem/observation-category",
                "code": "vital-signs",
                "display": "Vital Signs"
              }
            ]
          }
        ],
        "valueQuantity": {
          "value": 82,
          "code": "/min",
          "unit": "/min"
        },
        "text": {
          "status": "generated",
          "div": "<div xmlns=\"http://www.w3.org/1999/xhtml\"><table class=\"hl7__ips\"><tr><th>Vital Sign</th><th>Date</th><th>Measurement</th></tr><tr><td>Heart rate</td><td>27-Nov-2024</td><td>82 /min</td></tr></table></div>"
        },
        "status": "final",
        "code": {
          "coding": [
            {
              "code": "$8867-4",
              "system": "http://loinc.org",
              "display": "Heart rate"
            }
          ]
        },
        "subject": {
          "reference": "urn:uuid:e2677183-346a-4e54-a73f-3b765d2dd339",
          "display": "Ludmila Vávrová"
        },
        "effectiveDateTime": "2024-11-27"
      }
    },
    {
      "fullUrl": "urn:uuid:3ce60e60-aab0-477f-b5be-0e9a1edf00df",
      "resource": {
        "resourceType": "Observation",
        "id": "3ce60e60-aab0-477f-b5be-0e9a1edf00df",
        "meta": {
          "profile": [
            "http://hl7.org/fhir/StructureDefinition/vitalsigns"
          ]
        },
        "category": [
          {
            "coding": [
              {
                "system": "http://terminology.hl7.org/CodeSystem/observation-category",
                "code": "vital-signs",
                "display": "Vital Signs"
              }
            ]
          }
        ],
        "valueQuantity": {
          "value": 16,
          "code": "/min",
          "unit": "/min"
        },
        "text": {
          "status": "generated",
          "div": "<div xmlns=\"http://www.w3.org/1999/xhtml\"><table class=\"hl7__ips\"><tr><th>Vital Sign</th><th>Date</th><th>Measurement</th></tr><tr><td>Respiratory rate</td><td>27-Nov-2024</td><td>16 /min</td></tr></table></div>"
        },
        "status": "final",
        "code": {
          "coding": [
            {
              "code": "$9279-1",
              "system": "http://loinc.org",
              "display": "Respiratory rate"
            }
          ]
        },
        "subject": {
          "reference": "urn:uuid:e2677183-346a-4e54-a73f-3b765d2dd339",
          "display": "Ludmila Vávrová"
        },
        "effectiveDateTime": "2024-11-27"
      }
    },
    {
      "fullUrl": "urn:uuid:35e68fd3-253b-4a57-9b6e-be0cc96d30e5",
      "resource": {
        "resourceType": "Observation",
        "id": "35e68fd3-253b-4a57-9b6e-be0cc96d30e5",
        "meta": {
          "profile": [
            "http://hl7.org/fhir/StructureDefinition/vitalsigns"
          ]
        },
        "category": [
          {
            "coding": [
              {
                "system": "http://terminology.hl7.org/CodeSystem/observation-category",
                "code": "vital-signs",
                "display": "Vital Signs"
              }
            ]
          }
        ],
        "valueQuantity": {
          "value": 170.6,
          "code": "cm",
          "unit": "cm"
        },
        "text": {
          "status": "generated",
          "div": "<div xmlns=\"http://www.w3.org/1999/xhtml\"><table class=\"hl7__ips\"><tr><th>Vital Sign</th><th>Date</th><th>Measurement</th></tr><tr><td>Body Height</td><td>22-Nov-2023</td><td>170.6 cm</td></tr></table></div>"
        },
        "status": "final",
        "code": {
          "coding": [
            {
              "code": "$8302-2",
              "system": "http://loinc.org",
              "display": "Body Height"
            }
          ]
        },
        "subject": {
          "reference": "urn:uuid:e2677183-346a-4e54-a73f-3b765d2dd339",
          "display": "Ludmila Vávrová"
        },
        "effectiveDateTime": "2023-11-22"
      }
    },
    {
      "fullUrl": "urn:uuid:c4fef15e-9f5e-4e1d-bf96-3b84bfda17d5",
      "resource": {
        "resourceType": "Observation",
        "id": "c4fef15e-9f5e-4e1d-bf96-3b84bfda17d5",
        "meta": {
          "profile": [
            "http://hl7.org/fhir/StructureDefinition/vitalsigns"
          ]
        },
        "category": [
          {
            "coding": [
              {
                "system": "http://terminology.hl7.org/CodeSystem/observation-category",
                "code": "vital-signs",
                "display": "Vital Signs"
              }
            ]
          }
        ],
        "valueQuantity": {
          "value": 2,
          "code": "{score}",
          "unit": "{score}"
        },
        "text": {
          "status": "generated",
          "div": "<div xmlns=\"http://www.w3.org/1999/xhtml\"><table class=\"hl7__ips\"><tr><th>Vital Sign</th><th>Date</th><th>Measurement</th></tr><tr><td>Pain severity - 0-10 verbal numeric rating [Score] - Reported</td><td>22-Nov-2023</td><td>2 {score}</td></tr></table></div>"
        },
        "status": "final",
        "code": {
          "coding": [
            {
              "code": "$72514-3",
              "system": "http://loinc.org",
              "display": "Pain severity - 0-10 verbal numeric rating [Score] - Reported"
            }
          ]
        },
        "subject": {
          "reference": "urn:uuid:e2677183-346a-4e54-a73f-3b765d2dd339",
          "display": "Ludmila Vávrová"
        },
        "effectiveDateTime": "2023-11-22"
      }
    },
    {
      "fullUrl": "urn:uuid:cd6fc11a-5d5a-4900-9669-e9d6cbd203c5",
      "resource": {
        "resourceType": "Observation",
        "id": "cd6fc11a-5d5a-4900-9669-e9d6cbd203c5",
        "meta": {
          "profile": [
            "http://hl7.org/fhir/StructureDefinition/vitalsigns"
          ]
        },
        "category": [
          {
            "coding": [
              {
                "system": "http://terminology.hl7.org/CodeSystem/observation-category",
                "code": "vital-signs",
                "display": "Vital Signs"
              }
            ]
          }
        ],
        "valueQuantity": {
          "value": 79.7,
          "code": "kg",
          "unit": "kg"
        },
        "text": {
          "status": "generated",
          "div": "<div xmlns=\"http://www.w3.org/1999/xhtml\"><table class=\"hl7__ips\"><tr><th>Vital Sign</th><th>Date</th><th>Measurement</th></tr><tr><td>Body Weight</td><td>22-Nov-2023</td><td>79.7 kg</td></tr></table></div>"
        },
        "status": "final",
        "code": {
          "coding": [
            {
              "code": "$29463-7",
              "system": "http://loinc.org",
              "display": "Body Weight"
            }
          ]
        },
        "subject": {
          "reference": "urn:uuid:e2677183-346a-4e54-a73f-3b765d2dd339",
          "display": "Ludmila Vávrová"
        },
        "effectiveDateTime": "2023-11-22"
      }
    },
    {
      "fullUrl": "urn:uuid:ede7beca-4add-4a4d-904f-b82182ab722c",
      "resource": {
        "resourceType": "Observation",
        "id": "ede7beca-4add-4a4d-904f-b82182ab722c",
        "meta": {
          "profile": [
            "http://hl7.org/fhir/StructureDefinition/vitalsigns"
          ]
        },
        "category": [
          {
            "coding": [
              {
                "system": "http://terminology.hl7.org/CodeSystem/observation-category",
                "code": "vital-signs",
                "display": "Vital Signs"
              }
            ]
          }
        ],
        "valueQuantity": {
          "value": 27.4,
          "code": "kg/m2",
          "unit": "kg/m2"
        },
        "text": {
          "status": "generated",
          "div": "<div xmlns=\"http://www.w3.org/1999/xhtml\"><table class=\"hl7__ips\"><tr><th>Vital Sign</th><th>Date</th><th>Measurement</th></tr><tr><td>Body mass index (BMI) [Ratio]</td><td>22-Nov-2023</td><td>27.4 kg/m2</td></tr></table></div>"
        },
        "status": "final",
        "code": {
          "coding": [
            {
              "code": "$39156-5",
              "system": "http://loinc.org",
              "display": "Body mass index (BMI) [Ratio]"
            }
          ]
        },
        "subject": {
          "reference": "urn:uuid:e2677183-346a-4e54-a73f-3b765d2dd339",
          "display": "Ludmila Vávrová"
        },
        "effectiveDateTime": "2023-11-22"
      }
    },
    {
      "fullUrl": "urn:uuid:71523ccd-3f8a-434e-9314-ce759ddc8bc1",
      "resource": {
        "resourceType": "Observation",
        "id": "71523ccd-3f8a-434e-9314-ce759ddc8bc1",
        "meta": {
          "profile": [
            "http://hl7.org/fhir/StructureDefinition/vitalsigns"
          ]
        },
        "category": [
          {
            "coding": [
              {
                "system": "http://terminology.hl7.org/CodeSystem/observation-category",
                "code": "vital-signs",
                "display": "Vital Signs"
              }
            ]
          }
        ],
        "valueQuantity": {
          "value": 64,
          "code": "mm[Hg]",
          "unit": "mm[Hg]"
        },
        "text": {
          "status": "generated",
          "div": "<div xmlns=\"http://www.w3.org/1999/xhtml\"><table class=\"hl7__ips\"><tr><th>Vital Sign</th><th>Date</th><th>Measurement</th></tr><tr><td>Diastolic Blood Pressure</td><td>22-Nov-2023</td><td>64 mm[Hg]</td></tr></table></div>"
        },
        "status": "final",
        "code": {
          "coding": [
            {
              "code": "$8462-4",
              "system": "http://loinc.org",
              "display": "Diastolic Blood Pressure"
            }
          ]
        },
        "subject": {
          "reference": "urn:uuid:e2677183-346a-4e54-a73f-3b765d2dd339",
          "display": "Ludmila Vávrová"
        },
        "effectiveDateTime": "2023-11-22"
      }
    },
    {
      "fullUrl": "urn:uuid:4454d224-399c-40fc-bc5b-9dbc63f88197",
      "resource": {
        "resourceType": "Observation",
        "id": "4454d224-399c-40fc-bc5b-9dbc63f88197",
        "meta": {
          "profile": [
            "http://hl7.org/fhir/StructureDefinition/vitalsigns"
          ]
        },
        "category": [
          {
            "coding": [
              {
                "system": "http://terminology.hl7.org/CodeSystem/observation-category",
                "code": "vital-signs",
                "display": "Vital Signs"
              }
            ]
          }
        ],
        "valueQuantity": {
          "value": 122,
          "code": "mm[Hg]",
          "unit": "mm[Hg]"
        },
        "text": {
          "status": "generated",
          "div": "<div xmlns=\"http://www.w3.org/1999/xhtml\"><table class=\"hl7__ips\"><tr><th>Vital Sign</th><th>Date</th><th>Measurement</th></tr><tr><td>Systolic Blood Pressure</td><td>22-Nov-2023</td><td>122 mm[Hg]</td></tr></table></div>"
        },
        "status": "final",
        "code": {
          "coding": [
            {
              "code": "$8480-6",
              "system": "http://loinc.org",
              "display": "Systolic Blood Pressure"
            }
          ]
        },
        "subject": {
          "reference": "urn:uuid:e2677183-346a-4e54-a73f-3b765d2dd339",
          "display": "Ludmila Vávrová"
        },
        "effectiveDateTime": "2023-11-22"
      }
    },
    {
      "fullUrl": "urn:uuid:59632b1b-2937-4cb2-a919-be59c68989a4",
      "resource": {
        "resourceType": "Observation",
        "id": "59632b1b-2937-4cb2-a919-be59c68989a4",
        "meta": {
          "profile": [
            "http://hl7.org/fhir/StructureDefinition/vitalsigns"
          ]
        },
        "category": [
          {
            "coding": [
              {
                "system": "http://terminology.hl7.org/CodeSystem/observation-category",
                "code": "vital-signs",
                "display": "Vital Signs"
              }
            ]
          }
        ],
        "valueQuantity": {
          "value": 80,
          "code": "/min",
          "unit": "/min"
        },
        "text": {
          "status": "generated",
          "div": "<div xmlns=\"http://www.w3.org/1999/xhtml\"><table class=\"hl7__ips\"><tr><th>Vital Sign</th><th>Date</th><th>Measurement</th></tr><tr><td>Heart rate</td><td>22-Nov-2023</td><td>80 /min</td></tr></table></div>"
        },
        "status": "final",
        "code": {
          "coding": [
            {
              "code": "$8867-4",
              "system": "http://loinc.org",
              "display": "Heart rate"
            }
          ]
        },
        "subject": {
          "reference": "urn:uuid:e2677183-346a-4e54-a73f-3b765d2dd339",
          "display": "Ludmila Vávrová"
        },
        "effectiveDateTime": "2023-11-22"
      }
    },
    {
      "fullUrl": "urn:uuid:7a18e4ea-9ac2-4309-ad58-5c3e269bde36",
      "resource": {
        "resourceType": "Observation",
        "id": "7a18e4ea-9ac2-4309-ad58-5c3e269bde36",
        "meta": {
          "profile": [
            "http://hl7.org/fhir/StructureDefinition/vitalsigns"
          ]
        },
        "category": [
          {
            "coding": [
              {
                "system": "http://terminology.hl7.org/CodeSystem/observation-category",
                "code": "vital-signs",
                "display": "Vital Signs"
              }
            ]
          }
        ],
        "valueQuantity": {
          "value": 14,
          "code": "/min",
          "unit": "/min"
        },
        "text": {
          "status": "generated",
          "div": "<div xmlns=\"http://www.w3.org/1999/xhtml\"><table class=\"hl7__ips\"><tr><th>Vital Sign</th><th>Date</th><th>Measurement</th></tr><tr><td>Respiratory rate</td><td>22-Nov-2023</td><td>14 /min</td></tr></table></div>"
        },
        "status": "final",
        "code": {
          "coding": [
            {
              "code": "$9279-1",
              "system": "http://loinc.org",
              "display": "Respiratory rate"
            }
          ]
        },
        "subject": {
          "reference": "urn:uuid:e2677183-346a-4e54-a73f-3b765d2dd339",
          "display": "Ludmila Vávrová"
        },
        "effectiveDateTime": "2023-11-22"
      }
    },
    {
      "fullUrl": "urn:uuid:56fbd016-e053-4761-906f-cf62aafe2927",
      "resource": {
        "resourceType": "Observation",
        "id": "56fbd016-e053-4761-906f-cf62aafe2927",
        "meta": {
          "profile": [
            "http://hl7.eu/fhir/laboratory/StructureDefinition/Observation-resultslab-eu-lab"
          ]
        },
        "performer": [
          {
            "display": "The Central European Lab"
          }
        ],
        "category": [
          {
            "coding": [
              {
                "system": "http://terminology.hl7.org/CodeSystem/observation-category",
                "code": "laboratory"
              }
            ]
          }
        ],
        "code": {
          "coding": [
            {
              "code": "2339-0",
              "system": "http://loinc.org",
              "display": "Glucose [Mass/volume] in Blood"
            }
          ],
          "text": "Glucose [Mass/volume] in Blood"
        },
        "valueQuantity": {
          "system": "http://unitsofmeasure.org",
          "value": 64.9,
          "unit": "mg/dL",
          "code": "mg/dL"
        },
        "referenceRange": [
          {
            "low": {
              "value": 70,
              "code": "mg/dL",
              "system": "http://unitsofmeasure.org"
            }
          },
          {
            "high": {
              "value": 140,
              "code": "mg/dL",
              "system": "http://unitsofmeasure.org"
            }
          }
        ],
        "interpretation": [
          {
            "coding": [
              {
                "code": "L",
                "system": "http://terminology.hl7.org/CodeSystem/v3-ObservationInterpretation",
                "display": "Low"
              }
            ]
          }
        ],
        "text": {
          "status": "generated",
          "div": "<div xmlns=\"http://www.w3.org/1999/xhtml\"><table class=\"hl7__eu__lab__report\"><tr><th>Test</th><th>04-Dec-2024</th><th>Reference&#xA0;Range</th><th>Unit</th></tr><tr><td>Glucose [Mass/volume] in Blood</td><td>64.9</td><td>70 - 140</td><td>L</td><td>mg/dL</td></tr></table></div>"
        },
        "status": "final",
        "subject": {
          "reference": "urn:uuid:e2677183-346a-4e54-a73f-3b765d2dd339",
          "display": "Ludmila Vávrová"
        },
        "effectiveDateTime": "2024-12-04T03:51:38Z"
      }
    },
    {
      "fullUrl": "urn:uuid:ed6f7206-e52c-48a2-80ac-cda827ece1d2",
      "resource": {
        "resourceType": "Observation",
        "id": "ed6f7206-e52c-48a2-80ac-cda827ece1d2",
        "meta": {
          "profile": [
            "http://hl7.eu/fhir/laboratory/StructureDefinition/Observation-resultslab-eu-lab"
          ]
        },
        "performer": [
          {
            "display": "The Central European Lab"
          }
        ],
        "category": [
          {
            "coding": [
              {
                "system": "http://terminology.hl7.org/CodeSystem/observation-category",
                "code": "laboratory"
              }
            ]
          }
        ],
        "code": {
          "coding": [
            {
              "code": "6299-2",
              "system": "http://loinc.org",
              "display": "Urea nitrogen [Mass/volume] in Blood"
            }
          ],
          "text": "Urea nitrogen [Mass/volume] in Blood"
        },
        "valueQuantity": {
          "system": "http://unitsofmeasure.org",
          "value": 15.3,
          "unit": "mg/dL",
          "code": "mg/dL"
        },
        "referenceRange": [
          {
            "low": {
              "value": 7,
              "code": "mg/dL",
              "system": "http://unitsofmeasure.org"
            }
          },
          {
            "high": {
              "value": 25,
              "code": "mg/dL",
              "system": "http://unitsofmeasure.org"
            }
          }
        ],
        "text": {
          "status": "generated",
          "div": "<div xmlns=\"http://www.w3.org/1999/xhtml\"><table class=\"hl7__eu__lab__report\"><tr><th>Test</th><th>04-Dec-2024</th><th>Reference&#xA0;Range</th><th>Unit</th></tr><tr><td>Urea nitrogen [Mass/volume] in Blood</td><td>15.3</td><td>7 - 25</td><td></td><td>mg/dL</td></tr></table></div>"
        },
        "status": "final",
        "subject": {
          "reference": "urn:uuid:e2677183-346a-4e54-a73f-3b765d2dd339",
          "display": "Ludmila Vávrová"
        },
        "effectiveDateTime": "2024-12-04T03:51:38Z"
      }
    },
    {
      "fullUrl": "urn:uuid:abc10b7d-9d28-4616-b2e1-581ee8e132da",
      "resource": {
        "resourceType": "Observation",
        "id": "abc10b7d-9d28-4616-b2e1-581ee8e132da",
        "meta": {
          "profile": [
            "http://hl7.eu/fhir/laboratory/StructureDefinition/Observation-resultslab-eu-lab"
          ]
        },
        "performer": [
          {
            "display": "The Central European Lab"
          }
        ],
        "category": [
          {
            "coding": [
              {
                "system": "http://terminology.hl7.org/CodeSystem/observation-category",
                "code": "laboratory"
              }
            ]
          }
        ],
        "code": {
          "coding": [
            {
              "code": "38483-4",
              "system": "http://loinc.org",
              "display": "Creatinine [Mass/volume] in Blood"
            }
          ],
          "text": "Creatinine [Mass/volume] in Blood"
        },
        "valueQuantity": {
          "system": "http://unitsofmeasure.org",
          "value": 3.4,
          "unit": "mg/dL",
          "code": "mg/dL"
        },
        "referenceRange": [
          {
            "low": {
              "value": 0.6,
              "code": "mg/dL",
              "system": "http://unitsofmeasure.org"
            }
          },
          {
            "high": {
              "value": 1.1,
              "code": "mg/dL",
              "system": "http://unitsofmeasure.org"
            }
          }
        ],
        "interpretation": [
          {
            "coding": [
              {
                "code": "H",
                "system": "http://terminology.hl7.org/CodeSystem/v3-ObservationInterpretation",
                "display": "High"
              }
            ]
          }
        ],
        "text": {
          "status": "generated",
          "div": "<div xmlns=\"http://www.w3.org/1999/xhtml\"><table class=\"hl7__eu__lab__report\"><tr><th>Test</th><th>04-Dec-2024</th><th>Reference&#xA0;Range</th><th>Unit</th></tr><tr><td>Creatinine [Mass/volume] in Blood</td><td>3.4</td><td>0.6 - 1.1</td><td>H</td><td>mg/dL</td></tr></table></div>"
        },
        "status": "final",
        "subject": {
          "reference": "urn:uuid:e2677183-346a-4e54-a73f-3b765d2dd339",
          "display": "Ludmila Vávrová"
        },
        "effectiveDateTime": "2024-12-04T03:51:38Z"
      }
    },
    {
      "fullUrl": "urn:uuid:2b5deb1a-d22f-4e0d-82a2-6f4ec371a14e",
      "resource": {
        "resourceType": "Observation",
        "id": "2b5deb1a-d22f-4e0d-82a2-6f4ec371a14e",
        "meta": {
          "profile": [
            "http://hl7.eu/fhir/laboratory/StructureDefinition/Observation-resultslab-eu-lab"
          ]
        },
        "performer": [
          {
            "display": "The Central European Lab"
          }
        ],
        "category": [
          {
            "coding": [
              {
                "system": "http://terminology.hl7.org/CodeSystem/observation-category",
                "code": "laboratory"
              }
            ]
          }
        ],
        "code": {
          "coding": [
            {
              "code": "49765-1",
              "system": "http://loinc.org",
              "display": "Calcium [Mass/volume] in Blood"
            }
          ],
          "text": "Calcium [Mass/volume] in Blood"
        },
        "valueQuantity": {
          "system": "http://unitsofmeasure.org",
          "value": 9.8,
          "unit": "mg/dL",
          "code": "mg/dL"
        },
        "referenceRange": [
          {
            "low": {
              "value": 8.6,
              "code": "mg/dL",
              "system": "http://unitsofmeasure.org"
            }
          },
          {
            "high": {
              "value": 10.4,
              "code": "mg/dL",
              "system": "http://unitsofmeasure.org"
            }
          }
        ],
        "text": {
          "status": "generated",
          "div": "<div xmlns=\"http://www.w3.org/1999/xhtml\"><table class=\"hl7__eu__lab__report\"><tr><th>Test</th><th>04-Dec-2024</th><th>Reference&#xA0;Range</th><th>Unit</th></tr><tr><td>Calcium [Mass/volume] in Blood</td><td>9.8</td><td>8.6 - 10.4</td><td></td><td>mg/dL</td></tr></table></div>"
        },
        "status": "final",
        "subject": {
          "reference": "urn:uuid:e2677183-346a-4e54-a73f-3b765d2dd339",
          "display": "Ludmila Vávrová"
        },
        "effectiveDateTime": "2024-12-04T03:51:38Z"
      }
    },
    {
      "fullUrl": "urn:uuid:8edd1563-df6d-4a5d-a97c-70b98dd9d183",
      "resource": {
        "resourceType": "Observation",
        "id": "8edd1563-df6d-4a5d-a97c-70b98dd9d183",
        "meta": {
          "profile": [
            "http://hl7.eu/fhir/laboratory/StructureDefinition/Observation-resultslab-eu-lab"
          ]
        },
        "performer": [
          {
            "display": "The Central European Lab"
          }
        ],
        "category": [
          {
            "coding": [
              {
                "system": "http://terminology.hl7.org/CodeSystem/observation-category",
                "code": "laboratory"
              }
            ]
          }
        ],
        "code": {
          "coding": [
            {
              "code": "2947-0",
              "system": "http://loinc.org",
              "display": "Sodium [Moles/volume] in Blood"
            }
          ],
          "text": "Sodium [Moles/volume] in Blood"
        },
        "valueQuantity": {
          "system": "http://unitsofmeasure.org",
          "value": 142.2,
          "unit": "mmol/L",
          "code": "mmol/L"
        },
        "referenceRange": [
          {
            "low": {
              "value": 135,
              "code": "mmol/L",
              "system": "http://unitsofmeasure.org"
            }
          },
          {
            "high": {
              "value": 145,
              "code": "mmol/L",
              "system": "http://unitsofmeasure.org"
            }
          }
        ],
        "text": {
          "status": "generated",
          "div": "<div xmlns=\"http://www.w3.org/1999/xhtml\"><table class=\"hl7__eu__lab__report\"><tr><th>Test</th><th>04-Dec-2024</th><th>Reference&#xA0;Range</th><th>Unit</th></tr><tr><td>Sodium [Moles/volume] in Blood</td><td>142.2</td><td>135 - 145</td><td></td><td>mmol/L</td></tr></table></div>"
        },
        "status": "final",
        "subject": {
          "reference": "urn:uuid:e2677183-346a-4e54-a73f-3b765d2dd339",
          "display": "Ludmila Vávrová"
        },
        "effectiveDateTime": "2024-12-04T03:51:38Z"
      }
    },
    {
      "fullUrl": "urn:uuid:20b280f0-4cf2-4396-852f-03f046477cba",
      "resource": {
        "resourceType": "Observation",
        "id": "20b280f0-4cf2-4396-852f-03f046477cba",
        "meta": {
          "profile": [
            "http://hl7.eu/fhir/laboratory/StructureDefinition/Observation-resultslab-eu-lab"
          ]
        },
        "performer": [
          {
            "display": "The Central European Lab"
          }
        ],
        "category": [
          {
            "coding": [
              {
                "system": "http://terminology.hl7.org/CodeSystem/observation-category",
                "code": "laboratory"
              }
            ]
          }
        ],
        "code": {
          "coding": [
            {
              "code": "6298-4",
              "system": "http://loinc.org",
              "display": "Potassium [Moles/volume] in Blood"
            }
          ],
          "text": "Potassium [Moles/volume] in Blood"
        },
        "valueQuantity": {
          "system": "http://unitsofmeasure.org",
          "value": 4.5,
          "unit": "mmol/L",
          "code": "mmol/L"
        },
        "referenceRange": [
          {
            "low": {
              "value": 3.5,
              "code": "mmol/L",
              "system": "http://unitsofmeasure.org"
            }
          },
          {
            "high": {
              "value": 5.3,
              "code": "mmol/L",
              "system": "http://unitsofmeasure.org"
            }
          }
        ],
        "text": {
          "status": "generated",
          "div": "<div xmlns=\"http://www.w3.org/1999/xhtml\"><table class=\"hl7__eu__lab__report\"><tr><th>Test</th><th>04-Dec-2024</th><th>Reference&#xA0;Range</th><th>Unit</th></tr><tr><td>Potassium [Moles/volume] in Blood</td><td>4.5</td><td>3.5 - 5.3</td><td></td><td>mmol/L</td></tr></table></div>"
        },
        "status": "final",
        "subject": {
          "reference": "urn:uuid:e2677183-346a-4e54-a73f-3b765d2dd339",
          "display": "Ludmila Vávrová"
        },
        "effectiveDateTime": "2024-12-04T03:51:38Z"
      }
    },
    {
      "fullUrl": "urn:uuid:f1d3e9ff-b1c9-4fa5-986a-89a4a9e43b90",
      "resource": {
        "resourceType": "Observation",
        "id": "f1d3e9ff-b1c9-4fa5-986a-89a4a9e43b90",
        "meta": {
          "profile": [
            "http://hl7.eu/fhir/laboratory/StructureDefinition/Observation-resultslab-eu-lab"
          ]
        },
        "performer": [
          {
            "display": "The Central European Lab"
          }
        ],
        "category": [
          {
            "coding": [
              {
                "system": "http://terminology.hl7.org/CodeSystem/observation-category",
                "code": "laboratory"
              }
            ]
          }
        ],
        "code": {
          "coding": [
            {
              "code": "2069-3",
              "system": "http://loinc.org",
              "display": "Chloride [Moles/volume] in Blood"
            }
          ],
          "text": "Chloride [Moles/volume] in Blood"
        },
        "valueQuantity": {
          "system": "http://unitsofmeasure.org",
          "value": 110.2,
          "unit": "mmol/L",
          "code": "mmol/L"
        },
        "referenceRange": [
          {
            "low": {
              "value": 98,
              "code": "mmol/L",
              "system": "http://unitsofmeasure.org"
            }
          },
          {
            "high": {
              "value": 108,
              "code": "mmol/L",
              "system": "http://unitsofmeasure.org"
            }
          }
        ],
        "interpretation": [
          {
            "coding": [
              {
                "code": "H",
                "system": "http://terminology.hl7.org/CodeSystem/v3-ObservationInterpretation",
                "display": "High"
              }
            ]
          }
        ],
        "text": {
          "status": "generated",
          "div": "<div xmlns=\"http://www.w3.org/1999/xhtml\"><table class=\"hl7__eu__lab__report\"><tr><th>Test</th><th>04-Dec-2024</th><th>Reference&#xA0;Range</th><th>Unit</th></tr><tr><td>Chloride [Moles/volume] in Blood</td><td>110.2</td><td>98 - 108</td><td>H</td><td>mmol/L</td></tr></table></div>"
        },
        "status": "final",
        "subject": {
          "reference": "urn:uuid:e2677183-346a-4e54-a73f-3b765d2dd339",
          "display": "Ludmila Vávrová"
        },
        "effectiveDateTime": "2024-12-04T03:51:38Z"
      }
    },
    {
      "fullUrl": "urn:uuid:6cc69f43-ad57-403c-9e94-0af7aa3e8fc7",
      "resource": {
        "resourceType": "Observation",
        "id": "6cc69f43-ad57-403c-9e94-0af7aa3e8fc7",
        "meta": {
          "profile": [
            "http://hl7.eu/fhir/laboratory/StructureDefinition/Observation-resultslab-eu-lab"
          ]
        },
        "performer": [
          {
            "display": "The Central European Lab"
          }
        ],
        "category": [
          {
            "coding": [
              {
                "system": "http://terminology.hl7.org/CodeSystem/observation-category",
                "code": "laboratory"
              }
            ]
          }
        ],
        "code": {
          "coding": [
            {
              "code": "20565-8",
              "system": "http://loinc.org",
              "display": "Carbon dioxide, total [Moles/volume] in Blood"
            }
          ],
          "text": "Carbon dioxide, total [Moles/volume] in Blood"
        },
        "valueQuantity": {
          "system": "http://unitsofmeasure.org",
          "value": 21.2,
          "unit": "mmol/L",
          "code": "mmol/L"
        },
        "referenceRange": [
          {
            "low": {
              "value": 22,
              "code": "mmol/L",
              "system": "http://unitsofmeasure.org"
            }
          },
          {
            "high": {
              "value": 32,
              "code": "mmol/L",
              "system": "http://unitsofmeasure.org"
            }
          }
        ],
        "interpretation": [
          {
            "coding": [
              {
                "code": "L",
                "system": "http://terminology.hl7.org/CodeSystem/v3-ObservationInterpretation",
                "display": "Low"
              }
            ]
          }
        ],
        "text": {
          "status": "generated",
          "div": "<div xmlns=\"http://www.w3.org/1999/xhtml\"><table class=\"hl7__eu__lab__report\"><tr><th>Test</th><th>04-Dec-2024</th><th>Reference&#xA0;Range</th><th>Unit</th></tr><tr><td>Carbon dioxide, total [Moles/volume] in Blood</td><td>21.2</td><td>22 - 32</td><td>L</td><td>mmol/L</td></tr></table></div>"
        },
        "status": "final",
        "subject": {
          "reference": "urn:uuid:e2677183-346a-4e54-a73f-3b765d2dd339",
          "display": "Ludmila Vávrová"
        },
        "effectiveDateTime": "2024-12-04T03:51:38Z"
      }
    },
    {
      "fullUrl": "urn:uuid:d1e02577-5d7e-488c-9642-ad9bba8229d8",
      "resource": {
        "resourceType": "Observation",
        "id": "d1e02577-5d7e-488c-9642-ad9bba8229d8",
        "meta": {
          "profile": [
            "http://hl7.eu/fhir/laboratory/StructureDefinition/Observation-resultslab-eu-lab"
          ]
        },
        "performer": [
          {
            "display": "The Central European Lab"
          }
        ],
        "category": [
          {
            "coding": [
              {
                "system": "http://terminology.hl7.org/CodeSystem/observation-category",
                "code": "laboratory"
              }
            ]
          }
        ],
        "code": {
          "coding": [
            {
              "code": "2885-2",
              "system": "http://loinc.org",
              "display": "Protein [Mass/volume] in Serum or Plasma"
            }
          ],
          "text": "Protein [Mass/volume] in Serum or Plasma"
        },
        "valueQuantity": {
          "system": "http://unitsofmeasure.org",
          "value": 6.1,
          "unit": "g/dL",
          "code": "g/dL"
        },
        "referenceRange": [
          {
            "low": {
              "value": 6.6,
              "code": "g/dL",
              "system": "http://unitsofmeasure.org"
            }
          },
          {
            "high": {
              "value": 8.3,
              "code": "g/dL",
              "system": "http://unitsofmeasure.org"
            }
          }
        ],
        "interpretation": [
          {
            "coding": [
              {
                "code": "L",
                "system": "http://terminology.hl7.org/CodeSystem/v3-ObservationInterpretation",
                "display": "Low"
              }
            ]
          }
        ],
        "text": {
          "status": "generated",
          "div": "<div xmlns=\"http://www.w3.org/1999/xhtml\"><table class=\"hl7__eu__lab__report\"><tr><th>Test</th><th>04-Dec-2024</th><th>Reference&#xA0;Range</th><th>Unit</th></tr><tr><td>Protein [Mass/volume] in Serum or Plasma</td><td>6.1</td><td>6.6 - 8.3</td><td>L</td><td>g/dL</td></tr></table></div>"
        },
        "status": "final",
        "subject": {
          "reference": "urn:uuid:e2677183-346a-4e54-a73f-3b765d2dd339",
          "display": "Ludmila Vávrová"
        },
        "effectiveDateTime": "2024-12-04T03:51:38Z"
      }
    },
    {
      "fullUrl": "urn:uuid:671f9e0e-081b-4744-9593-fb9727fa66b7",
      "resource": {
        "resourceType": "Observation",
        "id": "671f9e0e-081b-4744-9593-fb9727fa66b7",
        "meta": {
          "profile": [
            "http://hl7.eu/fhir/laboratory/StructureDefinition/Observation-resultslab-eu-lab"
          ]
        },
        "performer": [
          {
            "display": "The Central European Lab"
          }
        ],
        "category": [
          {
            "coding": [
              {
                "system": "http://terminology.hl7.org/CodeSystem/observation-category",
                "code": "laboratory"
              }
            ]
          }
        ],
        "code": {
          "coding": [
            {
              "code": "1751-7",
              "system": "http://loinc.org",
              "display": "Albumin [Mass/volume] in Serum or Plasma"
            }
          ],
          "text": "Albumin [Mass/volume] in Serum or Plasma"
        },
        "valueQuantity": {
          "system": "http://unitsofmeasure.org",
          "value": 4.4,
          "unit": "g/dL",
          "code": "g/dL"
        },
        "referenceRange": [
          {
            "low": {
              "value": 3.5,
              "code": "g/dL",
              "system": "http://unitsofmeasure.org"
            }
          },
          {
            "high": {
              "value": 5.5,
              "code": "g/dL",
              "system": "http://unitsofmeasure.org"
            }
          }
        ],
        "text": {
          "status": "generated",
          "div": "<div xmlns=\"http://www.w3.org/1999/xhtml\"><table class=\"hl7__eu__lab__report\"><tr><th>Test</th><th>04-Dec-2024</th><th>Reference&#xA0;Range</th><th>Unit</th></tr><tr><td>Albumin [Mass/volume] in Serum or Plasma</td><td>4.4</td><td>3.5 - 5.5</td><td></td><td>g/dL</td></tr></table></div>"
        },
        "status": "final",
        "subject": {
          "reference": "urn:uuid:e2677183-346a-4e54-a73f-3b765d2dd339",
          "display": "Ludmila Vávrová"
        },
        "effectiveDateTime": "2024-12-04T03:51:38Z"
      }
    },
    {
      "fullUrl": "urn:uuid:c4e5557b-32ad-455c-848c-f68b7261cac0",
      "resource": {
        "resourceType": "Observation",
        "id": "c4e5557b-32ad-455c-848c-f68b7261cac0",
        "meta": {
          "profile": [
            "http://hl7.eu/fhir/laboratory/StructureDefinition/Observation-resultslab-eu-lab"
          ]
        },
        "performer": [
          {
            "display": "The Central European Lab"
          }
        ],
        "category": [
          {
            "coding": [
              {
                "system": "http://terminology.hl7.org/CodeSystem/observation-category",
                "code": "laboratory"
              }
            ]
          }
        ],
        "code": {
          "coding": [
            {
              "code": "10834-0",
              "system": "http://loinc.org",
              "display": "Globulin [Mass/volume] in Serum by calculation"
            }
          ],
          "text": "Globulin [Mass/volume] in Serum by calculation"
        },
        "valueQuantity": {
          "system": "http://unitsofmeasure.org",
          "value": 3,
          "unit": "g/L",
          "code": "g/L"
        },
        "referenceRange": [
          {
            "low": {
              "value": 2.2,
              "code": "g/L",
              "system": "http://unitsofmeasure.org"
            }
          },
          {
            "high": {
              "value": 3.7,
              "code": "g/L",
              "system": "http://unitsofmeasure.org"
            }
          }
        ],
        "text": {
          "status": "generated",
          "div": "<div xmlns=\"http://www.w3.org/1999/xhtml\"><table class=\"hl7__eu__lab__report\"><tr><th>Test</th><th>04-Dec-2024</th><th>Reference&#xA0;Range</th><th>Unit</th></tr><tr><td>Globulin [Mass/volume] in Serum by calculation</td><td>3.0</td><td>2.2 - 3.7</td><td></td><td>g/L</td></tr></table></div>"
        },
        "status": "final",
        "subject": {
          "reference": "urn:uuid:e2677183-346a-4e54-a73f-3b765d2dd339",
          "display": "Ludmila Vávrová"
        },
        "effectiveDateTime": "2024-12-04T03:51:38Z"
      }
    },
    {
      "fullUrl": "urn:uuid:f6b53785-34a4-48e4-a59b-16f6b495f231",
      "resource": {
        "resourceType": "Observation",
        "id": "f6b53785-34a4-48e4-a59b-16f6b495f231",
        "meta": {
          "profile": [
            "http://hl7.eu/fhir/laboratory/StructureDefinition/Observation-resultslab-eu-lab"
          ]
        },
        "performer": [
          {
            "display": "The Central European Lab"
          }
        ],
        "category": [
          {
            "coding": [
              {
                "system": "http://terminology.hl7.org/CodeSystem/observation-category",
                "code": "laboratory"
              }
            ]
          }
        ],
        "code": {
          "coding": [
            {
              "code": "1975-2",
              "system": "http://loinc.org",
              "display": "Bilirubin.total [Mass/volume] in Serum or Plasma"
            }
          ],
          "text": "Bilirubin.total [Mass/volume] in Serum or Plasma"
        },
        "valueQuantity": {
          "system": "http://unitsofmeasure.org",
          "value": 0.6,
          "unit": "mg/dL",
          "code": "mg/dL"
        },
        "referenceRange": [
          {
            "low": {
              "value": 0.3,
              "code": "mg/dL",
              "system": "http://unitsofmeasure.org"
            }
          },
          {
            "high": {
              "value": 1.2,
              "code": "mg/dL",
              "system": "http://unitsofmeasure.org"
            }
          }
        ],
        "text": {
          "status": "generated",
          "div": "<div xmlns=\"http://www.w3.org/1999/xhtml\"><table class=\"hl7__eu__lab__report\"><tr><th>Test</th><th>04-Dec-2024</th><th>Reference&#xA0;Range</th><th>Unit</th></tr><tr><td>Bilirubin.total [Mass/volume] in Serum or Plasma</td><td>0.6</td><td>0.3 - 1.2</td><td></td><td>mg/dL</td></tr></table></div>"
        },
        "status": "final",
        "subject": {
          "reference": "urn:uuid:e2677183-346a-4e54-a73f-3b765d2dd339",
          "display": "Ludmila Vávrová"
        },
        "effectiveDateTime": "2024-12-04T03:51:38Z"
      }
    },
    {
      "fullUrl": "urn:uuid:5adef732-cec6-49d8-883d-34f6bcf900b1",
      "resource": {
        "resourceType": "Observation",
        "id": "5adef732-cec6-49d8-883d-34f6bcf900b1",
        "meta": {
          "profile": [
            "http://hl7.eu/fhir/laboratory/StructureDefinition/Observation-resultslab-eu-lab"
          ]
        },
        "performer": [
          {
            "display": "The Central European Lab"
          }
        ],
        "category": [
          {
            "coding": [
              {
                "system": "http://terminology.hl7.org/CodeSystem/observation-category",
                "code": "laboratory"
              }
            ]
          }
        ],
        "code": {
          "coding": [
            {
              "code": "6768-6",
              "system": "http://loinc.org",
              "display": "Alkaline phosphatase [Enzymatic activity/volume] in Serum or Plasma"
            }
          ],
          "text": "Alkaline phosphatase [Enzymatic activity/volume] in Serum or Plasma"
        },
        "valueQuantity": {
          "system": "http://unitsofmeasure.org",
          "value": 87.8,
          "unit": "U/L",
          "code": "U/L"
        },
        "referenceRange": [
          {
            "low": {
              "value": 40,
              "code": "U/L",
              "system": "http://unitsofmeasure.org"
            }
          },
          {
            "high": {
              "value": 130,
              "code": "U/L",
              "system": "http://unitsofmeasure.org"
            }
          }
        ],
        "text": {
          "status": "generated",
          "div": "<div xmlns=\"http://www.w3.org/1999/xhtml\"><table class=\"hl7__eu__lab__report\"><tr><th>Test</th><th>04-Dec-2024</th><th>Reference&#xA0;Range</th><th>Unit</th></tr><tr><td>Alkaline phosphatase [Enzymatic activity/volume] in Serum or Plasma</td><td>87.8</td><td>40 - 130</td><td></td><td>U/L</td></tr></table></div>"
        },
        "status": "final",
        "subject": {
          "reference": "urn:uuid:e2677183-346a-4e54-a73f-3b765d2dd339",
          "display": "Ludmila Vávrová"
        },
        "effectiveDateTime": "2024-12-04T03:51:38Z"
      }
    },
    {
      "fullUrl": "urn:uuid:702a6e5c-f8e1-4909-80ed-17a10b0121db",
      "resource": {
        "resourceType": "Observation",
        "id": "702a6e5c-f8e1-4909-80ed-17a10b0121db",
        "meta": {
          "profile": [
            "http://hl7.eu/fhir/laboratory/StructureDefinition/Observation-resultslab-eu-lab"
          ]
        },
        "performer": [
          {
            "display": "The Central European Lab"
          }
        ],
        "category": [
          {
            "coding": [
              {
                "system": "http://terminology.hl7.org/CodeSystem/observation-category",
                "code": "laboratory"
              }
            ]
          }
        ],
        "code": {
          "coding": [
            {
              "code": "1742-6",
              "system": "http://loinc.org",
              "display": "Alanine aminotransferase [Enzymatic activity/volume] in Serum or Plasma"
            }
          ],
          "text": "Alanine aminotransferase [Enzymatic activity/volume] in Serum or Plasma"
        },
        "valueQuantity": {
          "system": "http://unitsofmeasure.org",
          "value": 45.4,
          "unit": "U/L",
          "code": "U/L"
        },
        "referenceRange": [
          {
            "low": {
              "value": 7,
              "code": "U/L",
              "system": "http://unitsofmeasure.org"
            }
          },
          {
            "high": {
              "value": 55,
              "code": "U/L",
              "system": "http://unitsofmeasure.org"
            }
          }
        ],
        "text": {
          "status": "generated",
          "div": "<div xmlns=\"http://www.w3.org/1999/xhtml\"><table class=\"hl7__eu__lab__report\"><tr><th>Test</th><th>04-Dec-2024</th><th>Reference&#xA0;Range</th><th>Unit</th></tr><tr><td>Alanine aminotransferase [Enzymatic activity/volume] in Serum or Plasma</td><td>45.4</td><td>7 - 55</td><td></td><td>U/L</td></tr></table></div>"
        },
        "status": "final",
        "subject": {
          "reference": "urn:uuid:e2677183-346a-4e54-a73f-3b765d2dd339",
          "display": "Ludmila Vávrová"
        },
        "effectiveDateTime": "2024-12-04T03:51:38Z"
      }
    },
    {
      "fullUrl": "urn:uuid:b52eb2bb-f20d-4ff7-999f-0bf11ea69ae5",
      "resource": {
        "resourceType": "Observation",
        "id": "b52eb2bb-f20d-4ff7-999f-0bf11ea69ae5",
        "meta": {
          "profile": [
            "http://hl7.eu/fhir/laboratory/StructureDefinition/Observation-resultslab-eu-lab"
          ]
        },
        "performer": [
          {
            "display": "The Central European Lab"
          }
        ],
        "category": [
          {
            "coding": [
              {
                "system": "http://terminology.hl7.org/CodeSystem/observation-category",
                "code": "laboratory"
              }
            ]
          }
        ],
        "code": {
          "coding": [
            {
              "code": "1920-8",
              "system": "http://loinc.org",
              "display": "Aspartate aminotransferase [Enzymatic activity/volume] in Serum or Plasma"
            }
          ],
          "text": "Aspartate aminotransferase [Enzymatic activity/volume] in Serum or Plasma"
        },
        "valueQuantity": {
          "system": "http://unitsofmeasure.org",
          "value": 33.5,
          "unit": "U/L",
          "code": "U/L"
        },
        "referenceRange": [
          {
            "low": {
              "value": 10,
              "code": "U/L",
              "system": "http://unitsofmeasure.org"
            }
          },
          {
            "high": {
              "value": 40,
              "code": "U/L",
              "system": "http://unitsofmeasure.org"
            }
          }
        ],
        "text": {
          "status": "generated",
          "div": "<div xmlns=\"http://www.w3.org/1999/xhtml\"><table class=\"hl7__eu__lab__report\"><tr><th>Test</th><th>04-Dec-2024</th><th>Reference&#xA0;Range</th><th>Unit</th></tr><tr><td>Aspartate aminotransferase [Enzymatic activity/volume] in Serum or Plasma</td><td>33.5</td><td>10 - 40</td><td></td><td>U/L</td></tr></table></div>"
        },
        "status": "final",
        "subject": {
          "reference": "urn:uuid:e2677183-346a-4e54-a73f-3b765d2dd339",
          "display": "Ludmila Vávrová"
        },
        "effectiveDateTime": "2024-12-04T03:51:38Z"
      }
    },
    {
      "fullUrl": "urn:uuid:88b46320-bfd7-4907-bca5-e7af2b0e5fff",
      "resource": {
        "resourceType": "Observation",
        "id": "88b46320-bfd7-4907-bca5-e7af2b0e5fff",
        "meta": {
          "profile": [
            "http://hl7.eu/fhir/laboratory/StructureDefinition/Observation-resultslab-eu-lab"
          ]
        },
        "performer": [
          {
            "display": "The Central European Lab"
          }
        ],
        "category": [
          {
            "coding": [
              {
                "system": "http://terminology.hl7.org/CodeSystem/observation-category",
                "code": "laboratory"
              }
            ]
          }
        ],
        "code": {
          "coding": [
            {
              "code": "2093-3",
              "system": "http://loinc.org",
              "display": "Cholesterol [Mass/volume] in Serum or Plasma"
            }
          ],
          "text": "Cholesterol [Mass/volume] in Serum or Plasma"
        },
        "valueQuantity": {
          "system": "http://unitsofmeasure.org",
          "value": 199.8,
          "unit": "mg/dL",
          "code": "mg/dL"
        },
        "referenceRange": [
          {
            "low": {
              "value": 125,
              "code": "mg/dL",
              "system": "http://unitsofmeasure.org"
            }
          },
          {
            "high": {
              "value": 200,
              "code": "mg/dL",
              "system": "http://unitsofmeasure.org"
            }
          }
        ],
        "text": {
          "status": "generated",
          "div": "<div xmlns=\"http://www.w3.org/1999/xhtml\"><table class=\"hl7__eu__lab__report\"><tr><th>Test</th><th>04-Dec-2024</th><th>Reference&#xA0;Range</th><th>Unit</th></tr><tr><td>Cholesterol [Mass/volume] in Serum or Plasma</td><td>199.8</td><td>125 - 200</td><td></td><td>mg/dL</td></tr></table></div>"
        },
        "status": "final",
        "subject": {
          "reference": "urn:uuid:e2677183-346a-4e54-a73f-3b765d2dd339",
          "display": "Ludmila Vávrová"
        },
        "effectiveDateTime": "2024-12-04T03:51:38Z"
      }
    },
    {
      "fullUrl": "urn:uuid:61ffb09f-9ca0-4ce5-b22a-34495c2a83ea",
      "resource": {
        "resourceType": "Observation",
        "id": "61ffb09f-9ca0-4ce5-b22a-34495c2a83ea",
        "meta": {
          "profile": [
            "http://hl7.eu/fhir/laboratory/StructureDefinition/Observation-resultslab-eu-lab"
          ]
        },
        "performer": [
          {
            "display": "The Central European Lab"
          }
        ],
        "category": [
          {
            "coding": [
              {
                "system": "http://terminology.hl7.org/CodeSystem/observation-category",
                "code": "laboratory"
              }
            ]
          }
        ],
        "code": {
          "coding": [
            {
              "code": "2571-8",
              "system": "http://loinc.org",
              "display": "Triglyceride [Mass/volume] in Serum or Plasma"
            }
          ],
          "text": "Triglyceride [Mass/volume] in Serum or Plasma"
        },
        "valueQuantity": {
          "system": "http://unitsofmeasure.org",
          "value": 110.2,
          "unit": "mg/dL",
          "code": "mg/dL"
        },
        "referenceRange": [
          {
            "low": {
              "value": 10,
              "code": "mg/dL",
              "system": "http://unitsofmeasure.org"
            }
          },
          {
            "high": {
              "value": 175,
              "code": "mg/dL",
              "system": "http://unitsofmeasure.org"
            }
          }
        ],
        "text": {
          "status": "generated",
          "div": "<div xmlns=\"http://www.w3.org/1999/xhtml\"><table class=\"hl7__eu__lab__report\"><tr><th>Test</th><th>04-Dec-2024</th><th>Reference&#xA0;Range</th><th>Unit</th></tr><tr><td>Triglyceride [Mass/volume] in Serum or Plasma</td><td>110.2</td><td>10 - 175</td><td></td><td>mg/dL</td></tr></table></div>"
        },
        "status": "final",
        "subject": {
          "reference": "urn:uuid:e2677183-346a-4e54-a73f-3b765d2dd339",
          "display": "Ludmila Vávrová"
        },
        "effectiveDateTime": "2024-12-04T03:51:38Z"
      }
    },
    {
      "fullUrl": "urn:uuid:10c9e688-9da1-4093-9141-85d1599753d4",
      "resource": {
        "resourceType": "Observation",
        "id": "10c9e688-9da1-4093-9141-85d1599753d4",
        "meta": {
          "profile": [
            "http://hl7.eu/fhir/laboratory/StructureDefinition/Observation-resultslab-eu-lab"
          ]
        },
        "performer": [
          {
            "display": "The Central European Lab"
          }
        ],
        "category": [
          {
            "coding": [
              {
                "system": "http://terminology.hl7.org/CodeSystem/observation-category",
                "code": "laboratory"
              }
            ]
          }
        ],
        "code": {
          "coding": [
            {
              "code": "18262-6",
              "system": "http://loinc.org",
              "display": "Cholesterol in LDL [Mass/volume] in Serum or Plasma by Direct assay"
            }
          ],
          "text": "Cholesterol in LDL [Mass/volume] in Serum or Plasma by Direct assay"
        },
        "valueQuantity": {
          "system": "http://unitsofmeasure.org",
          "value": 140.2,
          "unit": "mg/dL",
          "code": "mg/dL"
        },
        "referenceRange": [
          {
            "low": {
              "value": 0,
              "code": "mg/dL",
              "system": "http://unitsofmeasure.org"
            }
          },
          {
            "high": {
              "value": 130,
              "code": "mg/dL",
              "system": "http://unitsofmeasure.org"
            }
          }
        ],
        "interpretation": [
          {
            "coding": [
              {
                "code": "H",
                "system": "http://terminology.hl7.org/CodeSystem/v3-ObservationInterpretation",
                "display": "High"
              }
            ]
          }
        ],
        "text": {
          "status": "generated",
          "div": "<div xmlns=\"http://www.w3.org/1999/xhtml\"><table class=\"hl7__eu__lab__report\"><tr><th>Test</th><th>04-Dec-2024</th><th>Reference&#xA0;Range</th><th>Unit</th></tr><tr><td>Cholesterol in LDL [Mass/volume] in Serum or Plasma by Direct assay</td><td>140.2</td><td>0 - 130</td><td>H</td><td>mg/dL</td></tr></table></div>"
        },
        "status": "final",
        "subject": {
          "reference": "urn:uuid:e2677183-346a-4e54-a73f-3b765d2dd339",
          "display": "Ludmila Vávrová"
        },
        "effectiveDateTime": "2024-12-04T03:51:38Z"
      }
    },
    {
      "fullUrl": "urn:uuid:4a9db199-782d-45fc-b08a-dcc1e6067c59",
      "resource": {
        "resourceType": "Observation",
        "id": "4a9db199-782d-45fc-b08a-dcc1e6067c59",
        "meta": {
          "profile": [
            "http://hl7.eu/fhir/laboratory/StructureDefinition/Observation-resultslab-eu-lab"
          ]
        },
        "performer": [
          {
            "display": "The Central European Lab"
          }
        ],
        "category": [
          {
            "coding": [
              {
                "system": "http://terminology.hl7.org/CodeSystem/observation-category",
                "code": "laboratory"
              }
            ]
          }
        ],
        "code": {
          "coding": [
            {
              "code": "2085-9",
              "system": "http://loinc.org",
              "display": "Cholesterol in HDL [Mass/volume] in Serum or Plasma"
            }
          ],
          "text": "Cholesterol in HDL [Mass/volume] in Serum or Plasma"
        },
        "valueQuantity": {
          "system": "http://unitsofmeasure.org",
          "value": 34,
          "unit": "mg/dL",
          "code": "mg/dL"
        },
        "referenceRange": [
          {
            "low": {
              "value": 50,
              "code": "mg/dL",
              "system": "http://unitsofmeasure.org"
            }
          },
          {
            "high": {
              "value": 100,
              "code": "mg/dL",
              "system": "http://unitsofmeasure.org"
            }
          }
        ],
        "interpretation": [
          {
            "coding": [
              {
                "code": "L",
                "system": "http://terminology.hl7.org/CodeSystem/v3-ObservationInterpretation",
                "display": "Low"
              }
            ]
          }
        ],
        "text": {
          "status": "generated",
          "div": "<div xmlns=\"http://www.w3.org/1999/xhtml\"><table class=\"hl7__eu__lab__report\"><tr><th>Test</th><th>04-Dec-2024</th><th>Reference&#xA0;Range</th><th>Unit</th></tr><tr><td>Cholesterol in HDL [Mass/volume] in Serum or Plasma</td><td>34.0</td><td>50 - 100</td><td>L</td><td>mg/dL</td></tr></table></div>"
        },
        "status": "final",
        "subject": {
          "reference": "urn:uuid:e2677183-346a-4e54-a73f-3b765d2dd339",
          "display": "Ludmila Vávrová"
        },
        "effectiveDateTime": "2024-12-04T03:51:38Z"
      }
    },
    {
      "fullUrl": "urn:uuid:0de7d1c3-b31e-4ee9-82ba-95aacce73026",
      "resource": {
        "resourceType": "DeviceUseStatement",
        "id": "0de7d1c3-b31e-4ee9-82ba-95aacce73026",
        "meta": {
          "profile": [
            "http://hl7.eu/fhir/eps/StructureDefinition/deviceUseStatement-eu-eps"
          ]
        },
        "timingPeriod": {
          "start": "1989-01-06"
        },
        "text": {
          "status": "generated",
          "div": "<div xmlns=\"http://www.w3.org/1999/xhtml\"><table class=\"hl7__ips\"><tr><td>Walker (physical object)</td><td><span class=\"nb\">06-Jan-1989</span></td></tr></table></div>"
        },
        "status": "active",
        "device": {
          "reference": "urn:uuid:ad5ec3d3-e96b-4411-872a-b298e9cee1a2",
          "display": "Walker (physical object)"
        },
        "subject": {
          "reference": "urn:uuid:e2677183-346a-4e54-a73f-3b765d2dd339",
          "display": "Ludmila Vávrová"
        }
      }
    },
    {
      "fullUrl": "urn:uuid:ad5ec3d3-e96b-4411-872a-b298e9cee1a2",
      "resource": {
        "resourceType": "Device",
        "id": "ad5ec3d3-e96b-4411-872a-b298e9cee1a2",
        "meta": {
          "profile": [
            "http://hl7.eu/fhir/eps/StructureDefinition/device-eu-eps"
          ]
        },
        "udiCarrier": [
          {
            "id": "(01)54222735087091(11)881216(17)141231(10)26591(21)297319378"
          }
        ],
        "status": "active",
        "patient": {
          "reference": "urn:uuid:e2677183-346a-4e54-a73f-3b765d2dd339",
          "display": "Ludmila Vávrová"
        },
        "type": {
          "coding": [
            {
              "code": "705406009",
              "system": "http://snomed.info/sct",
              "display": "Walker (physical object)"
            }
          ]
        }
      }
    },
    {
      "fullUrl": "urn:uuid:e01f2a69-21e5-4745-93dc-7086c1dc6f0a",
      "resource": {
        "resourceType": "DeviceUseStatement",
        "id": "e01f2a69-21e5-4745-93dc-7086c1dc6f0a",
        "meta": {
          "profile": [
            "http://hl7.eu/fhir/eps/StructureDefinition/deviceUseStatement-eu-eps"
          ]
        },
        "timingPeriod": {
          "start": "1938-09-20"
        },
        "text": {
          "status": "generated",
          "div": "<div xmlns=\"http://www.w3.org/1999/xhtml\"><table class=\"hl7__ips\"><tr><td>Home nebulizer (physical object)</td><td><span class=\"nb\">20-Sep-1938</span></td></tr></table></div>"
        },
        "status": "active",
        "device": {
          "reference": "urn:uuid:1227d0df-8850-4fbc-9c3d-4ddc5a6db425",
          "display": "Home nebulizer (physical object)"
        },
        "subject": {
          "reference": "urn:uuid:e2677183-346a-4e54-a73f-3b765d2dd339",
          "display": "Ludmila Vávrová"
        }
      }
    },
    {
      "fullUrl": "urn:uuid:1227d0df-8850-4fbc-9c3d-4ddc5a6db425",
      "resource": {
        "resourceType": "Device",
        "id": "1227d0df-8850-4fbc-9c3d-4ddc5a6db425",
        "meta": {
          "profile": [
            "http://hl7.eu/fhir/eps/StructureDefinition/device-eu-eps"
          ]
        },
        "udiCarrier": [
          {
            "id": "(01)46445159992785(11)380830(17)630914(10)53332313961(21)7234003603"
          }
        ],
        "status": "active",
        "patient": {
          "reference": "urn:uuid:e2677183-346a-4e54-a73f-3b765d2dd339",
          "display": "Ludmila Vávrová"
        },
        "type": {
          "coding": [
            {
              "code": "170615005",
              "system": "http://snomed.info/sct",
              "display": "Home nebulizer (physical object)"
            }
          ]
        }
      }
    },
    {
      "fullUrl": "urn:uuid:cf037f44-4f3c-405f-a902-3d8f03cca602",
      "resource": {
        "resourceType": "Device",
        "id": "cf037f44-4f3c-405f-a902-3d8f03cca602",
        "deviceName": [
          {
            "name": "SYNDERAI Synthetic Generator",
            "type": "manufacturer-name"
          }
        ],
        "version": [
          {
            "value": "5.0"
          }
        ],
        "text": {
          "status": "generated",
          "div": "<div xmlns=\"http://www.w3.org/1999/xhtml\">SYNDERAI Synthetic Generator v5.0</div>"
        },
        "status": "active\"",
        "distinctIdentifier": "synderai-generator-50",
        "manufacturer": "SYNDERAI Project"
      }
    },
    {
      "fullUrl": "urn:uuid:82e2eac9-d7f5-442f-b095-af4fff08c2bd",
      "resource": {
        "resourceType": "Provenance",
        "id": "82e2eac9-d7f5-442f-b095-af4fff08c2bd",
        "target": [
          {
            "reference": "Patient/e2677183-346a-4e54-a73f-3b765d2dd339"
          },
          {
            "reference": "Bundle/917f9c2b-4d21-4c0b-be05-78375be13576"
          },
          {
            "reference": "Composition/0b06a027-3828-4a39-80f0-077861f78986"
          },
          {
            "reference": "PractitionerRole/93226f54-a095-40ed-b724-6205080f50d4"
          },
          {
            "reference": "Organization/425dc6fb-5b4f-47b9-b987-b11130f83528"
          },
          {
            "reference": "Practitioner/0b87f678-803d-4b74-bb82-22d71c470166"
          }
        ],
        "activity": {
          "text": "Synthetic Example Data Generation"
        },
        "policy": [
          "https://synderai.net/synderai-synthetic-data-policy"
        ],
        "agent": [
          {
            "type": {
              "text": "author"
            },
            "who": {
              "reference": "Device/cf037f44-4f3c-405f-a902-3d8f03cca602"
            }
          }
        ],
        "reason": [
          {
            "text": "Interoperability Testing and Training (non-clinical use)"
          }
        ],
        "text": {
          "status": "generated",
          "div": "<div xmlns=\"http://www.w3.org/1999/xhtml\">Provenance for SYNDERAI Synthetic Example Data Resource</div>"
        },
        "recorded": "2024-12-04T03:51:38Z"
      }
    }
  ],
  "type": "document",
  "timestamp": "2024-12-04T03:51:38Z"
}
