{
  "resourceType": "Bundle",
  "id": "fddb9dad-6e1f-4584-a394-dfc43d4821de",
  "meta": {
    "profile": [
      "http://hl7.eu/fhir/eps/StructureDefinition/bundle-eu-eps"
    ]
  },
  "identifier": {
    "assigner": {
      "display": "HL7 Europe"
    },
    "system": "urn:oid:2.16.840.1.113883.2.51.999",
    "value": "82b0f4d3-03bc-4fcf-9fab-624001d70cc6"
  },
  "entry": [
    {
      "fullUrl": "urn:uuid:047d0948-4e89-46ea-aaac-b8d12c8b7d87",
      "resource": {
        "resourceType": "Composition",
        "id": "047d0948-4e89-46ea-aaac-b8d12c8b7d87",
        "meta": {
          "security": [
            {
              "system": "http://terminology.hl7.org/CodeSystem/v3-ActReason",
              "code": "HTEST"
            },
            {
              "system": "http://terminology.hl7.org/CodeSystem/v3-ActReason",
              "code": "TRAIN"
            }
          ],
          "tag": [
            {
              "system": "https://synderai.net/fhir/CodeSystem/tags",
              "code": "synthetic",
              "display": "SYNDERAI Synthetic data"
            }
          ],
          "profile": [
            "http://hl7.eu/fhir/eps/StructureDefinition/composition-eu-eps"
          ]
        },
        "identifier": {
          "assigner": {
            "display": "HL7 Europe"
          },
          "system": "urn:oid:2.16.840.1.113883.2.51.999",
          "value": "6108123c-4cac-49e4-bcb7-3b9971a6dc05"
        },
        "type": {
          "coding": [
            {
              "system": "http://loinc.org",
              "code": "60591-5",
              "display": "Patient summary Document"
            }
          ],
          "text": "Patient summary Document"
        },
        "author": [
          {
            "reference": "urn:uuid:d57bfd75-9e8f-4ce3-94e0-afa593299fdc"
          }
        ],
        "section": [
          {
            "text": {
              "status": "generated",
              "div": "<div xmlns=\"http://www.w3.org/1999/xhtml\"><table class=\"hl7__ips\"><tr><th>Condition</th><th>Onset Date</th><th>Status</th></tr><tr><td>Prediabetes</td><td><span class=\"nb\">05-Oct-2008</span></td><td>active</td></tr><tr><td>Anemia</td><td><span class=\"nb\">05-Oct-2008</span></td><td>active</td></tr></table></div>"
            },
            "entry": [
              {
                "reference": "urn:uuid:09b550cc-548f-4705-9823-b49b47dc7953"
              },
              {
                "reference": "urn:uuid:ef5c0bc2-5602-42c9-a5ca-e93c25b20648"
              }
            ],
            "code": {
              "coding": [
                {
                  "system": "http://loinc.org",
                  "code": "11450-4",
                  "display": "Problem list - Reported"
                }
              ]
            },
            "title": "Problem list"
          },
          {
            "text": {
              "status": "generated",
              "div": "<div xmlns=\"http://www.w3.org/1999/xhtml\"><table class=\"hl7__ips\"><tr><th>Medication</th><th>Since</th><th>Form</th><th>Dosage</th><th>Reason</th></tr><tr><td>Acetaminophen 325 mg oral tablet</td><td><span class=\"nb\">2025-04-20</span></td><td>-</td><td>1 tablet (325 mg) every 4 to 6 hours as needed</td><td>-</td></tr><tr><td>Tramadol hydrochloride 50 mg oral tablet</td><td><span class=\"nb\">2025-04-20</span></td><td>-</td><td>1 tablet (50 mg) by mouth every 4 to 6 hours as needed for pain</td><td>-</td></tr></table></div>"
            },
            "entry": [
              {
                "reference": "urn:uuid:b053a5b4-6a59-4194-82a1-e889185b2bfd"
              },
              {
                "reference": "urn:uuid:f6bbc974-c3f8-46d4-97d5-17affd731fbe"
              }
            ],
            "code": {
              "coding": [
                {
                  "system": "http://loinc.org",
                  "code": "10160-0",
                  "display": "History of Medication use Narrative"
                }
              ]
            },
            "title": "Medication list"
          },
          {
            "text": {
              "status": "generated",
              "div": "<div xmlns=\"http://www.w3.org/1999/xhtml\"><table class=\"hl7__ips\"><tr><th>Vaccine</th><th>Date</th></tr><tr><td>Influenza virus antigen only vaccine product</td><td><span class=\"nb\">20-Apr-2025</span></td></tr><tr><td>SARS-CoV-2 mRNA vaccine</td><td><span class=\"nb\">11-Apr-2021</span></td></tr><tr><td>Clostridium tetani toxoid antigen adsorbed only vaccine product</td><td><span class=\"nb\">11-Mar-2018</span></td></tr></table></div>"
            },
            "entry": [
              {
                "reference": "urn:uuid:54fcacfc-baba-4785-af65-61aea3f8168b"
              },
              {
                "reference": "urn:uuid:a9d11388-e790-4244-8ced-9340172f4e61"
              },
              {
                "reference": "urn:uuid:da92c963-40f9-4355-b337-9d8f28140a8c"
              }
            ],
            "code": {
              "coding": [
                {
                  "system": "http://loinc.org",
                  "code": "11369-6",
                  "display": "History of Immunization note"
                }
              ]
            },
            "title": "Immunizations list"
          },
          {
            "text": {
              "status": "generated",
              "div": "<div xmlns=\"http://www.w3.org/1999/xhtml\"><table class=\"hl7__ips\"><tr><th>Procedure</th><th>Date</th><th>Reason</th></tr><tr><td>Depression screening</td><td><span class=\"nb\">02-Jul-2023</span></td><td>-</td></tr><tr><td>Assessment of health and social care needs</td><td><span class=\"nb\">02-Jul-2023</span></td><td>-</td></tr><tr><td>Assessment of anxiety</td><td><span class=\"nb\">02-Jul-2023</span></td><td>-</td></tr><tr><td>Screening for drug abuse</td><td><span class=\"nb\">02-Jul-2023</span></td><td>-</td></tr><tr><td>Assessment of substance use</td><td><span class=\"nb\">02-Jul-2023</span></td><td>-</td></tr><tr><td>Depression screening using Patient Health Questionnaire Two-Item score (procedure)</td><td><span class=\"nb\">02-Jul-2023</span></td><td>-</td></tr></table></div>"
            },
            "entry": [
              {
                "reference": "urn:uuid:96c5c702-7399-4f22-a8c9-16d79756d78c"
              },
              {
                "reference": "urn:uuid:1a2e451e-565d-4701-a7f8-3f9f8b2fa51f"
              },
              {
                "reference": "urn:uuid:7cf7e5ad-a1ac-4569-aeec-3b05ba356e4f"
              },
              {
                "reference": "urn:uuid:1ea06a5b-24ec-4525-9716-b2e6dd4a26b4"
              },
              {
                "reference": "urn:uuid:5179ef93-ccdb-4a67-9aec-87aeb255a05d"
              },
              {
                "reference": "urn:uuid:daab9a33-4e13-4669-a891-554cd1873023"
              }
            ],
            "code": {
              "coding": [
                {
                  "system": "http://loinc.org",
                  "code": "47519-4",
                  "display": "History of Procedures Document"
                }
              ]
            },
            "title": "Procedure History list"
          },
          {
            "text": {
              "status": "generated",
              "div": "<div xmlns=\"http://www.w3.org/1999/xhtml\"><table class=\"hl7__ips\"><tr><th>Allergy/Intolerance</th><th>Onset Date</th><th>Status</th><th>Type</th><th>Reaction</th></tr><tr><td></td><td>?</td><td>active</td><td>?</td><td></td></tr></table></div>"
            },
            "entry": [
              {
                "reference": "urn:uuid:e2432a57-831a-45eb-8ba1-f74554f76d96"
              }
            ],
            "code": {
              "coding": [
                {
                  "system": "http://loinc.org",
                  "code": "48765-2",
                  "display": "Allergies and adverse reactions Document"
                }
              ]
            },
            "title": "Allergies and Intolerances"
          },
          {
            "text": {
              "status": "generated",
              "div": "<div xmlns=\"http://www.w3.org/1999/xhtml\"><table class=\"hl7__ips\"><tr><th>Active Planned Care / Goals</th><th>Start Date</th><th>Reason</th></tr><tr><td>Therapy</td><td><span class=\"nb\">30-Mar-2014</span></td><td>-</td></tr><tr><td>Diabetes self management plan</td><td><span class=\"nb\">05-Oct-2008</span></td><td>Prediabetes</td></tr><tr><td><ul><li>Patient will implement lifestyle modifications including diet and physical activity to lower risk of developing type 2 diabetes.</li></ul></td><td></td><td></td></tr></table></div>"
            },
            "entry": [
              {
                "reference": "urn:uuid:919e99c5-da0a-46f7-9c23-ad57305eee15"
              },
              {
                "reference": "urn:uuid:34510dc8-51ec-4638-a960-5f4f9d9316a8"
              }
            ],
            "code": {
              "coding": [
                {
                  "system": "http://loinc.org",
                  "code": "18776-5",
                  "display": "Plan of care note"
                }
              ]
            },
            "title": "Care Plan"
          },
          {
            "text": {
              "status": "generated",
              "div": "<div xmlns=\"http://www.w3.org/1999/xhtml\"><table class=\"hl7__ips\"><tr><th>Vital Signs</th><th>2025-04-20</th><th>2024-04-14</th></tr><tr><td>Body Height</td><td>186.8 cm</td><td>186.8 cm</td></tr><tr><td>Pain severity - 0-10 verbal numeric rating [Score] - Reported</td><td>1 {score}</td><td>3 {score}</td></tr><tr><td>Body Weight</td><td>100.3 kg</td><td>98.9 kg</td></tr><tr><td>Body mass index (BMI) [Ratio]</td><td>28.7 kg/m2</td><td>28.3 kg/m2</td></tr><tr><td>Diastolic Blood Pressure</td><td>75 mm[Hg]</td><td>74 mm[Hg]</td></tr><tr><td>Systolic Blood Pressure</td><td>123 mm[Hg]</td><td>112 mm[Hg]</td></tr><tr><td>Heart rate</td><td>98 /min</td><td>71 /min</td></tr><tr><td>Respiratory rate</td><td>15 /min</td><td>15 /min</td></tr></table></div>"
            },
            "entry": [
              {
                "reference": "urn:uuid:5f1976ff-6455-4666-9d53-592fbec953cc"
              },
              {
                "reference": "urn:uuid:0916c2c5-7f34-43ee-b3ab-7832c5ca44da"
              },
              {
                "reference": "urn:uuid:08f507a9-00d6-498e-aa3c-de9edbc60128"
              },
              {
                "reference": "urn:uuid:2b4e06b6-999e-4ddc-84b3-9c380d613db7"
              },
              {
                "reference": "urn:uuid:98738673-68be-499e-abed-26daef10d9cd"
              },
              {
                "reference": "urn:uuid:7a863a0e-0519-4024-a518-4d9942c575fe"
              },
              {
                "reference": "urn:uuid:9b8e9a44-9410-42e1-ab6b-45f45897de53"
              },
              {
                "reference": "urn:uuid:f83826a4-8e70-407c-91de-e534d0d51490"
              },
              {
                "reference": "urn:uuid:2cd4326a-28b2-421f-9177-77f4a44cc25c"
              },
              {
                "reference": "urn:uuid:002ce22f-c991-40d5-8565-b7e58ceeaec0"
              },
              {
                "reference": "urn:uuid:1a081033-7ab7-484b-8b33-6aae0035b7dd"
              },
              {
                "reference": "urn:uuid:6d631066-72f9-40e4-925d-44f00b807ee8"
              },
              {
                "reference": "urn:uuid:1522acb4-e2e6-49c1-9a25-888d38914d7d"
              },
              {
                "reference": "urn:uuid:d3919ccf-33ac-4b86-a34e-85606112e94b"
              },
              {
                "reference": "urn:uuid:c115dac2-4833-409f-b71a-8bf04645f0f1"
              },
              {
                "reference": "urn:uuid:ea7e765f-7cfd-4ebd-b676-c7388e7e5237"
              }
            ],
            "code": {
              "coding": [
                {
                  "system": "http://loinc.org",
                  "code": "8716-3",
                  "display": "Vital signs note"
                }
              ]
            },
            "title": "Vital Signs"
          },
          {
            "text": {
              "status": "generated",
              "div": "<div xmlns=\"http://www.w3.org/1999/xhtml\"><table class=\"hl7__ips\"><table class=\"hl7__ips\"><thead><tr><th>Recent Lab Observations</th><th>20-APR-2025</th><th>Reference&#xA0;Range</th><th>Unit</th></tr></thead><tbody><tr><td>Hemoglobin A1c/Hemoglobin.total in Blood</td><td>5.9</td><td>4 - 6</td><td>%</td></tr><tr><td>Glucose [Mass/volume] in Blood</td><td><strong>64.8 L</strong></td><td>70 - 99</td><td>mg/dL</td></tr><tr><td>Urea nitrogen [Mass/volume] in Blood</td><td>10.3</td><td>7 - 20</td><td>mg/dL</td></tr><tr><td>Creatinine [Mass/volume] in Blood</td><td><strong>1.4 H</strong></td><td>0.6 - 1.3</td><td>mg/dL</td></tr><tr><td>Calcium [Mass/volume] in Blood</td><td>9.5</td><td>8.5 - 10.5</td><td>mg/dL</td></tr><tr><td>Sodium [Moles/volume] in Blood</td><td>137.8</td><td>135 - 145</td><td>mmol/L</td></tr><tr><td>Potassium [Moles/volume] in Blood</td><td>4.4</td><td>3.5 - 5.2</td><td>mmol/L</td></tr><tr><td>Chloride [Moles/volume] in Blood</td><td>108.2</td><td>98 - 114</td><td>mmol/L</td></tr><tr><td>Carbon dioxide, total [Moles/volume] in Blood</td><td>25.7</td><td>24 - 29</td><td>mmol/L</td></tr></tbody></table></table></div>"
            },
            "entry": [
              {
                "reference": "urn:uuid:bf7b5bc2-9113-4ca9-a38f-15440a5560f6"
              },
              {
                "reference": "urn:uuid:04f2c796-2195-4102-85b7-69642f75be80"
              },
              {
                "reference": "urn:uuid:fd8b6ac7-d0b1-491d-9c62-22add863e732"
              },
              {
                "reference": "urn:uuid:9255a0fe-3fc6-456e-9e80-056238cfca18"
              },
              {
                "reference": "urn:uuid:49e338d1-7e4d-4d24-838b-5eed269c022e"
              },
              {
                "reference": "urn:uuid:05d15124-6c56-42fa-82ec-690d1a65e29b"
              },
              {
                "reference": "urn:uuid:21259ae0-c22c-4279-a825-20df92b8f99b"
              },
              {
                "reference": "urn:uuid:e22d1efc-c3b9-4877-b3f9-d46200f83b3b"
              },
              {
                "reference": "urn:uuid:05b05873-e1a7-4824-96ec-3930f976a353"
              }
            ],
            "code": {
              "coding": [
                {
                  "system": "http://loinc.org",
                  "code": "30954-2",
                  "display": "Relevant diagnostic tests/laboratory data note"
                }
              ]
            },
            "title": "Relevant diagnostic tests/laboratory data"
          },
          {
            "text": {
              "status": "generated",
              "div": "<div xmlns=\"http://www.w3.org/1999/xhtml\"><table class=\"hl7__ips\"><tr><th>Device</th><th>Date (since)</th></tr><tr><td>Blood glucose meter (physical object)</td><td><span class=\"nb\">05-Oct-2008</span></td></tr></table></div>"
            },
            "entry": [
              {
                "reference": "urn:uuid:46ef1a74-8c8e-46a1-8975-d9d11bfd5ec0"
              }
            ],
            "code": {
              "coding": [
                {
                  "system": "http://loinc.org",
                  "code": "46264-8",
                  "display": "History of medical device use"
                }
              ]
            },
            "title": "Device Use"
          }
        ],
        "title": "European Patient Summary",
        "status": "final",
        "subject": {
          "reference": "urn:uuid:1abcb82b-efa7-47dd-a96c-30c9fcbc012e",
          "display": "Benedetto Lombroso"
        },
        "custodian": {
          "reference": "urn:uuid:391bb859-d2b7-4ea6-962c-eb1bb22db20e"
        },
        "date": "2025-04-20",
        "confidentiality": "N"
      }
    },
    {
      "fullUrl": "urn:uuid:1abcb82b-efa7-47dd-a96c-30c9fcbc012e",
      "resource": {
        "resourceType": "Patient",
        "id": "1abcb82b-efa7-47dd-a96c-30c9fcbc012e",
        "meta": {
          "security": [
            {
              "system": "http://terminology.hl7.org/CodeSystem/v3-ActReason",
              "code": "HTEST"
            },
            {
              "system": "http://terminology.hl7.org/CodeSystem/v3-ActReason",
              "code": "TRAIN"
            }
          ],
          "tag": [
            {
              "system": "https://synderai.net/fhir/CodeSystem/tags",
              "code": "synthetic",
              "display": "SYNDERAI Synthetic data"
            }
          ],
          "profile": [
            "http://hl7.eu/fhir/eps/StructureDefinition/patient-eu-eps"
          ]
        },
        "identifier": [
          {
            "type": {
              "coding": [
                {
                  "code": "PT",
                  "system": "http://terminology.hl7.org/CodeSystem/v2-0203"
                }
              ]
            },
            "system": "http://ec.europa.eu/identifier/eci",
            "value": "9244-804304-9"
          },
          {
            "type": {
              "coding": [
                {
                  "code": "MR",
                  "system": "http://terminology.hl7.org/CodeSystem/v2-0203"
                }
              ]
            },
            "system": "http://local.setting.eu/identifier",
            "value": "320c36e6-403e-bb27-4756-8ebdd21bc0e5"
          }
        ],
        "name": [
          {
            "family": "Lombroso"
          },
          {
            "given": [
              "Benedetto"
            ]
          },
          {
            "text": "Benedetto Lombroso"
          }
        ],
        "address": [
          {
            "line": [
              "Stretto Zaccagnini, 924"
            ],
            "use": "home",
            "type": "physical",
            "postalCode": "37121",
            "city": "Verona",
            "country": "Italy"
          }
        ],
        "telecom": [
          {
            "system": "phone",
            "value": "+39 016691228"
          }
        ],
        "extension": [
          {
            "url": "http://hl7.org/fhir/StructureDefinition/patient-nationality",
            "valueCodeableConcept": {
              "coding": [
                {
                  "code": "IT",
                  "system": "http://hl7.org/fhir/ValueSet/country"
                }
              ]
            }
          }
        ],
        "text": {
          "status": "generated",
          "div": "<div xmlns=\"http://www.w3.org/1999/xhtml\"><table class=\"hl7__ips\"><tr><td>Benedetto Lombroso</td><td>male</td><td>07-May-1989</td></tr></table></div>"
        },
        "gender": "male",
        "birthDate": "1989-05-07"
      }
    },
    {
      "fullUrl": "urn:uuid:d57bfd75-9e8f-4ce3-94e0-afa593299fdc",
      "resource": {
        "resourceType": "PractitionerRole",
        "id": "d57bfd75-9e8f-4ce3-94e0-afa593299fdc",
        "meta": {
          "profile": [
            "http://hl7.eu/fhir/base/StructureDefinition/practitionerRole-eu"
          ]
        },
        "text": {
          "status": "generated",
          "div": "<div xmlns=\"http://www.w3.org/1999/xhtml\"><table class=\"hl7__ips\">Provider Role Id d57bfd75-9e8f-4ce3-94e0-afa593299fdc</table></div>"
        },
        "practitioner": {
          "reference": "urn:uuid:12cc8724-7420-4fdc-b8f2-a4cc87cb6542"
        },
        "organization": {
          "reference": "urn:uuid:391bb859-d2b7-4ea6-962c-eb1bb22db20e"
        }
      }
    },
    {
      "fullUrl": "urn:uuid:12cc8724-7420-4fdc-b8f2-a4cc87cb6542",
      "resource": {
        "resourceType": "Practitioner",
        "id": "12cc8724-7420-4fdc-b8f2-a4cc87cb6542",
        "meta": {
          "profile": [
            "http://hl7.eu/fhir/base/StructureDefinition/practitioner-eu"
          ]
        },
        "name": [
          {
            "prefix": [
              "Dr."
            ],
            "given": [
              "Hel"
            ],
            "family": "Ping"
          }
        ],
        "text": {
          "status": "generated",
          "div": "<div xmlns=\"http://www.w3.org/1999/xhtml\"><table class=\"hl7__ips\">Dr. Hel Ping</table></div>"
        }
      }
    },
    {
      "fullUrl": "urn:uuid:391bb859-d2b7-4ea6-962c-eb1bb22db20e",
      "resource": {
        "resourceType": "Organization",
        "id": "391bb859-d2b7-4ea6-962c-eb1bb22db20e",
        "meta": {
          "profile": [
            "http://hl7.eu/fhir/base/StructureDefinition/organization-eu"
          ]
        },
        "identifier": [
          {
            "assigner": {
              "display": "HL7 Europe"
            },
            "system": "urn:oid:2.16.840.1.113883.2.51.999",
            "value": "d9516b6c-ad8d-45ad-9bad-33a973692880"
          }
        ],
        "address": [
          {
            "line": [
              "Piazzale Aristide Stefani 1"
            ],
            "city": "Verona",
            "postalCode": "37124",
            "country": "Italy"
          }
        ],
        "text": {
          "status": "generated",
          "div": "<div xmlns=\"http://www.w3.org/1999/xhtml\"><table class=\"hl7__ips\">Ospedale Civile Maggiore</table></div>"
        },
        "name": "Ospedale Civile Maggiore"
      }
    },
    {
      "fullUrl": "urn:uuid:09b550cc-548f-4705-9823-b49b47dc7953",
      "resource": {
        "resourceType": "Condition",
        "id": "09b550cc-548f-4705-9823-b49b47dc7953",
        "meta": {
          "profile": [
            "http://hl7.org/fhir/uv/ips/StructureDefinition/Condition-uv-ips"
          ]
        },
        "category": [
          {
            "coding": [
              {
                "code": "problem-list-item",
                "system": "http://terminology.hl7.org/CodeSystem/condition-category",
                "display": "Problem List Item"
              }
            ]
          }
        ],
        "code": {
          "coding": [
            {
              "code": "15777000",
              "system": "http://snomed.info/sct",
              "display": "Prediabetes (disorder)"
            }
          ],
          "text": "Prediabetes"
        },
        "text": {
          "status": "generated",
          "div": "<div xmlns=\"http://www.w3.org/1999/xhtml\"><table class=\"hl7__ips\"><tr><td>Prediabetes</td><td><span class=\"nb\">05-Oct-2008</span></td><td>active</td></tr></table></div>"
        },
        "onsetDateTime": "2008-10-05",
        "subject": {
          "reference": "urn:uuid:",
          "display": "Benedetto Lombroso"
        },
        "asserter": {
          "reference": "urn:uuid:",
          "display": "Ospedale Civile Maggiore"
        }
      }
    },
    {
      "fullUrl": "urn:uuid:ef5c0bc2-5602-42c9-a5ca-e93c25b20648",
      "resource": {
        "resourceType": "Condition",
        "id": "ef5c0bc2-5602-42c9-a5ca-e93c25b20648",
        "meta": {
          "profile": [
            "http://hl7.org/fhir/uv/ips/StructureDefinition/Condition-uv-ips"
          ]
        },
        "category": [
          {
            "coding": [
              {
                "code": "problem-list-item",
                "system": "http://terminology.hl7.org/CodeSystem/condition-category",
                "display": "Problem List Item"
              }
            ]
          }
        ],
        "code": {
          "coding": [
            {
              "code": "271737000",
              "system": "http://snomed.info/sct",
              "display": "Anemia (disorder)"
            }
          ],
          "text": "Anemia"
        },
        "text": {
          "status": "generated",
          "div": "<div xmlns=\"http://www.w3.org/1999/xhtml\"><table class=\"hl7__ips\"><tr><td>Anemia</td><td><span class=\"nb\">05-Oct-2008</span></td><td>active</td></tr></table></div>"
        },
        "onsetDateTime": "2008-10-05",
        "subject": {
          "reference": "urn:uuid:",
          "display": "Benedetto Lombroso"
        },
        "asserter": {
          "reference": "urn:uuid:",
          "display": "Ospedale Civile Maggiore"
        }
      }
    },
    {
      "fullUrl": "urn:uuid:05081b2b-f122-4bf7-9bfb-fef2e40b815f",
      "resource": {
        "resourceType": "Condition",
        "id": "05081b2b-f122-4bf7-9bfb-fef2e40b815f",
        "meta": {
          "profile": [
            "http://hl7.org/fhir/uv/ips/StructureDefinition/Condition-uv-ips"
          ]
        },
        "category": [
          {
            "coding": [
              {
                "code": "problem-list-item",
                "system": "http://terminology.hl7.org/CodeSystem/condition-category",
                "display": "Problem List Item"
              }
            ]
          }
        ],
        "code": {
          "coding": [
            {
              "code": "36971009",
              "system": "http://snomed.info/sct",
              "display": "Sinusitis (disorder)"
            }
          ],
          "text": "Sinusitis"
        },
        "text": {
          "status": "generated",
          "div": "<div xmlns=\"http://www.w3.org/1999/xhtml\"><table class=\"hl7__ips\"><tr><td><span class=\"grayedout\">Sinusitis</span></td><td><span class=\"nb\">17-Nov-2024 - 02-Apr-2025</span></td><td><span class=\"grayedout\">inactive</span></td></tr></table></div>"
        },
        "onsetDateTime": "2024-11-17",
        "abatementDateTime": "2025-04-02",
        "subject": {
          "reference": "urn:uuid:",
          "display": "Benedetto Lombroso"
        },
        "asserter": {
          "reference": "urn:uuid:",
          "display": "Ospedale Civile Maggiore"
        }
      }
    },
    {
      "fullUrl": "urn:uuid:da95a95f-1f8d-40ee-9ec1-dc7c3fd78901",
      "resource": {
        "resourceType": "Condition",
        "id": "da95a95f-1f8d-40ee-9ec1-dc7c3fd78901",
        "meta": {
          "profile": [
            "http://hl7.org/fhir/uv/ips/StructureDefinition/Condition-uv-ips"
          ]
        },
        "category": [
          {
            "coding": [
              {
                "code": "problem-list-item",
                "system": "http://terminology.hl7.org/CodeSystem/condition-category",
                "display": "Problem List Item"
              }
            ]
          }
        ],
        "code": {
          "coding": [
            {
              "code": "10509002",
              "system": "http://snomed.info/sct",
              "display": "Acute bronchitis (disorder)"
            }
          ],
          "text": "Acute bronchitis"
        },
        "text": {
          "status": "generated",
          "div": "<div xmlns=\"http://www.w3.org/1999/xhtml\"><table class=\"hl7__ips\"><tr><td><span class=\"grayedout\">Acute bronchitis</span></td><td><span class=\"nb\">22-Jun-2023 - 07-Jul-2023</span></td><td><span class=\"grayedout\">inactive</span></td></tr></table></div>"
        },
        "onsetDateTime": "2023-06-22",
        "abatementDateTime": "2023-07-07",
        "subject": {
          "reference": "urn:uuid:",
          "display": "Benedetto Lombroso"
        },
        "asserter": {
          "reference": "urn:uuid:",
          "display": "Ospedale Civile Maggiore"
        }
      }
    },
    {
      "fullUrl": "urn:uuid:1a88dc42-d014-42f4-811d-a61aad5c9302",
      "resource": {
        "resourceType": "Medication",
        "id": "1a88dc42-d014-42f4-811d-a61aad5c9302",
        "meta": {
          "profile": [
            "http://hl7.eu/fhir/eps/StructureDefinition/Medication-eu-eps"
          ]
        },
        "code": {
          "coding": [
            {
              "code": "370150001",
              "system": "http://snomed.info/sct",
              "display": "Acetaminophen 325 mg oral tablet"
            }
          ],
          "text": "Acetaminophen 325 mg oral tablet"
        },
        "text": {
          "status": "generated",
          "div": "<div xmlns=\"http://www.w3.org/1999/xhtml\">Acetaminophen 325 mg oral tablet</div>"
        }
      }
    },
    {
      "fullUrl": "urn:uuid:b053a5b4-6a59-4194-82a1-e889185b2bfd",
      "resource": {
        "resourceType": "MedicationStatement",
        "id": "b053a5b4-6a59-4194-82a1-e889185b2bfd",
        "meta": {
          "profile": [
            "http://hl7.eu/fhir/eps/StructureDefinition/MedicationStatement-eu-eps"
          ]
        },
        "effectivePeriod": {
          "start": "2025-04-20"
        },
        "dosage": [
          {
            "doseAndRate": [
              {
                "doseQuantity": {
                  "value": 1,
                  "unit": "{tbl}",
                  "system": "$ucum",
                  "code": "{tbl}"
                }
              }
            ],
            "timing": {
              "repeat": {
                "frequency": 1,
                "period": 4,
                "periodUnit": "h"
              }
            },
            "text": "1 tablet (325 mg) every 4 to 6 hours as needed",
            "asNeededBoolean": true
          }
        ],
        "text": {
          "status": "generated",
          "div": "<div xmlns=\"http://www.w3.org/1999/xhtml\"><table class=\"hl7__ips first25\"><tr><th>Medication</th><th>Since</th><th>Form</th><th>Dosage</th><th>Reason</th></tr><tr><td>Acetaminophen 325 mg oral tablet</td><td><span class=\"nb\">2025-04-20</span></td><td>-</td><td>1 tablet (325 mg) every 4 to 6 hours as needed</td><td>-</td></tr></table></div>"
        },
        "status": "active",
        "medicationReference": {
          "reference": "urn:uuid:1a88dc42-d014-42f4-811d-a61aad5c9302",
          "display": "Acetaminophen 325 mg oral tablet"
        },
        "subject": {
          "reference": "urn:uuid:1abcb82b-efa7-47dd-a96c-30c9fcbc012e",
          "display": "Benedetto Lombroso"
        }
      }
    },
    {
      "fullUrl": "urn:uuid:7d1f8f3d-85ee-41f8-9d15-11cef7bd77af",
      "resource": {
        "resourceType": "Medication",
        "id": "7d1f8f3d-85ee-41f8-9d15-11cef7bd77af",
        "meta": {
          "profile": [
            "http://hl7.eu/fhir/eps/StructureDefinition/Medication-eu-eps"
          ]
        },
        "code": {
          "coding": [
            {
              "code": "374896000",
              "system": "http://snomed.info/sct",
              "display": "Tramadol hydrochloride 50 mg oral tablet"
            }
          ],
          "text": "Tramadol hydrochloride 50 mg oral tablet"
        },
        "text": {
          "status": "generated",
          "div": "<div xmlns=\"http://www.w3.org/1999/xhtml\">Tramadol hydrochloride 50 mg oral tablet</div>"
        }
      }
    },
    {
      "fullUrl": "urn:uuid:f6bbc974-c3f8-46d4-97d5-17affd731fbe",
      "resource": {
        "resourceType": "MedicationStatement",
        "id": "f6bbc974-c3f8-46d4-97d5-17affd731fbe",
        "meta": {
          "profile": [
            "http://hl7.eu/fhir/eps/StructureDefinition/MedicationStatement-eu-eps"
          ]
        },
        "effectivePeriod": {
          "start": "2025-04-20"
        },
        "dosage": [
          {
            "doseAndRate": [
              {
                "doseQuantity": {
                  "value": 1,
                  "unit": "{tbl} (50 mg)",
                  "system": "$ucum",
                  "code": "{tbl}"
                }
              }
            ],
            "timing": {
              "repeat": {
                "frequency": 1,
                "period": 4,
                "periodUnit": "h"
              }
            },
            "text": "1 tablet (50 mg) by mouth every 4 to 6 hours as needed for pain",
            "asNeededBoolean": true
          }
        ],
        "text": {
          "status": "generated",
          "div": "<div xmlns=\"http://www.w3.org/1999/xhtml\"><table class=\"hl7__ips first25\"><tr><th>Medication</th><th>Since</th><th>Form</th><th>Dosage</th><th>Reason</th></tr><tr><td>Tramadol hydrochloride 50 mg oral tablet</td><td><span class=\"nb\">2025-04-20</span></td><td>-</td><td>1 tablet (50 mg) by mouth every 4 to 6 hours as needed for pain</td><td>-</td></tr></table></div>"
        },
        "status": "active",
        "medicationReference": {
          "reference": "urn:uuid:7d1f8f3d-85ee-41f8-9d15-11cef7bd77af",
          "display": "Tramadol hydrochloride 50 mg oral tablet"
        },
        "subject": {
          "reference": "urn:uuid:1abcb82b-efa7-47dd-a96c-30c9fcbc012e",
          "display": "Benedetto Lombroso"
        }
      }
    },
    {
      "fullUrl": "urn:uuid:54fcacfc-baba-4785-af65-61aea3f8168b",
      "resource": {
        "resourceType": "Immunization",
        "id": "54fcacfc-baba-4785-af65-61aea3f8168b",
        "meta": {
          "profile": [
            "http://hl7.org/fhir/uv/ips/StructureDefinition/Immunization-uv-ips"
          ]
        },
        "vaccineCode": {
          "coding": [
            {
              "code": "1181000221105",
              "system": "http://snomed.info/sct",
              "display": "Vaccine product containing Influenza virus antigen"
            },
            {
              "code": "J07BB02",
              "system": "http://www.whocc.no/atc",
              "display": "Influenza, inactivated, split virus"
            }
          ],
          "text": "Influenza virus antigen only vaccine product"
        },
        "site": {
          "coding": [
            {
              "code": "244979005",
              "system": "http://snomed.info/sct",
              "display": "Entire muscle of upper arm"
            }
          ],
          "text": "Entire muscle of upper arm"
        },
        "route": {
          "coding": [
            {
              "code": "78421000",
              "system": "http://snomed.info/sct",
              "display": "Intramuscular route"
            }
          ],
          "text": "Intramuscular route"
        },
        "text": {
          "status": "generated",
          "div": "<div xmlns=\"http://www.w3.org/1999/xhtml\"><table class=\"hl7__ips\"><tr><td>Influenza virus antigen only vaccine product</td><td><span class=\"nb\">20-Apr-2025</span></td></tr></table></div>"
        },
        "status": "completed",
        "patient": {
          "reference": "urn:uuid:1abcb82b-efa7-47dd-a96c-30c9fcbc012e",
          "display": "Benedetto Lombroso"
        },
        "occurrenceDateTime": "2025-04-20",
        "lotNumber": "NT-G76a6utzT",
        "expirationDate": "2026-03-11"
      }
    },
    {
      "fullUrl": "urn:uuid:a9d11388-e790-4244-8ced-9340172f4e61",
      "resource": {
        "resourceType": "Immunization",
        "id": "a9d11388-e790-4244-8ced-9340172f4e61",
        "meta": {
          "profile": [
            "http://hl7.org/fhir/uv/ips/StructureDefinition/Immunization-uv-ips"
          ]
        },
        "vaccineCode": {
          "coding": [
            {
              "code": "1119349007",
              "system": "http://snomed.info/sct",
              "display": "Vaccine product containing SARS-CoV-2 mRNA"
            },
            {
              "code": "J07BX03",
              "system": "http://www.whocc.no/atc",
              "display": "COVID-19 mRNA vaccines"
            }
          ],
          "text": "SARS-CoV-2 mRNA vaccine"
        },
        "site": {
          "coding": [
            {
              "code": "244979005",
              "system": "http://snomed.info/sct",
              "display": "Entire muscle of upper arm"
            }
          ],
          "text": "Entire muscle of upper arm"
        },
        "route": {
          "coding": [
            {
              "code": "78421000",
              "system": "http://snomed.info/sct",
              "display": "Intramuscular route"
            }
          ],
          "text": "Intramuscular route"
        },
        "text": {
          "status": "generated",
          "div": "<div xmlns=\"http://www.w3.org/1999/xhtml\"><table class=\"hl7__ips\"><tr><td>SARS-CoV-2 mRNA vaccine</td><td><span class=\"nb\">11-Apr-2021</span></td></tr></table></div>"
        },
        "status": "completed",
        "patient": {
          "reference": "urn:uuid:1abcb82b-efa7-47dd-a96c-30c9fcbc012e",
          "display": "Benedetto Lombroso"
        },
        "occurrenceDateTime": "2021-04-11",
        "lotNumber": "BE-9K3HnTUS",
        "expirationDate": "2021-07-20"
      }
    },
    {
      "fullUrl": "urn:uuid:da92c963-40f9-4355-b337-9d8f28140a8c",
      "resource": {
        "resourceType": "Immunization",
        "id": "da92c963-40f9-4355-b337-9d8f28140a8c",
        "meta": {
          "profile": [
            "http://hl7.org/fhir/uv/ips/StructureDefinition/Immunization-uv-ips"
          ]
        },
        "vaccineCode": {
          "coding": [
            {
              "code": "777725002",
              "system": "http://snomed.info/sct",
              "display": "Vaccine product containing only Clostridium tetani toxoid antigen adsorbed"
            },
            {
              "code": "J07AM51",
              "system": "http://www.whocc.no/atc",
              "display": "Diphtheria-tetanus vaccines, adult type"
            }
          ],
          "text": "Clostridium tetani toxoid antigen adsorbed only vaccine product"
        },
        "site": {
          "coding": [
            {
              "code": "244979005",
              "system": "http://snomed.info/sct",
              "display": "Entire muscle of upper arm"
            }
          ],
          "text": "Entire muscle of upper arm"
        },
        "route": {
          "coding": [
            {
              "code": "78421000",
              "system": "http://snomed.info/sct",
              "display": "Intramuscular route"
            }
          ],
          "text": "Intramuscular route"
        },
        "text": {
          "status": "generated",
          "div": "<div xmlns=\"http://www.w3.org/1999/xhtml\"><table class=\"hl7__ips\"><tr><td>Clostridium tetani toxoid antigen adsorbed only vaccine product</td><td><span class=\"nb\">11-Mar-2018</span></td></tr></table></div>"
        },
        "status": "completed",
        "patient": {
          "reference": "urn:uuid:1abcb82b-efa7-47dd-a96c-30c9fcbc012e",
          "display": "Benedetto Lombroso"
        },
        "occurrenceDateTime": "2018-03-11",
        "lotNumber": "LK-eKc2o",
        "expirationDate": "2018-06-22"
      }
    },
    {
      "fullUrl": "urn:uuid:96c5c702-7399-4f22-a8c9-16d79756d78c",
      "resource": {
        "resourceType": "Procedure",
        "id": "96c5c702-7399-4f22-a8c9-16d79756d78c",
        "meta": {
          "profile": [
            "http://hl7.org/fhir/uv/ips/StructureDefinition/Procedure-uv-ips"
          ]
        },
        "code": {
          "coding": [
            {
              "code": "171207006",
              "system": "http://snomed.info/sct",
              "display": "Depression screening (procedure)"
            }
          ],
          "text": "Depression screening"
        },
        "text": {
          "status": "generated",
          "div": "<div xmlns=\"http://www.w3.org/1999/xhtml\"><table class=\"hl7__ips\"><tr><td>Depression screening</td><td><span class=\"nb\">02-Jul-2023</span></td><td>-</td></tr></table></div>"
        },
        "status": "completed",
        "performedDateTime": "2023-07-02",
        "subject": {
          "reference": "urn:uuid:",
          "display": "Benedetto Lombroso"
        }
      }
    },
    {
      "fullUrl": "urn:uuid:1a2e451e-565d-4701-a7f8-3f9f8b2fa51f",
      "resource": {
        "resourceType": "Procedure",
        "id": "1a2e451e-565d-4701-a7f8-3f9f8b2fa51f",
        "meta": {
          "profile": [
            "http://hl7.org/fhir/uv/ips/StructureDefinition/Procedure-uv-ips"
          ]
        },
        "code": {
          "coding": [
            {
              "code": "710824005",
              "system": "http://snomed.info/sct",
              "display": "Assessment of health and social care needs (procedure)"
            }
          ],
          "text": "Assessment of health and social care needs"
        },
        "text": {
          "status": "generated",
          "div": "<div xmlns=\"http://www.w3.org/1999/xhtml\"><table class=\"hl7__ips\"><tr><td>Assessment of health and social care needs</td><td><span class=\"nb\">02-Jul-2023</span></td><td>-</td></tr></table></div>"
        },
        "status": "completed",
        "performedDateTime": "2023-07-02",
        "subject": {
          "reference": "urn:uuid:",
          "display": "Benedetto Lombroso"
        }
      }
    },
    {
      "fullUrl": "urn:uuid:7cf7e5ad-a1ac-4569-aeec-3b05ba356e4f",
      "resource": {
        "resourceType": "Procedure",
        "id": "7cf7e5ad-a1ac-4569-aeec-3b05ba356e4f",
        "meta": {
          "profile": [
            "http://hl7.org/fhir/uv/ips/StructureDefinition/Procedure-uv-ips"
          ]
        },
        "code": {
          "coding": [
            {
              "code": "710841007",
              "system": "http://snomed.info/sct",
              "display": "Assessment of anxiety (procedure)"
            }
          ],
          "text": "Assessment of anxiety"
        },
        "text": {
          "status": "generated",
          "div": "<div xmlns=\"http://www.w3.org/1999/xhtml\"><table class=\"hl7__ips\"><tr><td>Assessment of anxiety</td><td><span class=\"nb\">02-Jul-2023</span></td><td>-</td></tr></table></div>"
        },
        "status": "completed",
        "performedDateTime": "2023-07-02",
        "subject": {
          "reference": "urn:uuid:",
          "display": "Benedetto Lombroso"
        }
      }
    },
    {
      "fullUrl": "urn:uuid:1ea06a5b-24ec-4525-9716-b2e6dd4a26b4",
      "resource": {
        "resourceType": "Procedure",
        "id": "1ea06a5b-24ec-4525-9716-b2e6dd4a26b4",
        "meta": {
          "profile": [
            "http://hl7.org/fhir/uv/ips/StructureDefinition/Procedure-uv-ips"
          ]
        },
        "code": {
          "coding": [
            {
              "code": "713106006",
              "system": "http://snomed.info/sct",
              "display": "Screening for drug abuse (procedure)"
            }
          ],
          "text": "Screening for drug abuse"
        },
        "text": {
          "status": "generated",
          "div": "<div xmlns=\"http://www.w3.org/1999/xhtml\"><table class=\"hl7__ips\"><tr><td>Screening for drug abuse</td><td><span class=\"nb\">02-Jul-2023</span></td><td>-</td></tr></table></div>"
        },
        "status": "completed",
        "performedDateTime": "2023-07-02",
        "subject": {
          "reference": "urn:uuid:",
          "display": "Benedetto Lombroso"
        }
      }
    },
    {
      "fullUrl": "urn:uuid:5179ef93-ccdb-4a67-9aec-87aeb255a05d",
      "resource": {
        "resourceType": "Procedure",
        "id": "5179ef93-ccdb-4a67-9aec-87aeb255a05d",
        "meta": {
          "profile": [
            "http://hl7.org/fhir/uv/ips/StructureDefinition/Procedure-uv-ips"
          ]
        },
        "code": {
          "coding": [
            {
              "code": "428211000124100",
              "system": "http://snomed.info/sct",
              "display": "Assessment of substance use (procedure)"
            }
          ],
          "text": "Assessment of substance use"
        },
        "text": {
          "status": "generated",
          "div": "<div xmlns=\"http://www.w3.org/1999/xhtml\"><table class=\"hl7__ips\"><tr><td>Assessment of substance use</td><td><span class=\"nb\">02-Jul-2023</span></td><td>-</td></tr></table></div>"
        },
        "status": "completed",
        "performedDateTime": "2023-07-02",
        "subject": {
          "reference": "urn:uuid:",
          "display": "Benedetto Lombroso"
        }
      }
    },
    {
      "fullUrl": "urn:uuid:daab9a33-4e13-4669-a891-554cd1873023",
      "resource": {
        "resourceType": "Procedure",
        "id": "daab9a33-4e13-4669-a891-554cd1873023",
        "meta": {
          "profile": [
            "http://hl7.org/fhir/uv/ips/StructureDefinition/Procedure-uv-ips"
          ]
        },
        "code": {
          "coding": [
            {
              "code": "454711000124102",
              "system": "http://snomed.info/sct",
              "display": "Depression screening using Patient Health Questionnaire Two-Item score (procedure)"
            }
          ]
        },
        "text": {
          "status": "generated",
          "div": "<div xmlns=\"http://www.w3.org/1999/xhtml\"><table class=\"hl7__ips\"><tr><td>Depression screening using Patient Health Questionnaire Two-Item score (procedure)</td><td><span class=\"nb\">02-Jul-2023</span></td><td>-</td></tr></table></div>"
        },
        "status": "completed",
        "performedDateTime": "2023-07-02",
        "subject": {
          "reference": "urn:uuid:",
          "display": "Benedetto Lombroso"
        }
      }
    },
    {
      "fullUrl": "urn:uuid:e2432a57-831a-45eb-8ba1-f74554f76d96",
      "resource": {
        "resourceType": "AllergyIntolerance",
        "id": "e2432a57-831a-45eb-8ba1-f74554f76d96",
        "meta": {
          "profile": [
            "http://hl7.eu/fhir/eps/StructureDefinition/allergyIntolerance-eu-eps"
          ]
        },
        "code": {
          "text": ""
        },
        "clinicalStatus": {
          "coding": [
            {
              "code": "active",
              "system": "http://terminology.hl7.org/CodeSystem/allergyintolerance-clinical"
            }
          ]
        },
        "text": {
          "status": "generated",
          "div": "<div xmlns=\"http://www.w3.org/1999/xhtml\"><table class=\"hl7__ips\"><tr><th>Allergy/Intolerance</th><th>Onset Date</th><th>Status</th><th>Type</th><th>Reaction</th></tr><tr><td></td><td>?</td><td>active</td><td>?</td><td></td></tr></table></div>"
        },
        "verificationStatus": {
          "coding": [
            {
              "code": "confirmed",
              "system": "http://terminology.hl7.org/CodeSystem/allergyintolerance-verification"
            }
          ]
        },
        "patient": {
          "reference": "urn:uuid:1abcb82b-efa7-47dd-a96c-30c9fcbc012e",
          "display": "Benedetto Lombroso"
        },
        "_onsetDateTime": {
          "extension": [
            {
              "url": "http://hl7.org/fhir/StructureDefinition/data-absent-reason",
              "valueCode": "unknown"
            }
          ]
        }
      }
    },
    {
      "fullUrl": "urn:uuid:919e99c5-da0a-46f7-9c23-ad57305eee15",
      "resource": {
        "resourceType": "CarePlan",
        "id": "919e99c5-da0a-46f7-9c23-ad57305eee15",
        "category": [
          {
            "coding": [
              {
                "code": "assess-plan",
                "system": "http://terminology.hl7.org/CodeSystem/care-plan-category",
                "display": "Assessment and Plan"
              }
            ]
          }
        ],
        "activity": [
          {
            "detail": {
              "code": {
                "coding": [
                  {
                    "code": "276239002",
                    "system": "http://snomed.info/sct",
                    "display": "Therapy (regime/therapy)"
                  }
                ]
              },
              "status": "unknown",
              "description": "Therapy",
              "kind": "Appointment"
            }
          }
        ],
        "period": {
          "start": "2014-03-30"
        },
        "text": {
          "status": "generated",
          "div": "<div xmlns=\"http://www.w3.org/1999/xhtml\"><table class=\"hl7__ips first25\"><tr><th>Active Planned Care / Goals</th><th>Start Date</th><th>Reason</th></tr><tr><td>Therapy</td><td><span class=\"nb\">30-Mar-2014</span></td><td>-</td></tr></table></div>"
        },
        "status": "active",
        "intent": "plan",
        "subject": {
          "reference": "urn:uuid:1abcb82b-efa7-47dd-a96c-30c9fcbc012e",
          "display": "Benedetto Lombroso"
        }
      }
    },
    {
      "fullUrl": "urn:uuid:34510dc8-51ec-4638-a960-5f4f9d9316a8",
      "resource": {
        "resourceType": "CarePlan",
        "id": "34510dc8-51ec-4638-a960-5f4f9d9316a8",
        "category": [
          {
            "coding": [
              {
                "code": "assess-plan",
                "system": "http://terminology.hl7.org/CodeSystem/care-plan-category",
                "display": "Assessment and Plan"
              }
            ]
          }
        ],
        "activity": [
          {
            "detail": {
              "code": {
                "coding": [
                  {
                    "code": "698360004",
                    "system": "http://snomed.info/sct",
                    "display": "Diabetes self management plan (qualifier value)"
                  }
                ]
              },
              "reasonCode": [
                {
                  "coding": [
                    {
                      "code": "15777000",
                      "system": "http://snomed.info/sct",
                      "display": "Prediabetes"
                    }
                  ]
                }
              ],
              "status": "unknown",
              "description": "Diabetes self management plan",
              "kind": "Appointment"
            }
          }
        ],
        "period": {
          "start": "2008-10-05"
        },
        "goal": [
          {
            "reference": "urn:uuid:9eacf7c7-6fff-4f44-b6c5-8dc8800073b4"
          }
        ],
        "text": {
          "status": "generated",
          "div": "<div xmlns=\"http://www.w3.org/1999/xhtml\"><table class=\"hl7__ips first25\"><tr><th>Active Planned Care / Goals</th><th>Start Date</th><th>Reason</th></tr><tr><td>Diabetes self management plan</td><td><span class=\"nb\">05-Oct-2008</span></td><td>Prediabetes</td></tr><tr><td><ul><li>Patient will implement lifestyle modifications including diet and physical activity to lower risk of developing type 2 diabetes.</li></ul></td><td></td><td></td></tr></table></div>"
        },
        "status": "active",
        "intent": "plan",
        "subject": {
          "reference": "urn:uuid:1abcb82b-efa7-47dd-a96c-30c9fcbc012e",
          "display": "Benedetto Lombroso"
        }
      }
    },
    {
      "fullUrl": "urn:uuid:5f1976ff-6455-4666-9d53-592fbec953cc",
      "resource": {
        "resourceType": "Observation",
        "id": "5f1976ff-6455-4666-9d53-592fbec953cc",
        "meta": {
          "profile": [
            "http://hl7.org/fhir/StructureDefinition/vitalsigns"
          ]
        },
        "category": [
          {
            "coding": [
              {
                "system": "http://terminology.hl7.org/CodeSystem/observation-category",
                "code": "vital-signs",
                "display": "Vital Signs"
              }
            ]
          }
        ],
        "valueQuantity": {
          "value": 186.8,
          "code": "cm",
          "unit": "cm"
        },
        "text": {
          "status": "generated",
          "div": "<div xmlns=\"http://www.w3.org/1999/xhtml\"><table class=\"hl7__ips\"><tr><th>Vital Sign</th><th>Date</th><th>Measurement</th></tr><tr><td>Body Height</td><td>20-Apr-2025</td><td>186.8 cm</td></tr></table></div>"
        },
        "status": "final",
        "code": {
          "coding": [
            {
              "code": "$8302-2",
              "system": "http://loinc.org",
              "display": "Body Height"
            }
          ]
        },
        "subject": {
          "reference": "urn:uuid:1abcb82b-efa7-47dd-a96c-30c9fcbc012e",
          "display": "Benedetto Lombroso"
        },
        "effectiveDateTime": "2025-04-20"
      }
    },
    {
      "fullUrl": "urn:uuid:0916c2c5-7f34-43ee-b3ab-7832c5ca44da",
      "resource": {
        "resourceType": "Observation",
        "id": "0916c2c5-7f34-43ee-b3ab-7832c5ca44da",
        "meta": {
          "profile": [
            "http://hl7.org/fhir/StructureDefinition/vitalsigns"
          ]
        },
        "category": [
          {
            "coding": [
              {
                "system": "http://terminology.hl7.org/CodeSystem/observation-category",
                "code": "vital-signs",
                "display": "Vital Signs"
              }
            ]
          }
        ],
        "valueQuantity": {
          "value": 1,
          "code": "{score}",
          "unit": "{score}"
        },
        "text": {
          "status": "generated",
          "div": "<div xmlns=\"http://www.w3.org/1999/xhtml\"><table class=\"hl7__ips\"><tr><th>Vital Sign</th><th>Date</th><th>Measurement</th></tr><tr><td>Pain severity - 0-10 verbal numeric rating [Score] - Reported</td><td>20-Apr-2025</td><td>1 {score}</td></tr></table></div>"
        },
        "status": "final",
        "code": {
          "coding": [
            {
              "code": "$72514-3",
              "system": "http://loinc.org",
              "display": "Pain severity - 0-10 verbal numeric rating [Score] - Reported"
            }
          ]
        },
        "subject": {
          "reference": "urn:uuid:1abcb82b-efa7-47dd-a96c-30c9fcbc012e",
          "display": "Benedetto Lombroso"
        },
        "effectiveDateTime": "2025-04-20"
      }
    },
    {
      "fullUrl": "urn:uuid:08f507a9-00d6-498e-aa3c-de9edbc60128",
      "resource": {
        "resourceType": "Observation",
        "id": "08f507a9-00d6-498e-aa3c-de9edbc60128",
        "meta": {
          "profile": [
            "http://hl7.org/fhir/StructureDefinition/vitalsigns"
          ]
        },
        "category": [
          {
            "coding": [
              {
                "system": "http://terminology.hl7.org/CodeSystem/observation-category",
                "code": "vital-signs",
                "display": "Vital Signs"
              }
            ]
          }
        ],
        "valueQuantity": {
          "value": 100.3,
          "code": "kg",
          "unit": "kg"
        },
        "text": {
          "status": "generated",
          "div": "<div xmlns=\"http://www.w3.org/1999/xhtml\"><table class=\"hl7__ips\"><tr><th>Vital Sign</th><th>Date</th><th>Measurement</th></tr><tr><td>Body Weight</td><td>20-Apr-2025</td><td>100.3 kg</td></tr></table></div>"
        },
        "status": "final",
        "code": {
          "coding": [
            {
              "code": "$29463-7",
              "system": "http://loinc.org",
              "display": "Body Weight"
            }
          ]
        },
        "subject": {
          "reference": "urn:uuid:1abcb82b-efa7-47dd-a96c-30c9fcbc012e",
          "display": "Benedetto Lombroso"
        },
        "effectiveDateTime": "2025-04-20"
      }
    },
    {
      "fullUrl": "urn:uuid:2b4e06b6-999e-4ddc-84b3-9c380d613db7",
      "resource": {
        "resourceType": "Observation",
        "id": "2b4e06b6-999e-4ddc-84b3-9c380d613db7",
        "meta": {
          "profile": [
            "http://hl7.org/fhir/StructureDefinition/vitalsigns"
          ]
        },
        "category": [
          {
            "coding": [
              {
                "system": "http://terminology.hl7.org/CodeSystem/observation-category",
                "code": "vital-signs",
                "display": "Vital Signs"
              }
            ]
          }
        ],
        "valueQuantity": {
          "value": 28.7,
          "code": "kg/m2",
          "unit": "kg/m2"
        },
        "text": {
          "status": "generated",
          "div": "<div xmlns=\"http://www.w3.org/1999/xhtml\"><table class=\"hl7__ips\"><tr><th>Vital Sign</th><th>Date</th><th>Measurement</th></tr><tr><td>Body mass index (BMI) [Ratio]</td><td>20-Apr-2025</td><td>28.7 kg/m2</td></tr></table></div>"
        },
        "status": "final",
        "code": {
          "coding": [
            {
              "code": "$39156-5",
              "system": "http://loinc.org",
              "display": "Body mass index (BMI) [Ratio]"
            }
          ]
        },
        "subject": {
          "reference": "urn:uuid:1abcb82b-efa7-47dd-a96c-30c9fcbc012e",
          "display": "Benedetto Lombroso"
        },
        "effectiveDateTime": "2025-04-20"
      }
    },
    {
      "fullUrl": "urn:uuid:98738673-68be-499e-abed-26daef10d9cd",
      "resource": {
        "resourceType": "Observation",
        "id": "98738673-68be-499e-abed-26daef10d9cd",
        "meta": {
          "profile": [
            "http://hl7.org/fhir/StructureDefinition/vitalsigns"
          ]
        },
        "category": [
          {
            "coding": [
              {
                "system": "http://terminology.hl7.org/CodeSystem/observation-category",
                "code": "vital-signs",
                "display": "Vital Signs"
              }
            ]
          }
        ],
        "valueQuantity": {
          "value": 75,
          "code": "mm[Hg]",
          "unit": "mm[Hg]"
        },
        "text": {
          "status": "generated",
          "div": "<div xmlns=\"http://www.w3.org/1999/xhtml\"><table class=\"hl7__ips\"><tr><th>Vital Sign</th><th>Date</th><th>Measurement</th></tr><tr><td>Diastolic Blood Pressure</td><td>20-Apr-2025</td><td>75 mm[Hg]</td></tr></table></div>"
        },
        "status": "final",
        "code": {
          "coding": [
            {
              "code": "$8462-4",
              "system": "http://loinc.org",
              "display": "Diastolic Blood Pressure"
            }
          ]
        },
        "subject": {
          "reference": "urn:uuid:1abcb82b-efa7-47dd-a96c-30c9fcbc012e",
          "display": "Benedetto Lombroso"
        },
        "effectiveDateTime": "2025-04-20"
      }
    },
    {
      "fullUrl": "urn:uuid:7a863a0e-0519-4024-a518-4d9942c575fe",
      "resource": {
        "resourceType": "Observation",
        "id": "7a863a0e-0519-4024-a518-4d9942c575fe",
        "meta": {
          "profile": [
            "http://hl7.org/fhir/StructureDefinition/vitalsigns"
          ]
        },
        "category": [
          {
            "coding": [
              {
                "system": "http://terminology.hl7.org/CodeSystem/observation-category",
                "code": "vital-signs",
                "display": "Vital Signs"
              }
            ]
          }
        ],
        "valueQuantity": {
          "value": 123,
          "code": "mm[Hg]",
          "unit": "mm[Hg]"
        },
        "text": {
          "status": "generated",
          "div": "<div xmlns=\"http://www.w3.org/1999/xhtml\"><table class=\"hl7__ips\"><tr><th>Vital Sign</th><th>Date</th><th>Measurement</th></tr><tr><td>Systolic Blood Pressure</td><td>20-Apr-2025</td><td>123 mm[Hg]</td></tr></table></div>"
        },
        "status": "final",
        "code": {
          "coding": [
            {
              "code": "$8480-6",
              "system": "http://loinc.org",
              "display": "Systolic Blood Pressure"
            }
          ]
        },
        "subject": {
          "reference": "urn:uuid:1abcb82b-efa7-47dd-a96c-30c9fcbc012e",
          "display": "Benedetto Lombroso"
        },
        "effectiveDateTime": "2025-04-20"
      }
    },
    {
      "fullUrl": "urn:uuid:9b8e9a44-9410-42e1-ab6b-45f45897de53",
      "resource": {
        "resourceType": "Observation",
        "id": "9b8e9a44-9410-42e1-ab6b-45f45897de53",
        "meta": {
          "profile": [
            "http://hl7.org/fhir/StructureDefinition/vitalsigns"
          ]
        },
        "category": [
          {
            "coding": [
              {
                "system": "http://terminology.hl7.org/CodeSystem/observation-category",
                "code": "vital-signs",
                "display": "Vital Signs"
              }
            ]
          }
        ],
        "valueQuantity": {
          "value": 98,
          "code": "/min",
          "unit": "/min"
        },
        "text": {
          "status": "generated",
          "div": "<div xmlns=\"http://www.w3.org/1999/xhtml\"><table class=\"hl7__ips\"><tr><th>Vital Sign</th><th>Date</th><th>Measurement</th></tr><tr><td>Heart rate</td><td>20-Apr-2025</td><td>98 /min</td></tr></table></div>"
        },
        "status": "final",
        "code": {
          "coding": [
            {
              "code": "$8867-4",
              "system": "http://loinc.org",
              "display": "Heart rate"
            }
          ]
        },
        "subject": {
          "reference": "urn:uuid:1abcb82b-efa7-47dd-a96c-30c9fcbc012e",
          "display": "Benedetto Lombroso"
        },
        "effectiveDateTime": "2025-04-20"
      }
    },
    {
      "fullUrl": "urn:uuid:f83826a4-8e70-407c-91de-e534d0d51490",
      "resource": {
        "resourceType": "Observation",
        "id": "f83826a4-8e70-407c-91de-e534d0d51490",
        "meta": {
          "profile": [
            "http://hl7.org/fhir/StructureDefinition/vitalsigns"
          ]
        },
        "category": [
          {
            "coding": [
              {
                "system": "http://terminology.hl7.org/CodeSystem/observation-category",
                "code": "vital-signs",
                "display": "Vital Signs"
              }
            ]
          }
        ],
        "valueQuantity": {
          "value": 15,
          "code": "/min",
          "unit": "/min"
        },
        "text": {
          "status": "generated",
          "div": "<div xmlns=\"http://www.w3.org/1999/xhtml\"><table class=\"hl7__ips\"><tr><th>Vital Sign</th><th>Date</th><th>Measurement</th></tr><tr><td>Respiratory rate</td><td>20-Apr-2025</td><td>15 /min</td></tr></table></div>"
        },
        "status": "final",
        "code": {
          "coding": [
            {
              "code": "$9279-1",
              "system": "http://loinc.org",
              "display": "Respiratory rate"
            }
          ]
        },
        "subject": {
          "reference": "urn:uuid:1abcb82b-efa7-47dd-a96c-30c9fcbc012e",
          "display": "Benedetto Lombroso"
        },
        "effectiveDateTime": "2025-04-20"
      }
    },
    {
      "fullUrl": "urn:uuid:2cd4326a-28b2-421f-9177-77f4a44cc25c",
      "resource": {
        "resourceType": "Observation",
        "id": "2cd4326a-28b2-421f-9177-77f4a44cc25c",
        "meta": {
          "profile": [
            "http://hl7.org/fhir/StructureDefinition/vitalsigns"
          ]
        },
        "category": [
          {
            "coding": [
              {
                "system": "http://terminology.hl7.org/CodeSystem/observation-category",
                "code": "vital-signs",
                "display": "Vital Signs"
              }
            ]
          }
        ],
        "valueQuantity": {
          "value": 186.8,
          "code": "cm",
          "unit": "cm"
        },
        "text": {
          "status": "generated",
          "div": "<div xmlns=\"http://www.w3.org/1999/xhtml\"><table class=\"hl7__ips\"><tr><th>Vital Sign</th><th>Date</th><th>Measurement</th></tr><tr><td>Body Height</td><td>14-Apr-2024</td><td>186.8 cm</td></tr></table></div>"
        },
        "status": "final",
        "code": {
          "coding": [
            {
              "code": "$8302-2",
              "system": "http://loinc.org",
              "display": "Body Height"
            }
          ]
        },
        "subject": {
          "reference": "urn:uuid:1abcb82b-efa7-47dd-a96c-30c9fcbc012e",
          "display": "Benedetto Lombroso"
        },
        "effectiveDateTime": "2024-04-14"
      }
    },
    {
      "fullUrl": "urn:uuid:002ce22f-c991-40d5-8565-b7e58ceeaec0",
      "resource": {
        "resourceType": "Observation",
        "id": "002ce22f-c991-40d5-8565-b7e58ceeaec0",
        "meta": {
          "profile": [
            "http://hl7.org/fhir/StructureDefinition/vitalsigns"
          ]
        },
        "category": [
          {
            "coding": [
              {
                "system": "http://terminology.hl7.org/CodeSystem/observation-category",
                "code": "vital-signs",
                "display": "Vital Signs"
              }
            ]
          }
        ],
        "valueQuantity": {
          "value": 3,
          "code": "{score}",
          "unit": "{score}"
        },
        "text": {
          "status": "generated",
          "div": "<div xmlns=\"http://www.w3.org/1999/xhtml\"><table class=\"hl7__ips\"><tr><th>Vital Sign</th><th>Date</th><th>Measurement</th></tr><tr><td>Pain severity - 0-10 verbal numeric rating [Score] - Reported</td><td>14-Apr-2024</td><td>3 {score}</td></tr></table></div>"
        },
        "status": "final",
        "code": {
          "coding": [
            {
              "code": "$72514-3",
              "system": "http://loinc.org",
              "display": "Pain severity - 0-10 verbal numeric rating [Score] - Reported"
            }
          ]
        },
        "subject": {
          "reference": "urn:uuid:1abcb82b-efa7-47dd-a96c-30c9fcbc012e",
          "display": "Benedetto Lombroso"
        },
        "effectiveDateTime": "2024-04-14"
      }
    },
    {
      "fullUrl": "urn:uuid:1a081033-7ab7-484b-8b33-6aae0035b7dd",
      "resource": {
        "resourceType": "Observation",
        "id": "1a081033-7ab7-484b-8b33-6aae0035b7dd",
        "meta": {
          "profile": [
            "http://hl7.org/fhir/StructureDefinition/vitalsigns"
          ]
        },
        "category": [
          {
            "coding": [
              {
                "system": "http://terminology.hl7.org/CodeSystem/observation-category",
                "code": "vital-signs",
                "display": "Vital Signs"
              }
            ]
          }
        ],
        "valueQuantity": {
          "value": 98.9,
          "code": "kg",
          "unit": "kg"
        },
        "text": {
          "status": "generated",
          "div": "<div xmlns=\"http://www.w3.org/1999/xhtml\"><table class=\"hl7__ips\"><tr><th>Vital Sign</th><th>Date</th><th>Measurement</th></tr><tr><td>Body Weight</td><td>14-Apr-2024</td><td>98.9 kg</td></tr></table></div>"
        },
        "status": "final",
        "code": {
          "coding": [
            {
              "code": "$29463-7",
              "system": "http://loinc.org",
              "display": "Body Weight"
            }
          ]
        },
        "subject": {
          "reference": "urn:uuid:1abcb82b-efa7-47dd-a96c-30c9fcbc012e",
          "display": "Benedetto Lombroso"
        },
        "effectiveDateTime": "2024-04-14"
      }
    },
    {
      "fullUrl": "urn:uuid:6d631066-72f9-40e4-925d-44f00b807ee8",
      "resource": {
        "resourceType": "Observation",
        "id": "6d631066-72f9-40e4-925d-44f00b807ee8",
        "meta": {
          "profile": [
            "http://hl7.org/fhir/StructureDefinition/vitalsigns"
          ]
        },
        "category": [
          {
            "coding": [
              {
                "system": "http://terminology.hl7.org/CodeSystem/observation-category",
                "code": "vital-signs",
                "display": "Vital Signs"
              }
            ]
          }
        ],
        "valueQuantity": {
          "value": 28.3,
          "code": "kg/m2",
          "unit": "kg/m2"
        },
        "text": {
          "status": "generated",
          "div": "<div xmlns=\"http://www.w3.org/1999/xhtml\"><table class=\"hl7__ips\"><tr><th>Vital Sign</th><th>Date</th><th>Measurement</th></tr><tr><td>Body mass index (BMI) [Ratio]</td><td>14-Apr-2024</td><td>28.3 kg/m2</td></tr></table></div>"
        },
        "status": "final",
        "code": {
          "coding": [
            {
              "code": "$39156-5",
              "system": "http://loinc.org",
              "display": "Body mass index (BMI) [Ratio]"
            }
          ]
        },
        "subject": {
          "reference": "urn:uuid:1abcb82b-efa7-47dd-a96c-30c9fcbc012e",
          "display": "Benedetto Lombroso"
        },
        "effectiveDateTime": "2024-04-14"
      }
    },
    {
      "fullUrl": "urn:uuid:1522acb4-e2e6-49c1-9a25-888d38914d7d",
      "resource": {
        "resourceType": "Observation",
        "id": "1522acb4-e2e6-49c1-9a25-888d38914d7d",
        "meta": {
          "profile": [
            "http://hl7.org/fhir/StructureDefinition/vitalsigns"
          ]
        },
        "category": [
          {
            "coding": [
              {
                "system": "http://terminology.hl7.org/CodeSystem/observation-category",
                "code": "vital-signs",
                "display": "Vital Signs"
              }
            ]
          }
        ],
        "valueQuantity": {
          "value": 74,
          "code": "mm[Hg]",
          "unit": "mm[Hg]"
        },
        "text": {
          "status": "generated",
          "div": "<div xmlns=\"http://www.w3.org/1999/xhtml\"><table class=\"hl7__ips\"><tr><th>Vital Sign</th><th>Date</th><th>Measurement</th></tr><tr><td>Diastolic Blood Pressure</td><td>14-Apr-2024</td><td>74 mm[Hg]</td></tr></table></div>"
        },
        "status": "final",
        "code": {
          "coding": [
            {
              "code": "$8462-4",
              "system": "http://loinc.org",
              "display": "Diastolic Blood Pressure"
            }
          ]
        },
        "subject": {
          "reference": "urn:uuid:1abcb82b-efa7-47dd-a96c-30c9fcbc012e",
          "display": "Benedetto Lombroso"
        },
        "effectiveDateTime": "2024-04-14"
      }
    },
    {
      "fullUrl": "urn:uuid:d3919ccf-33ac-4b86-a34e-85606112e94b",
      "resource": {
        "resourceType": "Observation",
        "id": "d3919ccf-33ac-4b86-a34e-85606112e94b",
        "meta": {
          "profile": [
            "http://hl7.org/fhir/StructureDefinition/vitalsigns"
          ]
        },
        "category": [
          {
            "coding": [
              {
                "system": "http://terminology.hl7.org/CodeSystem/observation-category",
                "code": "vital-signs",
                "display": "Vital Signs"
              }
            ]
          }
        ],
        "valueQuantity": {
          "value": 112,
          "code": "mm[Hg]",
          "unit": "mm[Hg]"
        },
        "text": {
          "status": "generated",
          "div": "<div xmlns=\"http://www.w3.org/1999/xhtml\"><table class=\"hl7__ips\"><tr><th>Vital Sign</th><th>Date</th><th>Measurement</th></tr><tr><td>Systolic Blood Pressure</td><td>14-Apr-2024</td><td>112 mm[Hg]</td></tr></table></div>"
        },
        "status": "final",
        "code": {
          "coding": [
            {
              "code": "$8480-6",
              "system": "http://loinc.org",
              "display": "Systolic Blood Pressure"
            }
          ]
        },
        "subject": {
          "reference": "urn:uuid:1abcb82b-efa7-47dd-a96c-30c9fcbc012e",
          "display": "Benedetto Lombroso"
        },
        "effectiveDateTime": "2024-04-14"
      }
    },
    {
      "fullUrl": "urn:uuid:c115dac2-4833-409f-b71a-8bf04645f0f1",
      "resource": {
        "resourceType": "Observation",
        "id": "c115dac2-4833-409f-b71a-8bf04645f0f1",
        "meta": {
          "profile": [
            "http://hl7.org/fhir/StructureDefinition/vitalsigns"
          ]
        },
        "category": [
          {
            "coding": [
              {
                "system": "http://terminology.hl7.org/CodeSystem/observation-category",
                "code": "vital-signs",
                "display": "Vital Signs"
              }
            ]
          }
        ],
        "valueQuantity": {
          "value": 71,
          "code": "/min",
          "unit": "/min"
        },
        "text": {
          "status": "generated",
          "div": "<div xmlns=\"http://www.w3.org/1999/xhtml\"><table class=\"hl7__ips\"><tr><th>Vital Sign</th><th>Date</th><th>Measurement</th></tr><tr><td>Heart rate</td><td>14-Apr-2024</td><td>71 /min</td></tr></table></div>"
        },
        "status": "final",
        "code": {
          "coding": [
            {
              "code": "$8867-4",
              "system": "http://loinc.org",
              "display": "Heart rate"
            }
          ]
        },
        "subject": {
          "reference": "urn:uuid:1abcb82b-efa7-47dd-a96c-30c9fcbc012e",
          "display": "Benedetto Lombroso"
        },
        "effectiveDateTime": "2024-04-14"
      }
    },
    {
      "fullUrl": "urn:uuid:ea7e765f-7cfd-4ebd-b676-c7388e7e5237",
      "resource": {
        "resourceType": "Observation",
        "id": "ea7e765f-7cfd-4ebd-b676-c7388e7e5237",
        "meta": {
          "profile": [
            "http://hl7.org/fhir/StructureDefinition/vitalsigns"
          ]
        },
        "category": [
          {
            "coding": [
              {
                "system": "http://terminology.hl7.org/CodeSystem/observation-category",
                "code": "vital-signs",
                "display": "Vital Signs"
              }
            ]
          }
        ],
        "valueQuantity": {
          "value": 15,
          "code": "/min",
          "unit": "/min"
        },
        "text": {
          "status": "generated",
          "div": "<div xmlns=\"http://www.w3.org/1999/xhtml\"><table class=\"hl7__ips\"><tr><th>Vital Sign</th><th>Date</th><th>Measurement</th></tr><tr><td>Respiratory rate</td><td>14-Apr-2024</td><td>15 /min</td></tr></table></div>"
        },
        "status": "final",
        "code": {
          "coding": [
            {
              "code": "$9279-1",
              "system": "http://loinc.org",
              "display": "Respiratory rate"
            }
          ]
        },
        "subject": {
          "reference": "urn:uuid:1abcb82b-efa7-47dd-a96c-30c9fcbc012e",
          "display": "Benedetto Lombroso"
        },
        "effectiveDateTime": "2024-04-14"
      }
    },
    {
      "fullUrl": "urn:uuid:bf7b5bc2-9113-4ca9-a38f-15440a5560f6",
      "resource": {
        "resourceType": "Observation",
        "id": "bf7b5bc2-9113-4ca9-a38f-15440a5560f6",
        "meta": {
          "profile": [
            "http://hl7.eu/fhir/laboratory/StructureDefinition/Observation-resultslab-eu-lab"
          ]
        },
        "performer": [
          {
            "display": "The Central European Lab"
          }
        ],
        "category": [
          {
            "coding": [
              {
                "system": "http://terminology.hl7.org/CodeSystem/observation-category",
                "code": "laboratory"
              }
            ]
          }
        ],
        "code": {
          "coding": [
            {
              "code": "4548-4",
              "system": "http://loinc.org",
              "display": "Hemoglobin A1c/Hemoglobin.total in Blood"
            }
          ],
          "text": "Hemoglobin A1c/Hemoglobin.total in Blood"
        },
        "valueQuantity": {
          "system": "http://unitsofmeasure.org",
          "value": 5.9,
          "unit": "%",
          "code": "%"
        },
        "referenceRange": [
          {
            "low": {
              "value": 4,
              "code": "%",
              "system": "http://unitsofmeasure.org"
            }
          },
          {
            "high": {
              "value": 6,
              "code": "%",
              "system": "http://unitsofmeasure.org"
            }
          }
        ],
        "text": {
          "status": "generated",
          "div": "<div xmlns=\"http://www.w3.org/1999/xhtml\"><table class=\"hl7__eu__lab__report\"><tr><th>Test</th><th>20-Apr-2025</th><th>Reference&#xA0;Range</th><th>Unit</th></tr><tr><td>Hemoglobin A1c/Hemoglobin.total in Blood</td><td>5.9</td><td>4 - 6</td><td></td><td>%</td></tr></table></div>"
        },
        "status": "final",
        "subject": {
          "reference": "urn:uuid:1abcb82b-efa7-47dd-a96c-30c9fcbc012e",
          "display": "Benedetto Lombroso"
        },
        "effectiveDateTime": "2025-04-20T07:22:02Z"
      }
    },
    {
      "fullUrl": "urn:uuid:04f2c796-2195-4102-85b7-69642f75be80",
      "resource": {
        "resourceType": "Observation",
        "id": "04f2c796-2195-4102-85b7-69642f75be80",
        "meta": {
          "profile": [
            "http://hl7.eu/fhir/laboratory/StructureDefinition/Observation-resultslab-eu-lab"
          ]
        },
        "performer": [
          {
            "display": "The Central European Lab"
          }
        ],
        "category": [
          {
            "coding": [
              {
                "system": "http://terminology.hl7.org/CodeSystem/observation-category",
                "code": "laboratory"
              }
            ]
          }
        ],
        "code": {
          "coding": [
            {
              "code": "2339-0",
              "system": "http://loinc.org",
              "display": "Glucose [Mass/volume] in Blood"
            }
          ],
          "text": "Glucose [Mass/volume] in Blood"
        },
        "valueQuantity": {
          "system": "http://unitsofmeasure.org",
          "value": 64.8,
          "unit": "mg/dL",
          "code": "mg/dL"
        },
        "referenceRange": [
          {
            "low": {
              "value": 70,
              "code": "mg/dL",
              "system": "http://unitsofmeasure.org"
            }
          },
          {
            "high": {
              "value": 99,
              "code": "mg/dL",
              "system": "http://unitsofmeasure.org"
            }
          }
        ],
        "interpretation": [
          {
            "coding": [
              {
                "code": "L",
                "system": "http://terminology.hl7.org/CodeSystem/v3-ObservationInterpretation",
                "display": "Low"
              }
            ]
          }
        ],
        "text": {
          "status": "generated",
          "div": "<div xmlns=\"http://www.w3.org/1999/xhtml\"><table class=\"hl7__eu__lab__report\"><tr><th>Test</th><th>20-Apr-2025</th><th>Reference&#xA0;Range</th><th>Unit</th></tr><tr><td>Glucose [Mass/volume] in Blood</td><td>64.8</td><td>70 - 99</td><td>L</td><td>mg/dL</td></tr></table></div>"
        },
        "status": "final",
        "subject": {
          "reference": "urn:uuid:1abcb82b-efa7-47dd-a96c-30c9fcbc012e",
          "display": "Benedetto Lombroso"
        },
        "effectiveDateTime": "2025-04-20T07:22:02Z"
      }
    },
    {
      "fullUrl": "urn:uuid:fd8b6ac7-d0b1-491d-9c62-22add863e732",
      "resource": {
        "resourceType": "Observation",
        "id": "fd8b6ac7-d0b1-491d-9c62-22add863e732",
        "meta": {
          "profile": [
            "http://hl7.eu/fhir/laboratory/StructureDefinition/Observation-resultslab-eu-lab"
          ]
        },
        "performer": [
          {
            "display": "The Central European Lab"
          }
        ],
        "category": [
          {
            "coding": [
              {
                "system": "http://terminology.hl7.org/CodeSystem/observation-category",
                "code": "laboratory"
              }
            ]
          }
        ],
        "code": {
          "coding": [
            {
              "code": "6299-2",
              "system": "http://loinc.org",
              "display": "Urea nitrogen [Mass/volume] in Blood"
            }
          ],
          "text": "Urea nitrogen [Mass/volume] in Blood"
        },
        "valueQuantity": {
          "system": "http://unitsofmeasure.org",
          "value": 10.3,
          "unit": "mg/dL",
          "code": "mg/dL"
        },
        "referenceRange": [
          {
            "low": {
              "value": 7,
              "code": "mg/dL",
              "system": "http://unitsofmeasure.org"
            }
          },
          {
            "high": {
              "value": 20,
              "code": "mg/dL",
              "system": "http://unitsofmeasure.org"
            }
          }
        ],
        "text": {
          "status": "generated",
          "div": "<div xmlns=\"http://www.w3.org/1999/xhtml\"><table class=\"hl7__eu__lab__report\"><tr><th>Test</th><th>20-Apr-2025</th><th>Reference&#xA0;Range</th><th>Unit</th></tr><tr><td>Urea nitrogen [Mass/volume] in Blood</td><td>10.3</td><td>7 - 20</td><td></td><td>mg/dL</td></tr></table></div>"
        },
        "status": "final",
        "subject": {
          "reference": "urn:uuid:1abcb82b-efa7-47dd-a96c-30c9fcbc012e",
          "display": "Benedetto Lombroso"
        },
        "effectiveDateTime": "2025-04-20T07:22:02Z"
      }
    },
    {
      "fullUrl": "urn:uuid:9255a0fe-3fc6-456e-9e80-056238cfca18",
      "resource": {
        "resourceType": "Observation",
        "id": "9255a0fe-3fc6-456e-9e80-056238cfca18",
        "meta": {
          "profile": [
            "http://hl7.eu/fhir/laboratory/StructureDefinition/Observation-resultslab-eu-lab"
          ]
        },
        "performer": [
          {
            "display": "The Central European Lab"
          }
        ],
        "category": [
          {
            "coding": [
              {
                "system": "http://terminology.hl7.org/CodeSystem/observation-category",
                "code": "laboratory"
              }
            ]
          }
        ],
        "code": {
          "coding": [
            {
              "code": "38483-4",
              "system": "http://loinc.org",
              "display": "Creatinine [Mass/volume] in Blood"
            }
          ],
          "text": "Creatinine [Mass/volume] in Blood"
        },
        "valueQuantity": {
          "system": "http://unitsofmeasure.org",
          "value": 1.4,
          "unit": "mg/dL",
          "code": "mg/dL"
        },
        "referenceRange": [
          {
            "low": {
              "value": 0.6,
              "code": "mg/dL",
              "system": "http://unitsofmeasure.org"
            }
          },
          {
            "high": {
              "value": 1.3,
              "code": "mg/dL",
              "system": "http://unitsofmeasure.org"
            }
          }
        ],
        "interpretation": [
          {
            "coding": [
              {
                "code": "H",
                "system": "http://terminology.hl7.org/CodeSystem/v3-ObservationInterpretation",
                "display": "High"
              }
            ]
          }
        ],
        "text": {
          "status": "generated",
          "div": "<div xmlns=\"http://www.w3.org/1999/xhtml\"><table class=\"hl7__eu__lab__report\"><tr><th>Test</th><th>20-Apr-2025</th><th>Reference&#xA0;Range</th><th>Unit</th></tr><tr><td>Creatinine [Mass/volume] in Blood</td><td>1.4</td><td>0.6 - 1.3</td><td>H</td><td>mg/dL</td></tr></table></div>"
        },
        "status": "final",
        "subject": {
          "reference": "urn:uuid:1abcb82b-efa7-47dd-a96c-30c9fcbc012e",
          "display": "Benedetto Lombroso"
        },
        "effectiveDateTime": "2025-04-20T07:22:02Z"
      }
    },
    {
      "fullUrl": "urn:uuid:49e338d1-7e4d-4d24-838b-5eed269c022e",
      "resource": {
        "resourceType": "Observation",
        "id": "49e338d1-7e4d-4d24-838b-5eed269c022e",
        "meta": {
          "profile": [
            "http://hl7.eu/fhir/laboratory/StructureDefinition/Observation-resultslab-eu-lab"
          ]
        },
        "performer": [
          {
            "display": "The Central European Lab"
          }
        ],
        "category": [
          {
            "coding": [
              {
                "system": "http://terminology.hl7.org/CodeSystem/observation-category",
                "code": "laboratory"
              }
            ]
          }
        ],
        "code": {
          "coding": [
            {
              "code": "49765-1",
              "system": "http://loinc.org",
              "display": "Calcium [Mass/volume] in Blood"
            }
          ],
          "text": "Calcium [Mass/volume] in Blood"
        },
        "valueQuantity": {
          "system": "http://unitsofmeasure.org",
          "value": 9.5,
          "unit": "mg/dL",
          "code": "mg/dL"
        },
        "referenceRange": [
          {
            "low": {
              "value": 8.5,
              "code": "mg/dL",
              "system": "http://unitsofmeasure.org"
            }
          },
          {
            "high": {
              "value": 10.5,
              "code": "mg/dL",
              "system": "http://unitsofmeasure.org"
            }
          }
        ],
        "text": {
          "status": "generated",
          "div": "<div xmlns=\"http://www.w3.org/1999/xhtml\"><table class=\"hl7__eu__lab__report\"><tr><th>Test</th><th>20-Apr-2025</th><th>Reference&#xA0;Range</th><th>Unit</th></tr><tr><td>Calcium [Mass/volume] in Blood</td><td>9.5</td><td>8.5 - 10.5</td><td></td><td>mg/dL</td></tr></table></div>"
        },
        "status": "final",
        "subject": {
          "reference": "urn:uuid:1abcb82b-efa7-47dd-a96c-30c9fcbc012e",
          "display": "Benedetto Lombroso"
        },
        "effectiveDateTime": "2025-04-20T07:22:02Z"
      }
    },
    {
      "fullUrl": "urn:uuid:05d15124-6c56-42fa-82ec-690d1a65e29b",
      "resource": {
        "resourceType": "Observation",
        "id": "05d15124-6c56-42fa-82ec-690d1a65e29b",
        "meta": {
          "profile": [
            "http://hl7.eu/fhir/laboratory/StructureDefinition/Observation-resultslab-eu-lab"
          ]
        },
        "performer": [
          {
            "display": "The Central European Lab"
          }
        ],
        "category": [
          {
            "coding": [
              {
                "system": "http://terminology.hl7.org/CodeSystem/observation-category",
                "code": "laboratory"
              }
            ]
          }
        ],
        "code": {
          "coding": [
            {
              "code": "2947-0",
              "system": "http://loinc.org",
              "display": "Sodium [Moles/volume] in Blood"
            }
          ],
          "text": "Sodium [Moles/volume] in Blood"
        },
        "valueQuantity": {
          "system": "http://unitsofmeasure.org",
          "value": 137.8,
          "unit": "mmol/L",
          "code": "mmol/L"
        },
        "referenceRange": [
          {
            "low": {
              "value": 135,
              "code": "mmol/L",
              "system": "http://unitsofmeasure.org"
            }
          },
          {
            "high": {
              "value": 145,
              "code": "mmol/L",
              "system": "http://unitsofmeasure.org"
            }
          }
        ],
        "text": {
          "status": "generated",
          "div": "<div xmlns=\"http://www.w3.org/1999/xhtml\"><table class=\"hl7__eu__lab__report\"><tr><th>Test</th><th>20-Apr-2025</th><th>Reference&#xA0;Range</th><th>Unit</th></tr><tr><td>Sodium [Moles/volume] in Blood</td><td>137.8</td><td>135 - 145</td><td></td><td>mmol/L</td></tr></table></div>"
        },
        "status": "final",
        "subject": {
          "reference": "urn:uuid:1abcb82b-efa7-47dd-a96c-30c9fcbc012e",
          "display": "Benedetto Lombroso"
        },
        "effectiveDateTime": "2025-04-20T07:22:02Z"
      }
    },
    {
      "fullUrl": "urn:uuid:21259ae0-c22c-4279-a825-20df92b8f99b",
      "resource": {
        "resourceType": "Observation",
        "id": "21259ae0-c22c-4279-a825-20df92b8f99b",
        "meta": {
          "profile": [
            "http://hl7.eu/fhir/laboratory/StructureDefinition/Observation-resultslab-eu-lab"
          ]
        },
        "performer": [
          {
            "display": "The Central European Lab"
          }
        ],
        "category": [
          {
            "coding": [
              {
                "system": "http://terminology.hl7.org/CodeSystem/observation-category",
                "code": "laboratory"
              }
            ]
          }
        ],
        "code": {
          "coding": [
            {
              "code": "6298-4",
              "system": "http://loinc.org",
              "display": "Potassium [Moles/volume] in Blood"
            }
          ],
          "text": "Potassium [Moles/volume] in Blood"
        },
        "valueQuantity": {
          "system": "http://unitsofmeasure.org",
          "value": 4.4,
          "unit": "mmol/L",
          "code": "mmol/L"
        },
        "referenceRange": [
          {
            "low": {
              "value": 3.5,
              "code": "mmol/L",
              "system": "http://unitsofmeasure.org"
            }
          },
          {
            "high": {
              "value": 5.2,
              "code": "mmol/L",
              "system": "http://unitsofmeasure.org"
            }
          }
        ],
        "text": {
          "status": "generated",
          "div": "<div xmlns=\"http://www.w3.org/1999/xhtml\"><table class=\"hl7__eu__lab__report\"><tr><th>Test</th><th>20-Apr-2025</th><th>Reference&#xA0;Range</th><th>Unit</th></tr><tr><td>Potassium [Moles/volume] in Blood</td><td>4.4</td><td>3.5 - 5.2</td><td></td><td>mmol/L</td></tr></table></div>"
        },
        "status": "final",
        "subject": {
          "reference": "urn:uuid:1abcb82b-efa7-47dd-a96c-30c9fcbc012e",
          "display": "Benedetto Lombroso"
        },
        "effectiveDateTime": "2025-04-20T07:22:02Z"
      }
    },
    {
      "fullUrl": "urn:uuid:e22d1efc-c3b9-4877-b3f9-d46200f83b3b",
      "resource": {
        "resourceType": "Observation",
        "id": "e22d1efc-c3b9-4877-b3f9-d46200f83b3b",
        "meta": {
          "profile": [
            "http://hl7.eu/fhir/laboratory/StructureDefinition/Observation-resultslab-eu-lab"
          ]
        },
        "performer": [
          {
            "display": "The Central European Lab"
          }
        ],
        "category": [
          {
            "coding": [
              {
                "system": "http://terminology.hl7.org/CodeSystem/observation-category",
                "code": "laboratory"
              }
            ]
          }
        ],
        "code": {
          "coding": [
            {
              "code": "2069-3",
              "system": "http://loinc.org",
              "display": "Chloride [Moles/volume] in Blood"
            }
          ],
          "text": "Chloride [Moles/volume] in Blood"
        },
        "valueQuantity": {
          "system": "http://unitsofmeasure.org",
          "value": 108.2,
          "unit": "mmol/L",
          "code": "mmol/L"
        },
        "referenceRange": [
          {
            "low": {
              "value": 98,
              "code": "mmol/L",
              "system": "http://unitsofmeasure.org"
            }
          },
          {
            "high": {
              "value": 114,
              "code": "mmol/L",
              "system": "http://unitsofmeasure.org"
            }
          }
        ],
        "text": {
          "status": "generated",
          "div": "<div xmlns=\"http://www.w3.org/1999/xhtml\"><table class=\"hl7__eu__lab__report\"><tr><th>Test</th><th>20-Apr-2025</th><th>Reference&#xA0;Range</th><th>Unit</th></tr><tr><td>Chloride [Moles/volume] in Blood</td><td>108.2</td><td>98 - 114</td><td></td><td>mmol/L</td></tr></table></div>"
        },
        "status": "final",
        "subject": {
          "reference": "urn:uuid:1abcb82b-efa7-47dd-a96c-30c9fcbc012e",
          "display": "Benedetto Lombroso"
        },
        "effectiveDateTime": "2025-04-20T07:22:02Z"
      }
    },
    {
      "fullUrl": "urn:uuid:05b05873-e1a7-4824-96ec-3930f976a353",
      "resource": {
        "resourceType": "Observation",
        "id": "05b05873-e1a7-4824-96ec-3930f976a353",
        "meta": {
          "profile": [
            "http://hl7.eu/fhir/laboratory/StructureDefinition/Observation-resultslab-eu-lab"
          ]
        },
        "performer": [
          {
            "display": "The Central European Lab"
          }
        ],
        "category": [
          {
            "coding": [
              {
                "system": "http://terminology.hl7.org/CodeSystem/observation-category",
                "code": "laboratory"
              }
            ]
          }
        ],
        "code": {
          "coding": [
            {
              "code": "20565-8",
              "system": "http://loinc.org",
              "display": "Carbon dioxide, total [Moles/volume] in Blood"
            }
          ],
          "text": "Carbon dioxide, total [Moles/volume] in Blood"
        },
        "valueQuantity": {
          "system": "http://unitsofmeasure.org",
          "value": 25.7,
          "unit": "mmol/L",
          "code": "mmol/L"
        },
        "referenceRange": [
          {
            "low": {
              "value": 24,
              "code": "mmol/L",
              "system": "http://unitsofmeasure.org"
            }
          },
          {
            "high": {
              "value": 29,
              "code": "mmol/L",
              "system": "http://unitsofmeasure.org"
            }
          }
        ],
        "text": {
          "status": "generated",
          "div": "<div xmlns=\"http://www.w3.org/1999/xhtml\"><table class=\"hl7__eu__lab__report\"><tr><th>Test</th><th>20-Apr-2025</th><th>Reference&#xA0;Range</th><th>Unit</th></tr><tr><td>Carbon dioxide, total [Moles/volume] in Blood</td><td>25.7</td><td>24 - 29</td><td></td><td>mmol/L</td></tr></table></div>"
        },
        "status": "final",
        "subject": {
          "reference": "urn:uuid:1abcb82b-efa7-47dd-a96c-30c9fcbc012e",
          "display": "Benedetto Lombroso"
        },
        "effectiveDateTime": "2025-04-20T07:22:02Z"
      }
    },
    {
      "fullUrl": "urn:uuid:46ef1a74-8c8e-46a1-8975-d9d11bfd5ec0",
      "resource": {
        "resourceType": "DeviceUseStatement",
        "id": "46ef1a74-8c8e-46a1-8975-d9d11bfd5ec0",
        "meta": {
          "profile": [
            "http://hl7.eu/fhir/eps/StructureDefinition/deviceUseStatement-eu-eps"
          ]
        },
        "timingPeriod": {
          "start": "2008-10-05"
        },
        "text": {
          "status": "generated",
          "div": "<div xmlns=\"http://www.w3.org/1999/xhtml\"><table class=\"hl7__ips\"><tr><td>Blood glucose meter (physical object)</td><td><span class=\"nb\">05-Oct-2008</span></td></tr></table></div>"
        },
        "status": "active",
        "device": {
          "reference": "urn:uuid:f3a29633-22e5-4cd3-8307-7ba8281502c0",
          "display": "Blood glucose meter (physical object)"
        },
        "subject": {
          "reference": "urn:uuid:1abcb82b-efa7-47dd-a96c-30c9fcbc012e",
          "display": "Benedetto Lombroso"
        }
      }
    },
    {
      "fullUrl": "urn:uuid:f3a29633-22e5-4cd3-8307-7ba8281502c0",
      "resource": {
        "resourceType": "Device",
        "id": "f3a29633-22e5-4cd3-8307-7ba8281502c0",
        "meta": {
          "profile": [
            "http://hl7.eu/fhir/eps/StructureDefinition/device-eu-eps"
          ]
        },
        "udiCarrier": [
          {
            "id": "(01)53476026808585(11)080914(17)330929(10)2481143057125(21)487992437180"
          }
        ],
        "status": "active",
        "patient": {
          "reference": "urn:uuid:1abcb82b-efa7-47dd-a96c-30c9fcbc012e",
          "display": "Benedetto Lombroso"
        },
        "type": {
          "coding": [
            {
              "code": "337414009",
              "system": "http://snomed.info/sct",
              "display": "Blood glucose meter (physical object)"
            }
          ]
        }
      }
    },
    {
      "fullUrl": "urn:uuid:51857212-1cc8-4d09-a373-6fa018690ab4",
      "resource": {
        "resourceType": "Device",
        "id": "51857212-1cc8-4d09-a373-6fa018690ab4",
        "deviceName": [
          {
            "name": "SYNDERAI Synthetic Generator",
            "type": "manufacturer-name"
          }
        ],
        "version": [
          {
            "value": "5.0"
          }
        ],
        "text": {
          "status": "generated",
          "div": "<div xmlns=\"http://www.w3.org/1999/xhtml\">SYNDERAI Synthetic Generator v5.0</div>"
        },
        "status": "active\"",
        "distinctIdentifier": "synderai-generator-50",
        "manufacturer": "SYNDERAI Project"
      }
    },
    {
      "fullUrl": "urn:uuid:d960970b-9e07-4d0b-9c9b-875ca9ae9f1a",
      "resource": {
        "resourceType": "Provenance",
        "id": "d960970b-9e07-4d0b-9c9b-875ca9ae9f1a",
        "target": [
          {
            "reference": "Patient/1abcb82b-efa7-47dd-a96c-30c9fcbc012e"
          },
          {
            "reference": "Bundle/fddb9dad-6e1f-4584-a394-dfc43d4821de"
          },
          {
            "reference": "Composition/047d0948-4e89-46ea-aaac-b8d12c8b7d87"
          },
          {
            "reference": "PractitionerRole/d57bfd75-9e8f-4ce3-94e0-afa593299fdc"
          },
          {
            "reference": "Organization/391bb859-d2b7-4ea6-962c-eb1bb22db20e"
          },
          {
            "reference": "Practitioner/12cc8724-7420-4fdc-b8f2-a4cc87cb6542"
          }
        ],
        "activity": {
          "text": "Synthetic Example Data Generation"
        },
        "policy": [
          "https://synderai.net/synderai-synthetic-data-policy"
        ],
        "agent": [
          {
            "type": {
              "text": "author"
            },
            "who": {
              "reference": "Device/51857212-1cc8-4d09-a373-6fa018690ab4"
            }
          }
        ],
        "reason": [
          {
            "text": "Interoperability Testing and Training (non-clinical use)"
          }
        ],
        "text": {
          "status": "generated",
          "div": "<div xmlns=\"http://www.w3.org/1999/xhtml\">Provenance for SYNDERAI Synthetic Example Data Resource</div>"
        },
        "recorded": "2025-04-20T07:22:02Z"
      }
    }
  ],
  "type": "document",
  "timestamp": "2025-04-20T07:22:02Z"
}
