<Bundle xmlns="http://hl7.org/fhir">
   <id value="fe15b42a-60e4-47d7-8840-ef7c412293ee"/>
   <meta>
      <profile value="http://hl7.eu/fhir/eps/StructureDefinition/bundle-eu-eps"/>
   </meta>
   <identifier>
      <system value="urn:oid:2.16.840.1.113883.2.51.999"/>
      <value value="4db99642-06f4-45e2-b7c1-8894586e6044"/>
      <assigner>
         <display value="HL7 Europe"/>
      </assigner>
   </identifier>
   <type value="document"/>
   <timestamp value="2024-09-30T23:04:23Z"/>
   <entry>
      <fullUrl value="urn:uuid:9970dad8-f036-421a-b25f-efee9c4c91da"/>
      <resource>
         <Composition>
            <id value="9970dad8-f036-421a-b25f-efee9c4c91da"/>
            <meta>
               <profile value="http://hl7.eu/fhir/eps/StructureDefinition/composition-eu-eps"/>
               <security>
                  <system value="http://terminology.hl7.org/CodeSystem/v3-ActReason"/>
                  <code value="HTEST"/>
               </security>
               <security>
                  <system value="http://terminology.hl7.org/CodeSystem/v3-ActReason"/>
                  <code value="TRAIN"/>
               </security>
               <tag>
                  <system value="https://synderai.net/fhir/CodeSystem/tags"/>
                  <code value="synthetic"/>
                  <display value="SYNDERAI Synthetic data"/>
               </tag>
            </meta>
            <identifier>
               <system value="urn:oid:2.16.840.1.113883.2.51.999"/>
               <value value="23dd5416-1950-4ce1-8b40-98d2fff0feff"/>
               <assigner>
                  <display value="HL7 Europe"/>
               </assigner>
            </identifier>
            <status value="final"/>
            <type>
               <coding>
                  <system value="http://loinc.org"/>
                  <code value="60591-5"/>
                  <display value="Patient summary Document"/>
               </coding>
               <text value="Patient summary Document"/>
            </type>
            <subject>
               <reference value="urn:uuid:5d4dc357-a124-44c9-bc59-36a5f33bfe3b"/>
               <display value="Khalid Nilsson"/>
            </subject>
            <date value="2024-10-01"/>
            <author>
               <reference value="urn:uuid:c54be3ff-a24c-4fa4-a84f-fb6b39587620"/>
            </author>
            <title value="European Patient Summary"/>
            <confidentiality value="N"/>
            <custodian>
               <reference value="urn:uuid:1723422e-2f4f-4ead-ae26-938ea328dcb8"/>
            </custodian>
            <section>
               <title value="Problem list"/>
               <code>
                  <coding>
                     <system value="http://loinc.org"/>
                     <code value="11450-4"/>
                     <display value="Problem list - Reported"/>
                  </coding>
               </code>
               <text>
                  <status value="generated"/>
                  <div xmlns="http://www.w3.org/1999/xhtml">
                     <table class="hl7__ips">
                        <tr>
                           <th>Condition</th>
                           <th>Onset Date</th>
                           <th>Status</th>
                        </tr>
                        <tr>
                           <td>Osteoporosis</td>
                           <td>
                              <span class="nb">28-Aug-2018</span>
                           </td>
                           <td>active</td>
                        </tr>
                        <tr>
                           <td>Impacted molars</td>
                           <td>
                              <span class="nb">03-Apr-2007</span>
                           </td>
                           <td>active</td>
                        </tr>
                        <tr>
                           <td>Ischemic heart disease</td>
                           <td>
                              <span class="nb">05-May-1998</span>
                           </td>
                           <td>active</td>
                        </tr>
                        <tr>
                           <td>Chronic sinusitis</td>
                           <td>
                              <span class="nb">22-Oct-1985</span>
                           </td>
                           <td>active</td>
                        </tr>
                        <tr>
                           <td>Recurrent urinary tract infection</td>
                           <td>
                              <span class="nb">12-Mar-1974</span>
                           </td>
                           <td>active</td>
                        </tr>
                        <tr>
                           <td>Prediabetes</td>
                           <td>
                              <span class="nb">10-Jul-1973</span>
                           </td>
                           <td>active</td>
                        </tr>
                        <tr>
                           <td>Anemia</td>
                           <td>
                              <span class="nb">10-Jul-1973</span>
                           </td>
                           <td>active</td>
                        </tr>
                     </table>
                  </div>
               </text>
               <entry>
                  <reference value="urn:uuid:b8a7657b-322e-416a-b6e6-17dfb92a116c"/>
               </entry>
               <entry>
                  <reference value="urn:uuid:316e8cd5-2c5a-4c5b-985d-e421e6bd4093"/>
               </entry>
               <entry>
                  <reference value="urn:uuid:e44c47a9-7875-4f93-bbfb-cea46060818e"/>
               </entry>
               <entry>
                  <reference value="urn:uuid:5edfae42-782e-4381-800a-06b74025bda7"/>
               </entry>
               <entry>
                  <reference value="urn:uuid:dba88f59-3364-4971-9310-f88c1db06ea8"/>
               </entry>
               <entry>
                  <reference value="urn:uuid:055ccd28-be93-452d-a2f1-03c50384a188"/>
               </entry>
               <entry>
                  <reference value="urn:uuid:05c8a7c8-ca82-4860-9abb-9b4ba7c25585"/>
               </entry>
            </section>
            <section>
               <title value="Medication list"/>
               <code>
                  <coding>
                     <system value="http://loinc.org"/>
                     <code value="10160-0"/>
                     <display value="History of Medication use Narrative"/>
                  </coding>
               </code>
               <text>
                  <status value="generated"/>
                  <div xmlns="http://www.w3.org/1999/xhtml">
                     <table class="hl7__ips">
                        <tr>
                           <th>Medication</th>
                           <th>Since</th>
                           <th>Form</th>
                           <th>Dosage</th>
                           <th>Reason</th>
                        </tr>
                        <tr>
                           <td>Acetaminophen 325 mg oral tablet</td>
                           <td>
                              <span class="nb">2024-09-30</span>
                           </td>
                           <td>-</td>
                           <td>1 tablet (325 mg) by mouth every 4 to 6 hours as needed</td>
                           <td>-</td>
                        </tr>
                        <tr>
                           <td>Alendronic acid (as alendronate sodium) 10 mg oral tablet</td>
                           <td>
                              <span class="nb">2024-09-30</span>
                           </td>
                           <td>-</td>
                           <td>1 tablet (10 mg) once daily</td>
                           <td>Osteoporosis (disorder)</td>
                        </tr>
                        <tr>
                           <td>Acetaminophen 300 mg and codeine phosphate 15 mg oral tablet</td>
                           <td>
                              <span class="nb">2024-09-30</span>
                           </td>
                           <td>-</td>
                           <td>1 tablet (300 mg / 15 mg) every 4 to 6 hours as needed</td>
                           <td>-</td>
                        </tr>
                        <tr>
                           <td>Acetaminophen 300 mg and hydrocodone bitartrate 5 mg oral tablet</td>
                           <td>
                              <span class="nb">2014-06-06</span>
                           </td>
                           <td>-</td>
                           <td>1 tablet (300 mg/5 mg) by mouth every 4 to 6 hours as needed for pain</td>
                           <td>-</td>
                        </tr>
                        <tr>
                           <td>Clopidogrel (as clopidogrel bisulfate) 75 mg oral tablet</td>
                           <td>
                              <span class="nb">1998-05-11</span>
                           </td>
                           <td>-</td>
                           <td>1 tablet (75 mg) by mouth once daily</td>
                           <td>-</td>
                        </tr>
                        <tr>
                           <td>Simvastatin 20 mg oral tablet</td>
                           <td>
                              <span class="nb">1998-05-11</span>
                           </td>
                           <td>-</td>
                           <td>1 tablet (20 mg) by mouth once daily</td>
                           <td>-</td>
                        </tr>
                        <tr>
                           <td>Nitroglycerin 400 microgram/actuation sublingual spray</td>
                           <td>
                              <span class="nb">1998-05-11</span>
                           </td>
                           <td>-</td>
                           <td>400 micrograms (1 spray) sublingually as needed for chest pain, may repeat every 5 minutes as needed, up to 3 sprays in 15 minutes</td>
                           <td>-</td>
                        </tr>
                        <tr>
                           <td>Metoprolol tartrate (as metoprolol succinate) 100 mg prolonged-release oral tablet</td>
                           <td>
                              <span class="nb">1998-05-11</span>
                           </td>
                           <td>-</td>
                           <td>1 tablet (100 mg) once daily</td>
                           <td>-</td>
                        </tr>
                     </table>
                  </div>
               </text>
               <entry>
                  <reference value="urn:uuid:846d8a1f-2756-4eba-9b62-a0dd326b4cd8"/>
               </entry>
               <entry>
                  <reference value="urn:uuid:3290cfb0-470e-45ed-a5dd-2ae0b51a1500"/>
               </entry>
               <entry>
                  <reference value="urn:uuid:b8389efe-8c39-417a-8745-cb9aac65a93d"/>
               </entry>
               <entry>
                  <reference value="urn:uuid:0d012ad9-f593-4072-9dd6-51e4e180d529"/>
               </entry>
               <entry>
                  <reference value="urn:uuid:b7e8dbdc-d40b-4322-94e1-91f89e3ee3d3"/>
               </entry>
               <entry>
                  <reference value="urn:uuid:2e90b163-c4ad-41a8-b1df-60d0335688b8"/>
               </entry>
               <entry>
                  <reference value="urn:uuid:4ded1031-c451-402b-a481-98b50cd11fb1"/>
               </entry>
               <entry>
                  <reference value="urn:uuid:6d5e312c-ac11-4412-beac-7478d07ded9a"/>
               </entry>
            </section>
            <section>
               <title value="Immunizations list"/>
               <code>
                  <coding>
                     <system value="http://loinc.org"/>
                     <code value="11369-6"/>
                     <display value="History of Immunization note"/>
                  </coding>
               </code>
               <text>
                  <status value="generated"/>
                  <div xmlns="http://www.w3.org/1999/xhtml">
                     <table class="hl7__ips">
                        <tr>
                           <th>Vaccine</th>
                           <th>Date</th>
                        </tr>
                        <tr>
                           <td>Influenza virus antigen only vaccine product</td>
                           <td>
                              <span class="nb">30-Sep-2024</span>
                           </td>
                        </tr>
                        <tr>
                           <td>SARS-CoV-2 mRNA vaccine</td>
                           <td>
                              <span class="nb">29-Mar-2021</span>
                           </td>
                        </tr>
                        <tr>
                           <td>Clostridium tetani toxoid antigen adsorbed only vaccine product</td>
                           <td>
                              <span class="nb">02-Sep-2019</span>
                           </td>
                        </tr>
                     </table>
                  </div>
               </text>
               <entry>
                  <reference value="urn:uuid:fa032dbd-fd34-4bf9-a14c-2b827aabd3b5"/>
               </entry>
               <entry>
                  <reference value="urn:uuid:b5d0dd16-afa8-48e8-ab03-7a0fe34ac04f"/>
               </entry>
               <entry>
                  <reference value="urn:uuid:f65bea32-44c4-4787-bfd7-fd2711c79dfc"/>
               </entry>
            </section>
            <section>
               <title value="Procedure History list"/>
               <code>
                  <coding>
                     <system value="http://loinc.org"/>
                     <code value="47519-4"/>
                     <display value="History of Procedures Document"/>
                  </coding>
               </code>
               <text>
                  <status value="generated"/>
                  <div xmlns="http://www.w3.org/1999/xhtml">
                     <table class="hl7__ips">
                        <tr>
                           <th>Procedure</th>
                           <th>Date</th>
                           <th>Reason</th>
                        </tr>
                        <tr>
                           <td>Pre-discharge assessment</td>
                           <td>
                              <span class="nb">21-Jun-2023</span>
                           </td>
                           <td>-</td>
                        </tr>
                        <tr>
                           <td>Discharge from skilled nursing facility (procedure)</td>
                           <td>
                              <span class="nb">21-Jun-2023</span>
                           </td>
                           <td>-</td>
                        </tr>
                        <tr>
                           <td>Nursing care/supplementary surveillance</td>
                           <td>
                              <span class="nb">20-Jun-2023</span>
                           </td>
                           <td>-</td>
                        </tr>
                        <tr>
                           <td>Physical therapy procedure</td>
                           <td>
                              <span class="nb">19-Jun-2023</span>
                           </td>
                           <td>-</td>
                        </tr>
                        <tr>
                           <td>Professional / ancillary services care</td>
                           <td>
                              <span class="nb">17-Jun-2023</span>
                           </td>
                           <td>-</td>
                        </tr>
                        <tr>
                           <td>Speech and language therapy regime</td>
                           <td>
                              <span class="nb">14-Jun-2023</span>
                           </td>
                           <td>-</td>
                        </tr>
                        <tr>
                           <td>Occupational therapy</td>
                           <td>
                              <span class="nb">10-Jun-2023</span>
                           </td>
                           <td>-</td>
                        </tr>
                        <tr>
                           <td>History AND physical examination</td>
                           <td>
                              <span class="nb">08-May-2023</span>
                           </td>
                           <td>-</td>
                        </tr>
                        <tr>
                           <td>Initial patient assessment</td>
                           <td>
                              <span class="nb">08-May-2023</span>
                           </td>
                           <td>-</td>
                        </tr>
                        <tr>
                           <td>Development of individualized plan of care</td>
                           <td>
                              <span class="nb">08-May-2023</span>
                           </td>
                           <td>-</td>
                        </tr>
                     </table>
                  </div>
               </text>
               <entry>
                  <reference value="urn:uuid:fedcb130-1b8e-4383-99f7-80c2860cdd55"/>
               </entry>
               <entry>
                  <reference value="urn:uuid:ea863dab-f3ac-4254-82ff-077366e31722"/>
               </entry>
               <entry>
                  <reference value="urn:uuid:5d9fac08-001a-4c95-bf69-d8292c943fa6"/>
               </entry>
               <entry>
                  <reference value="urn:uuid:9895a4e8-2993-4eb1-ae22-34c6295c774d"/>
               </entry>
               <entry>
                  <reference value="urn:uuid:1a25ef29-ad2d-4bd5-aad3-ee365ce9d4c5"/>
               </entry>
               <entry>
                  <reference value="urn:uuid:36b955ce-78a5-49bb-ad7a-3d26fc1851a9"/>
               </entry>
               <entry>
                  <reference value="urn:uuid:b32c0624-efb6-45f7-be48-f27804c98adb"/>
               </entry>
               <entry>
                  <reference value="urn:uuid:29dcb75c-4960-4fd4-a069-37b7eb325a90"/>
               </entry>
               <entry>
                  <reference value="urn:uuid:62b6ea3c-959e-46ab-b927-9df97b58470b"/>
               </entry>
               <entry>
                  <reference value="urn:uuid:f959726a-a790-4397-b03e-0300d31f2c79"/>
               </entry>
            </section>
            <section>
               <title value="Allergies and Intolerances"/>
               <code>
                  <coding>
                     <system value="http://loinc.org"/>
                     <code value="48765-2"/>
                     <display value="Allergies and adverse reactions Document"/>
                  </coding>
               </code>
               <text>
                  <status value="generated"/>
                  <div xmlns="http://www.w3.org/1999/xhtml">
                     <table class="hl7__ips">
                        <tr>
                           <th>Allergy/Intolerance</th>
                           <th>Onset Date</th>
                           <th>Status</th>
                           <th>Type</th>
                           <th>Reaction</th>
                        </tr>
                        <tr>
                           <td/>
                           <td>?</td>
                           <td>active</td>
                           <td>?</td>
                           <td/>
                        </tr>
                     </table>
                  </div>
               </text>
               <entry>
                  <reference value="urn:uuid:f5af13b6-54dc-476b-9504-a33af06739c2"/>
               </entry>
            </section>
            <section>
               <title value="Care Plan"/>
               <code>
                  <coding>
                     <system value="http://loinc.org"/>
                     <code value="18776-5"/>
                     <display value="Plan of care note"/>
                  </coding>
               </code>
               <text>
                  <status value="generated"/>
                  <div xmlns="http://www.w3.org/1999/xhtml">
                     <table class="hl7__ips">
                        <tr>
                           <th>Active Planned Care / Goals</th>
                           <th>Start Date</th>
                           <th>Reason</th>
                        </tr>
                        <tr>
                           <td>Therapy</td>
                           <td>
                              <span class="nb">07-Apr-2014</span>
                           </td>
                           <td>-</td>
                        </tr>
                        <tr>
                           <td>Diabetes self management plan</td>
                           <td>
                              <span class="nb">10-Jul-1973</span>
                           </td>
                           <td>Prediabetes</td>
                        </tr>
                        <tr>
                           <td>
                              <ul>
                                 <li>Maintain hemoglobin A1c below 6.5% through lifestyle modification and self-management.</li>
                                 <li>Achieve and maintain a healthy body weight as part of diabetes self-management.</li>
                                 <li>Engage in at least 150 minutes of moderate-intensity physical activity per week.</li>
                              </ul>
                           </td>
                           <td/>
                           <td/>
                        </tr>
                        <tr>
                           <th>Immunization Recommendation</th>
                           <th>Due Date</th>
                           <th>Reason</th>
                        </tr>
                        <tr>
                           <td>Vaccine product containing only Influenza virus antigen (medicinal product)</td>
                           <td>
                              <span class="nb">01-Oct-2025</span>
                           </td>
                           <td>Annual seasonal influenza vaccination</td>
                        </tr>
                     </table>
                  </div>
               </text>
               <entry>
                  <reference value="urn:uuid:83a3d482-01a3-46c9-a851-333af1e2ef4e"/>
               </entry>
               <entry>
                  <reference value="urn:uuid:5ba98e64-b8d2-44a2-8dd8-f9b4afde8246"/>
               </entry>
               <entry>
                  <reference value="urn:uuid:8f9b27e0-5ee0-4552-bf89-ed3e8ec08276"/>
               </entry>
            </section>
            <section>
               <title value="Vital Signs"/>
               <code>
                  <coding>
                     <system value="http://loinc.org"/>
                     <code value="8716-3"/>
                     <display value="Vital signs note"/>
                  </coding>
               </code>
               <text>
                  <status value="generated"/>
                  <div xmlns="http://www.w3.org/1999/xhtml">
                     <table class="hl7__ips">
                        <tr>
                           <th>Vital Signs</th>
                           <th>2024-09-30</th>
                           <th>2023-09-25</th>
                        </tr>
                        <tr>
                           <td>Body Height</td>
                           <td>171.6 cm</td>
                           <td>171.6 cm</td>
                        </tr>
                        <tr>
                           <td>Pain severity - 0-10 verbal numeric rating [Score] - Reported</td>
                           <td>1 {score}</td>
                           <td>1 {score}</td>
                        </tr>
                        <tr>
                           <td>Body Weight</td>
                           <td>89.4 kg</td>
                           <td>89.4 kg</td>
                        </tr>
                        <tr>
                           <td>Body mass index (BMI) [Ratio]</td>
                           <td>30.4 kg/m2</td>
                           <td>30.4 kg/m2</td>
                        </tr>
                        <tr>
                           <td>Diastolic Blood Pressure</td>
                           <td>66 mm[Hg]</td>
                           <td>61 mm[Hg]</td>
                        </tr>
                        <tr>
                           <td>Systolic Blood Pressure</td>
                           <td>97 mm[Hg]</td>
                           <td>109 mm[Hg]</td>
                        </tr>
                        <tr>
                           <td>Heart rate</td>
                           <td>68 /min</td>
                           <td>61 /min</td>
                        </tr>
                        <tr>
                           <td>Respiratory rate</td>
                           <td>13 /min</td>
                           <td>13 /min</td>
                        </tr>
                     </table>
                  </div>
               </text>
               <entry>
                  <reference value="urn:uuid:79d582ad-54ff-44ec-ac2a-fc4d26f6e6fd"/>
               </entry>
               <entry>
                  <reference value="urn:uuid:df4595b9-655c-4893-bce1-04d5e62ee3e5"/>
               </entry>
               <entry>
                  <reference value="urn:uuid:4d161273-0076-4e02-ab1c-0100231fa91e"/>
               </entry>
               <entry>
                  <reference value="urn:uuid:21e7ec9f-8904-4c0f-a42c-35fb7d763916"/>
               </entry>
               <entry>
                  <reference value="urn:uuid:47e24d03-1ad6-4bc3-9e6d-4febf6e21c7f"/>
               </entry>
               <entry>
                  <reference value="urn:uuid:08b4ce33-f003-4c4a-b2d4-245f4c06b0f8"/>
               </entry>
               <entry>
                  <reference value="urn:uuid:1db5b4b3-f40f-43ba-9902-b08c1fad626e"/>
               </entry>
               <entry>
                  <reference value="urn:uuid:51a63e57-fbd8-4294-a874-b5394fbf1e1b"/>
               </entry>
               <entry>
                  <reference value="urn:uuid:fcf99632-5851-4526-a801-67527e7b106a"/>
               </entry>
               <entry>
                  <reference value="urn:uuid:ee258c6c-5e04-46de-aebc-aaaee62f8b3d"/>
               </entry>
               <entry>
                  <reference value="urn:uuid:97db9fea-ff20-4340-8329-98efe601a816"/>
               </entry>
               <entry>
                  <reference value="urn:uuid:4491d634-f29d-4fa7-a9e6-26eb19bc5d8d"/>
               </entry>
               <entry>
                  <reference value="urn:uuid:783e6035-639d-4066-81b2-e143c85cd707"/>
               </entry>
               <entry>
                  <reference value="urn:uuid:51dc3f80-1abd-4efe-b64c-be8185207973"/>
               </entry>
               <entry>
                  <reference value="urn:uuid:c5ab3f2c-c0ac-4ef8-826f-6d4f360dce41"/>
               </entry>
               <entry>
                  <reference value="urn:uuid:da36a0b9-8346-4c06-8141-37491f15e293"/>
               </entry>
            </section>
            <section>
               <title value="Relevant diagnostic tests/laboratory data"/>
               <code>
                  <coding>
                     <system value="http://loinc.org"/>
                     <code value="30954-2"/>
                     <display value="Relevant diagnostic tests/laboratory data note"/>
                  </coding>
               </code>
               <text>
                  <status value="generated"/>
                  <div xmlns="http://www.w3.org/1999/xhtml">
                     <table class="hl7__ips">
                        <table class="hl7__ips">
                           <thead>
                              <tr>
                                 <th>Recent Lab Observations</th>
                                 <th>01-OCT-2024</th>
                                 <th>Reference Range</th>
                                 <th>Unit</th>
                              </tr>
                           </thead>
                           <tbody>
                              <tr>
                                 <td>Hemoglobin A1c/Hemoglobin.total in Blood</td>
                                 <td>6.2</td>
                                 <td>4.5 - 6.4</td>
                                 <td>%</td>
                              </tr>
                              <tr>
                                 <td>Glucose [Mass/volume] in Blood</td>
                                 <td>84.0</td>
                                 <td>70 - 99</td>
                                 <td>mg/dL</td>
                              </tr>
                              <tr>
                                 <td>Urea nitrogen [Mass/volume] in Blood</td>
                                 <td>7.9</td>
                                 <td>7 - 20</td>
                                 <td>mg/dL</td>
                              </tr>
                              <tr>
                                 <td>Creatinine [Mass/volume] in Blood</td>
                                 <td>0.9</td>
                                 <td>0.9 - 1.3</td>
                                 <td>mg/dL</td>
                              </tr>
                              <tr>
                                 <td>Calcium [Mass/volume] in Blood</td>
                                 <td>9.3</td>
                                 <td>8.6 - 10.2</td>
                                 <td>mg/dL</td>
                              </tr>
                              <tr>
                                 <td>Sodium [Moles/volume] in Blood</td>
                                 <td>140.1</td>
                                 <td>135 - 145</td>
                                 <td>mmol/L</td>
                              </tr>
                              <tr>
                                 <td>Potassium [Moles/volume] in Blood</td>
                                 <td>4.3</td>
                                 <td>3.5 - 5.1</td>
                                 <td>mmol/L</td>
                              </tr>
                              <tr>
                                 <td>Chloride [Moles/volume] in Blood</td>
                                 <td>104.3</td>
                                 <td>98 - 108</td>
                                 <td>mmol/L</td>
                              </tr>
                              <tr>
                                 <td>Carbon dioxide, total [Moles/volume] in Blood</td>
                                 <td>
                                    <strong>20.8 L</strong>
                                 </td>
                                 <td>22 - 29</td>
                                 <td>mmol/L</td>
                              </tr>
                           </tbody>
                        </table>
                     </table>
                  </div>
               </text>
               <entry>
                  <reference value="urn:uuid:223ef8a5-1fb3-4bb1-98df-d9fd2f962975"/>
               </entry>
               <entry>
                  <reference value="urn:uuid:39b462d0-e20b-4b1b-9043-b4f9cde47c8a"/>
               </entry>
               <entry>
                  <reference value="urn:uuid:2d68effe-eb4f-4652-b5d7-84091e388ac9"/>
               </entry>
               <entry>
                  <reference value="urn:uuid:e642b8ce-e5d1-4636-a4a4-3d280596136e"/>
               </entry>
               <entry>
                  <reference value="urn:uuid:adfa0ad2-09c4-445a-b588-3466262fe377"/>
               </entry>
               <entry>
                  <reference value="urn:uuid:02af9394-8d2d-46b5-a05e-cd59c43a53fa"/>
               </entry>
               <entry>
                  <reference value="urn:uuid:7086206e-b631-489f-9cf7-e0fe7a1559f9"/>
               </entry>
               <entry>
                  <reference value="urn:uuid:7a0735eb-583c-4406-92e7-47f24eef6fc1"/>
               </entry>
               <entry>
                  <reference value="urn:uuid:03d0e636-0a42-4adb-91c7-825ac4252d17"/>
               </entry>
            </section>
            <section>
               <title value="Device Use"/>
               <code>
                  <coding>
                     <system value="http://loinc.org"/>
                     <code value="46264-8"/>
                     <display value="History of medical device use"/>
                  </coding>
               </code>
               <text>
                  <status value="generated"/>
                  <div xmlns="http://www.w3.org/1999/xhtml">
                     <table class="hl7__ips">
                        <tr>
                           <th>Device</th>
                           <th>Date (since)</th>
                        </tr>
                        <tr>
                           <td>Home nebulizer (physical object)</td>
                           <td>
                              <span class="nb">22-Oct-1985</span>
                           </td>
                        </tr>
                        <tr>
                           <td>Blood glucose meter (physical object)</td>
                           <td>
                              <span class="nb">09-Jul-1973</span>
                           </td>
                        </tr>
                     </table>
                  </div>
               </text>
               <entry>
                  <reference value="urn:uuid:91495023-2599-4484-9431-63cd68242cd7"/>
               </entry>
               <entry>
                  <reference value="urn:uuid:3872d1cb-68ff-4f6c-9b0a-1231b382defb"/>
               </entry>
            </section>
         </Composition>
      </resource>
   </entry>
   <entry>
      <fullUrl value="urn:uuid:5d4dc357-a124-44c9-bc59-36a5f33bfe3b"/>
      <resource>
         <Patient>
            <id value="5d4dc357-a124-44c9-bc59-36a5f33bfe3b"/>
            <meta>
               <profile value="http://hl7.eu/fhir/eps/StructureDefinition/patient-eu-eps"/>
               <security>
                  <system value="http://terminology.hl7.org/CodeSystem/v3-ActReason"/>
                  <code value="HTEST"/>
               </security>
               <security>
                  <system value="http://terminology.hl7.org/CodeSystem/v3-ActReason"/>
                  <code value="TRAIN"/>
               </security>
               <tag>
                  <system value="https://synderai.net/fhir/CodeSystem/tags"/>
                  <code value="synthetic"/>
                  <display value="SYNDERAI Synthetic data"/>
               </tag>
            </meta>
            <text>
               <status value="generated"/>
               <div xmlns="http://www.w3.org/1999/xhtml">
                  <table class="hl7__ips">
                     <tr>
                        <td>Khalid Nilsson</td>
                        <td>male</td>
                        <td>10-Apr-1952</td>
                     </tr>
                  </table>
               </div>
            </text>
            <extension url="http://hl7.org/fhir/StructureDefinition/patient-nationality">
               <valueCodeableConcept>
                  <coding>
                     <system value="http://hl7.org/fhir/ValueSet/country"/>
                     <code value="SE"/>
                  </coding>
               </valueCodeableConcept>
            </extension>
            <identifier>
               <type>
                  <coding>
                     <system value="http://terminology.hl7.org/CodeSystem/v2-0203"/>
                     <code value="PT"/>
                  </coding>
               </type>
               <system value="http://ec.europa.eu/identifier/eci"/>
               <value value="8339-594203-6"/>
            </identifier>
            <identifier>
               <type>
                  <coding>
                     <system value="http://terminology.hl7.org/CodeSystem/v2-0203"/>
                     <code value="MR"/>
                  </coding>
               </type>
               <system value="http://local.setting.eu/identifier"/>
               <value value="db9680f4-3d2c-0551-cb1c-61573f88f405"/>
            </identifier>
            <name>
               <family value="Nilsson"/>
            </name>
            <name>
               <given value="Khalid"/>
            </name>
            <name>
               <text value="Khalid Nilsson"/>
            </name>
            <telecom>
               <system value="phone"/>
               <value value="+46 (0)8 888 657 95"/>
            </telecom>
            <gender value="male"/>
            <birthDate value="1952-04-10"/>
            <address>
               <use value="home"/>
               <type value="physical"/>
               <line value="Gengränd 482"/>
               <city value="Karlskoga"/>
               <postalCode value="691 31"/>
               <country value="Sweden"/>
            </address>
         </Patient>
      </resource>
   </entry>
   <entry>
      <fullUrl value="urn:uuid:c54be3ff-a24c-4fa4-a84f-fb6b39587620"/>
      <resource>
         <PractitionerRole>
            <id value="c54be3ff-a24c-4fa4-a84f-fb6b39587620"/>
            <meta>
               <profile value="http://hl7.eu/fhir/base/StructureDefinition/practitionerRole-eu"/>
            </meta>
            <text>
               <status value="generated"/>
               <div xmlns="http://www.w3.org/1999/xhtml">
                  <table class="hl7__ips">Provider Role Id c54be3ff-a24c-4fa4-a84f-fb6b39587620</table>
               </div>
            </text>
            <practitioner>
               <reference value="urn:uuid:0107821c-2d07-4573-8408-46264f7406fe"/>
            </practitioner>
            <organization>
               <reference value="urn:uuid:1723422e-2f4f-4ead-ae26-938ea328dcb8"/>
            </organization>
         </PractitionerRole>
      </resource>
   </entry>
   <entry>
      <fullUrl value="urn:uuid:0107821c-2d07-4573-8408-46264f7406fe"/>
      <resource>
         <Practitioner>
            <id value="0107821c-2d07-4573-8408-46264f7406fe"/>
            <meta>
               <profile value="http://hl7.eu/fhir/base/StructureDefinition/practitioner-eu"/>
            </meta>
            <text>
               <status value="generated"/>
               <div xmlns="http://www.w3.org/1999/xhtml">
                  <table class="hl7__ips">Dr. Hel Ping</table>
               </div>
            </text>
            <name>
               <family value="Ping"/>
               <given value="Hel"/>
               <prefix value="Dr."/>
            </name>
         </Practitioner>
      </resource>
   </entry>
   <entry>
      <fullUrl value="urn:uuid:1723422e-2f4f-4ead-ae26-938ea328dcb8"/>
      <resource>
         <Organization>
            <id value="1723422e-2f4f-4ead-ae26-938ea328dcb8"/>
            <meta>
               <profile value="http://hl7.eu/fhir/base/StructureDefinition/organization-eu"/>
            </meta>
            <text>
               <status value="generated"/>
               <div xmlns="http://www.w3.org/1999/xhtml">
                  <table class="hl7__ips">Karlskoga Lasarett</table>
               </div>
            </text>
            <identifier>
               <system value="urn:oid:2.16.840.1.113883.2.51.999"/>
               <value value="59f67e30-f9fc-45e3-b1a8-13f1bdba6323"/>
               <assigner>
                  <display value="HL7 Europe"/>
               </assigner>
            </identifier>
            <name value="Karlskoga Lasarett"/>
            <address>
               <city value="Karlskoga"/>
               <postalCode value="691 31"/>
               <country value="Sweden"/>
            </address>
         </Organization>
      </resource>
   </entry>
   <entry>
      <fullUrl value="urn:uuid:b8a7657b-322e-416a-b6e6-17dfb92a116c"/>
      <resource>
         <Condition>
            <id value="b8a7657b-322e-416a-b6e6-17dfb92a116c"/>
            <meta>
               <profile value="http://hl7.org/fhir/uv/ips/StructureDefinition/Condition-uv-ips"/>
            </meta>
            <text>
               <status value="generated"/>
               <div xmlns="http://www.w3.org/1999/xhtml">
                  <table class="hl7__ips">
                     <tr>
                        <td>Osteoporosis</td>
                        <td>
                           <span class="nb">28-Aug-2018</span>
                        </td>
                        <td>active</td>
                     </tr>
                  </table>
               </div>
            </text>
            <category>
               <coding>
                  <system value="http://terminology.hl7.org/CodeSystem/condition-category"/>
                  <code value="problem-list-item"/>
                  <display value="Problem List Item"/>
               </coding>
            </category>
            <code>
               <coding>
                  <system value="http://snomed.info/sct"/>
                  <code value="64859006"/>
                  <display value="Osteoporosis (disorder)"/>
               </coding>
               <text value="Osteoporosis"/>
            </code>
            <subject>
               <reference value="urn:uuid:"/>
               <display value="Khalid Nilsson"/>
            </subject>
            <onsetDateTime value="2018-08-28"/>
            <asserter>
               <reference value="urn:uuid:"/>
               <display value="Karlskoga Lasarett"/>
            </asserter>
         </Condition>
      </resource>
   </entry>
   <entry>
      <fullUrl value="urn:uuid:316e8cd5-2c5a-4c5b-985d-e421e6bd4093"/>
      <resource>
         <Condition>
            <id value="316e8cd5-2c5a-4c5b-985d-e421e6bd4093"/>
            <meta>
               <profile value="http://hl7.org/fhir/uv/ips/StructureDefinition/Condition-uv-ips"/>
            </meta>
            <text>
               <status value="generated"/>
               <div xmlns="http://www.w3.org/1999/xhtml">
                  <table class="hl7__ips">
                     <tr>
                        <td>Impacted molars</td>
                        <td>
                           <span class="nb">03-Apr-2007</span>
                        </td>
                        <td>active</td>
                     </tr>
                  </table>
               </div>
            </text>
            <category>
               <coding>
                  <system value="http://terminology.hl7.org/CodeSystem/condition-category"/>
                  <code value="problem-list-item"/>
                  <display value="Problem List Item"/>
               </coding>
            </category>
            <code>
               <coding>
                  <system value="http://snomed.info/sct"/>
                  <code value="196416002"/>
                  <display value="Impacted molars (disorder)"/>
               </coding>
               <text value="Impacted molars"/>
            </code>
            <subject>
               <reference value="urn:uuid:"/>
               <display value="Khalid Nilsson"/>
            </subject>
            <onsetDateTime value="2007-04-03"/>
            <asserter>
               <reference value="urn:uuid:"/>
               <display value="Karlskoga Lasarett"/>
            </asserter>
         </Condition>
      </resource>
   </entry>
   <entry>
      <fullUrl value="urn:uuid:e44c47a9-7875-4f93-bbfb-cea46060818e"/>
      <resource>
         <Condition>
            <id value="e44c47a9-7875-4f93-bbfb-cea46060818e"/>
            <meta>
               <profile value="http://hl7.org/fhir/uv/ips/StructureDefinition/Condition-uv-ips"/>
            </meta>
            <text>
               <status value="generated"/>
               <div xmlns="http://www.w3.org/1999/xhtml">
                  <table class="hl7__ips">
                     <tr>
                        <td>Ischemic heart disease</td>
                        <td>
                           <span class="nb">05-May-1998</span>
                        </td>
                        <td>active</td>
                     </tr>
                  </table>
               </div>
            </text>
            <category>
               <coding>
                  <system value="http://terminology.hl7.org/CodeSystem/condition-category"/>
                  <code value="problem-list-item"/>
                  <display value="Problem List Item"/>
               </coding>
            </category>
            <code>
               <coding>
                  <system value="http://snomed.info/sct"/>
                  <code value="414545008"/>
                  <display value="Ischemic heart disease (disorder)"/>
               </coding>
               <text value="Ischemic heart disease"/>
            </code>
            <subject>
               <reference value="urn:uuid:"/>
               <display value="Khalid Nilsson"/>
            </subject>
            <onsetDateTime value="1998-05-05"/>
            <asserter>
               <reference value="urn:uuid:"/>
               <display value="Karlskoga Lasarett"/>
            </asserter>
         </Condition>
      </resource>
   </entry>
   <entry>
      <fullUrl value="urn:uuid:5edfae42-782e-4381-800a-06b74025bda7"/>
      <resource>
         <Condition>
            <id value="5edfae42-782e-4381-800a-06b74025bda7"/>
            <meta>
               <profile value="http://hl7.org/fhir/uv/ips/StructureDefinition/Condition-uv-ips"/>
            </meta>
            <text>
               <status value="generated"/>
               <div xmlns="http://www.w3.org/1999/xhtml">
                  <table class="hl7__ips">
                     <tr>
                        <td>Chronic sinusitis</td>
                        <td>
                           <span class="nb">22-Oct-1985</span>
                        </td>
                        <td>active</td>
                     </tr>
                  </table>
               </div>
            </text>
            <category>
               <coding>
                  <system value="http://terminology.hl7.org/CodeSystem/condition-category"/>
                  <code value="problem-list-item"/>
                  <display value="Problem List Item"/>
               </coding>
            </category>
            <code>
               <coding>
                  <system value="http://snomed.info/sct"/>
                  <code value="40055000"/>
                  <display value="Chronic sinusitis (disorder)"/>
               </coding>
               <text value="Chronic sinusitis"/>
            </code>
            <subject>
               <reference value="urn:uuid:"/>
               <display value="Khalid Nilsson"/>
            </subject>
            <onsetDateTime value="1985-10-22"/>
            <asserter>
               <reference value="urn:uuid:"/>
               <display value="Karlskoga Lasarett"/>
            </asserter>
         </Condition>
      </resource>
   </entry>
   <entry>
      <fullUrl value="urn:uuid:dba88f59-3364-4971-9310-f88c1db06ea8"/>
      <resource>
         <Condition>
            <id value="dba88f59-3364-4971-9310-f88c1db06ea8"/>
            <meta>
               <profile value="http://hl7.org/fhir/uv/ips/StructureDefinition/Condition-uv-ips"/>
            </meta>
            <text>
               <status value="generated"/>
               <div xmlns="http://www.w3.org/1999/xhtml">
                  <table class="hl7__ips">
                     <tr>
                        <td>Recurrent urinary tract infection</td>
                        <td>
                           <span class="nb">12-Mar-1974</span>
                        </td>
                        <td>active</td>
                     </tr>
                  </table>
               </div>
            </text>
            <category>
               <coding>
                  <system value="http://terminology.hl7.org/CodeSystem/condition-category"/>
                  <code value="problem-list-item"/>
                  <display value="Problem List Item"/>
               </coding>
            </category>
            <code>
               <coding>
                  <system value="http://snomed.info/sct"/>
                  <code value="197927001"/>
                  <display value="Recurrent urinary tract infection (disorder)"/>
               </coding>
               <text value="Recurrent urinary tract infection"/>
            </code>
            <subject>
               <reference value="urn:uuid:"/>
               <display value="Khalid Nilsson"/>
            </subject>
            <onsetDateTime value="1974-03-12"/>
            <asserter>
               <reference value="urn:uuid:"/>
               <display value="Karlskoga Lasarett"/>
            </asserter>
         </Condition>
      </resource>
   </entry>
   <entry>
      <fullUrl value="urn:uuid:055ccd28-be93-452d-a2f1-03c50384a188"/>
      <resource>
         <Condition>
            <id value="055ccd28-be93-452d-a2f1-03c50384a188"/>
            <meta>
               <profile value="http://hl7.org/fhir/uv/ips/StructureDefinition/Condition-uv-ips"/>
            </meta>
            <text>
               <status value="generated"/>
               <div xmlns="http://www.w3.org/1999/xhtml">
                  <table class="hl7__ips">
                     <tr>
                        <td>Prediabetes</td>
                        <td>
                           <span class="nb">10-Jul-1973</span>
                        </td>
                        <td>active</td>
                     </tr>
                  </table>
               </div>
            </text>
            <category>
               <coding>
                  <system value="http://terminology.hl7.org/CodeSystem/condition-category"/>
                  <code value="problem-list-item"/>
                  <display value="Problem List Item"/>
               </coding>
            </category>
            <code>
               <coding>
                  <system value="http://snomed.info/sct"/>
                  <code value="15777000"/>
                  <display value="Prediabetes (disorder)"/>
               </coding>
               <text value="Prediabetes"/>
            </code>
            <subject>
               <reference value="urn:uuid:"/>
               <display value="Khalid Nilsson"/>
            </subject>
            <onsetDateTime value="1973-07-10"/>
            <asserter>
               <reference value="urn:uuid:"/>
               <display value="Karlskoga Lasarett"/>
            </asserter>
         </Condition>
      </resource>
   </entry>
   <entry>
      <fullUrl value="urn:uuid:05c8a7c8-ca82-4860-9abb-9b4ba7c25585"/>
      <resource>
         <Condition>
            <id value="05c8a7c8-ca82-4860-9abb-9b4ba7c25585"/>
            <meta>
               <profile value="http://hl7.org/fhir/uv/ips/StructureDefinition/Condition-uv-ips"/>
            </meta>
            <text>
               <status value="generated"/>
               <div xmlns="http://www.w3.org/1999/xhtml">
                  <table class="hl7__ips">
                     <tr>
                        <td>Anemia</td>
                        <td>
                           <span class="nb">10-Jul-1973</span>
                        </td>
                        <td>active</td>
                     </tr>
                  </table>
               </div>
            </text>
            <category>
               <coding>
                  <system value="http://terminology.hl7.org/CodeSystem/condition-category"/>
                  <code value="problem-list-item"/>
                  <display value="Problem List Item"/>
               </coding>
            </category>
            <code>
               <coding>
                  <system value="http://snomed.info/sct"/>
                  <code value="271737000"/>
                  <display value="Anemia (disorder)"/>
               </coding>
               <text value="Anemia"/>
            </code>
            <subject>
               <reference value="urn:uuid:"/>
               <display value="Khalid Nilsson"/>
            </subject>
            <onsetDateTime value="1973-07-10"/>
            <asserter>
               <reference value="urn:uuid:"/>
               <display value="Karlskoga Lasarett"/>
            </asserter>
         </Condition>
      </resource>
   </entry>
   <entry>
      <fullUrl value="urn:uuid:917bf12a-beb0-4aa6-9e20-85b8330b66f1"/>
      <resource>
         <Condition>
            <id value="917bf12a-beb0-4aa6-9e20-85b8330b66f1"/>
            <meta>
               <profile value="http://hl7.org/fhir/uv/ips/StructureDefinition/Condition-uv-ips"/>
            </meta>
            <text>
               <status value="generated"/>
               <div xmlns="http://www.w3.org/1999/xhtml">
                  <table class="hl7__ips">
                     <tr>
                        <td>
                           <span class="grayedout">Viral sinusitis</span>
                        </td>
                        <td>
                           <span class="nb">07-Mar-2021 - 21-Mar-2021</span>
                        </td>
                        <td>
                           <span class="grayedout">inactive</span>
                        </td>
                     </tr>
                  </table>
               </div>
            </text>
            <category>
               <coding>
                  <system value="http://terminology.hl7.org/CodeSystem/condition-category"/>
                  <code value="problem-list-item"/>
                  <display value="Problem List Item"/>
               </coding>
            </category>
            <code>
               <coding>
                  <system value="http://snomed.info/sct"/>
                  <code value="444814009"/>
                  <display value="Viral sinusitis (disorder)"/>
               </coding>
               <text value="Viral sinusitis"/>
            </code>
            <subject>
               <reference value="urn:uuid:"/>
               <display value="Khalid Nilsson"/>
            </subject>
            <onsetDateTime value="2021-03-07"/>
            <abatementDateTime value="2021-03-21"/>
            <asserter>
               <reference value="urn:uuid:"/>
               <display value="Karlskoga Lasarett"/>
            </asserter>
         </Condition>
      </resource>
   </entry>
   <entry>
      <fullUrl value="urn:uuid:680d6e8f-5d14-4683-bb1f-53c4414a3981"/>
      <resource>
         <Condition>
            <id value="680d6e8f-5d14-4683-bb1f-53c4414a3981"/>
            <meta>
               <profile value="http://hl7.org/fhir/uv/ips/StructureDefinition/Condition-uv-ips"/>
            </meta>
            <text>
               <status value="generated"/>
               <div xmlns="http://www.w3.org/1999/xhtml">
                  <table class="hl7__ips">
                     <tr>
                        <td>
                           <span class="grayedout">COVID-19</span>
                        </td>
                        <td>
                           <span class="nb">29-Oct-2020 - 18-Nov-2020</span>
                        </td>
                        <td>
                           <span class="grayedout">inactive</span>
                        </td>
                     </tr>
                  </table>
               </div>
            </text>
            <category>
               <coding>
                  <system value="http://terminology.hl7.org/CodeSystem/condition-category"/>
                  <code value="problem-list-item"/>
                  <display value="Problem List Item"/>
               </coding>
            </category>
            <code>
               <coding>
                  <system value="http://snomed.info/sct"/>
                  <code value="840539006"/>
                  <display value="Disease caused by severe acute respiratory syndrome coronavirus 2 (disorder)"/>
               </coding>
               <text value="COVID-19"/>
            </code>
            <subject>
               <reference value="urn:uuid:"/>
               <display value="Khalid Nilsson"/>
            </subject>
            <onsetDateTime value="2020-10-29"/>
            <abatementDateTime value="2020-11-18"/>
            <asserter>
               <reference value="urn:uuid:"/>
               <display value="Karlskoga Lasarett"/>
            </asserter>
         </Condition>
      </resource>
   </entry>
   <entry>
      <fullUrl value="urn:uuid:32378585-1414-4614-8966-58a8b21b4058"/>
      <resource>
         <Condition>
            <id value="32378585-1414-4614-8966-58a8b21b4058"/>
            <meta>
               <profile value="http://hl7.org/fhir/uv/ips/StructureDefinition/Condition-uv-ips"/>
            </meta>
            <text>
               <status value="generated"/>
               <div xmlns="http://www.w3.org/1999/xhtml">
                  <table class="hl7__ips">
                     <tr>
                        <td>
                           <span class="grayedout">Sprain of wrist</span>
                        </td>
                        <td>
                           <span class="nb">10-Apr-2017 - 19-May-2017</span>
                        </td>
                        <td>
                           <span class="grayedout">inactive</span>
                        </td>
                     </tr>
                  </table>
               </div>
            </text>
            <category>
               <coding>
                  <system value="http://terminology.hl7.org/CodeSystem/condition-category"/>
                  <code value="problem-list-item"/>
                  <display value="Problem List Item"/>
               </coding>
            </category>
            <code>
               <coding>
                  <system value="http://snomed.info/sct"/>
                  <code value="70704007"/>
                  <display value="Sprain of wrist (disorder)"/>
               </coding>
               <text value="Sprain of wrist"/>
            </code>
            <subject>
               <reference value="urn:uuid:"/>
               <display value="Khalid Nilsson"/>
            </subject>
            <onsetDateTime value="2017-04-10"/>
            <abatementDateTime value="2017-05-19"/>
            <asserter>
               <reference value="urn:uuid:"/>
               <display value="Karlskoga Lasarett"/>
            </asserter>
         </Condition>
      </resource>
   </entry>
   <entry>
      <fullUrl value="urn:uuid:33346617-9398-4c07-8cac-8781c75bd0b5"/>
      <resource>
         <Condition>
            <id value="33346617-9398-4c07-8cac-8781c75bd0b5"/>
            <meta>
               <profile value="http://hl7.org/fhir/uv/ips/StructureDefinition/Condition-uv-ips"/>
            </meta>
            <text>
               <status value="generated"/>
               <div xmlns="http://www.w3.org/1999/xhtml">
                  <table class="hl7__ips">
                     <tr>
                        <td>
                           <span class="grayedout">Viral sinusitis</span>
                        </td>
                        <td>
                           <span class="nb">08-Nov-2016 - 20-Nov-2016</span>
                        </td>
                        <td>
                           <span class="grayedout">inactive</span>
                        </td>
                     </tr>
                  </table>
               </div>
            </text>
            <category>
               <coding>
                  <system value="http://terminology.hl7.org/CodeSystem/condition-category"/>
                  <code value="problem-list-item"/>
                  <display value="Problem List Item"/>
               </coding>
            </category>
            <code>
               <coding>
                  <system value="http://snomed.info/sct"/>
                  <code value="444814009"/>
                  <display value="Viral sinusitis (disorder)"/>
               </coding>
               <text value="Viral sinusitis"/>
            </code>
            <subject>
               <reference value="urn:uuid:"/>
               <display value="Khalid Nilsson"/>
            </subject>
            <onsetDateTime value="2016-11-08"/>
            <abatementDateTime value="2016-11-20"/>
            <asserter>
               <reference value="urn:uuid:"/>
               <display value="Karlskoga Lasarett"/>
            </asserter>
         </Condition>
      </resource>
   </entry>
   <entry>
      <fullUrl value="urn:uuid:67ad2823-e3e9-4eb7-b91b-3332fd2bb6d0"/>
      <resource>
         <Medication>
            <id value="67ad2823-e3e9-4eb7-b91b-3332fd2bb6d0"/>
            <meta>
               <profile value="http://hl7.eu/fhir/eps/StructureDefinition/Medication-eu-eps"/>
            </meta>
            <text>
               <status value="generated"/>
               <div xmlns="http://www.w3.org/1999/xhtml">Acetaminophen 325 mg oral tablet</div>
            </text>
            <code>
               <coding>
                  <system value="http://snomed.info/sct"/>
                  <code value="370150001"/>
                  <display value="Acetaminophen 325 mg oral tablet"/>
               </coding>
               <text value="Acetaminophen 325 mg oral tablet"/>
            </code>
         </Medication>
      </resource>
   </entry>
   <entry>
      <fullUrl value="urn:uuid:846d8a1f-2756-4eba-9b62-a0dd326b4cd8"/>
      <resource>
         <MedicationStatement>
            <id value="846d8a1f-2756-4eba-9b62-a0dd326b4cd8"/>
            <meta>
               <profile value="http://hl7.eu/fhir/eps/StructureDefinition/MedicationStatement-eu-eps"/>
            </meta>
            <text>
               <status value="generated"/>
               <div xmlns="http://www.w3.org/1999/xhtml">
                  <table class="hl7__ips first25">
                     <tr>
                        <th>Medication</th>
                        <th>Since</th>
                        <th>Form</th>
                        <th>Dosage</th>
                        <th>Reason</th>
                     </tr>
                     <tr>
                        <td>Acetaminophen 325 mg oral tablet</td>
                        <td>
                           <span class="nb">2024-09-30</span>
                        </td>
                        <td>-</td>
                        <td>1 tablet (325 mg) by mouth every 4 to 6 hours as needed</td>
                        <td>-</td>
                     </tr>
                  </table>
               </div>
            </text>
            <status value="active"/>
            <medicationReference>
               <reference value="urn:uuid:67ad2823-e3e9-4eb7-b91b-3332fd2bb6d0"/>
               <display value="Acetaminophen 325 mg oral tablet"/>
            </medicationReference>
            <subject>
               <reference value="urn:uuid:5d4dc357-a124-44c9-bc59-36a5f33bfe3b"/>
               <display value="Khalid Nilsson"/>
            </subject>
            <effectivePeriod>
               <start value="2024-09-30"/>
            </effectivePeriod>
            <dosage>
               <text value="1 tablet (325 mg) by mouth every 4 to 6 hours as needed"/>
               <timing>
                  <repeat>
                     <frequency value="1"/>
                     <period value="4"/>
                     <periodUnit value="h"/>
                  </repeat>
               </timing>
               <asNeededBoolean value="true"/>
               <doseAndRate>
                  <doseQuantity>
                     <value value="1"/>
                     <unit value="{tbl}"/>
                     <system value="$ucum"/>
                     <code value="{tbl}"/>
                  </doseQuantity>
               </doseAndRate>
            </dosage>
         </MedicationStatement>
      </resource>
   </entry>
   <entry>
      <fullUrl value="urn:uuid:4d746ea4-e689-4c92-b8e3-ee9b9fb75573"/>
      <resource>
         <Medication>
            <id value="4d746ea4-e689-4c92-b8e3-ee9b9fb75573"/>
            <meta>
               <profile value="http://hl7.eu/fhir/eps/StructureDefinition/Medication-eu-eps"/>
            </meta>
            <text>
               <status value="generated"/>
               <div xmlns="http://www.w3.org/1999/xhtml">Alendronic acid (as alendronate sodium) 10 mg oral tablet</div>
            </text>
            <code>
               <coding>
                  <system value="http://snomed.info/sct"/>
                  <code value="783144007"/>
                  <display value="Alendronic acid (as alendronate sodium) 10 mg oral tablet"/>
               </coding>
               <text value="Alendronic acid (as alendronate sodium) 10 mg oral tablet"/>
            </code>
         </Medication>
      </resource>
   </entry>
   <entry>
      <fullUrl value="urn:uuid:3290cfb0-470e-45ed-a5dd-2ae0b51a1500"/>
      <resource>
         <MedicationStatement>
            <id value="3290cfb0-470e-45ed-a5dd-2ae0b51a1500"/>
            <meta>
               <profile value="http://hl7.eu/fhir/eps/StructureDefinition/MedicationStatement-eu-eps"/>
            </meta>
            <text>
               <status value="generated"/>
               <div xmlns="http://www.w3.org/1999/xhtml">
                  <table class="hl7__ips first25">
                     <tr>
                        <th>Medication</th>
                        <th>Since</th>
                        <th>Form</th>
                        <th>Dosage</th>
                        <th>Reason</th>
                     </tr>
                     <tr>
                        <td>Alendronic acid (as alendronate sodium) 10 mg oral tablet</td>
                        <td>
                           <span class="nb">2024-09-30</span>
                        </td>
                        <td>-</td>
                        <td>1 tablet (10 mg) once daily</td>
                        <td>Osteoporosis (disorder)</td>
                     </tr>
                  </table>
               </div>
            </text>
            <status value="active"/>
            <medicationReference>
               <reference value="urn:uuid:4d746ea4-e689-4c92-b8e3-ee9b9fb75573"/>
               <display value="Alendronic acid (as alendronate sodium) 10 mg oral tablet"/>
            </medicationReference>
            <subject>
               <reference value="urn:uuid:5d4dc357-a124-44c9-bc59-36a5f33bfe3b"/>
               <display value="Khalid Nilsson"/>
            </subject>
            <effectivePeriod>
               <start value="2024-09-30"/>
            </effectivePeriod>
            <reasonCode>
               <coding>
                  <system value="http://snomed.info/sct"/>
                  <code value="64859006"/>
                  <display value="Osteoporosis (disorder)"/>
               </coding>
            </reasonCode>
            <dosage>
               <text value="1 tablet (10 mg) once daily"/>
               <timing>
                  <repeat>
                     <frequency value="1"/>
                     <period value="1"/>
                     <periodUnit value="d"/>
                  </repeat>
               </timing>
               <asNeededBoolean value="false"/>
               <doseAndRate>
                  <doseQuantity>
                     <value value="1"/>
                     <unit value="{tbl}"/>
                     <system value="$ucum"/>
                     <code value="{tbl}"/>
                  </doseQuantity>
               </doseAndRate>
            </dosage>
         </MedicationStatement>
      </resource>
   </entry>
   <entry>
      <fullUrl value="urn:uuid:5f7b800e-a729-4e45-a642-ebf0c9ab05dd"/>
      <resource>
         <Medication>
            <id value="5f7b800e-a729-4e45-a642-ebf0c9ab05dd"/>
            <meta>
               <profile value="http://hl7.eu/fhir/eps/StructureDefinition/Medication-eu-eps"/>
            </meta>
            <text>
               <status value="generated"/>
               <div xmlns="http://www.w3.org/1999/xhtml">Acetaminophen 300 mg and codeine phosphate 15 mg oral tablet</div>
            </text>
            <code>
               <coding>
                  <system value="http://snomed.info/sct"/>
                  <code value="377261001"/>
                  <display value="Acetaminophen 300 mg and codeine phosphate 15 mg oral tablet"/>
               </coding>
               <text value="Acetaminophen 300 mg and codeine phosphate 15 mg oral tablet"/>
            </code>
         </Medication>
      </resource>
   </entry>
   <entry>
      <fullUrl value="urn:uuid:b8389efe-8c39-417a-8745-cb9aac65a93d"/>
      <resource>
         <MedicationStatement>
            <id value="b8389efe-8c39-417a-8745-cb9aac65a93d"/>
            <meta>
               <profile value="http://hl7.eu/fhir/eps/StructureDefinition/MedicationStatement-eu-eps"/>
            </meta>
            <text>
               <status value="generated"/>
               <div xmlns="http://www.w3.org/1999/xhtml">
                  <table class="hl7__ips first25">
                     <tr>
                        <th>Medication</th>
                        <th>Since</th>
                        <th>Form</th>
                        <th>Dosage</th>
                        <th>Reason</th>
                     </tr>
                     <tr>
                        <td>Acetaminophen 300 mg and codeine phosphate 15 mg oral tablet</td>
                        <td>
                           <span class="nb">2024-09-30</span>
                        </td>
                        <td>-</td>
                        <td>1 tablet (300 mg / 15 mg) every 4 to 6 hours as needed</td>
                        <td>-</td>
                     </tr>
                  </table>
               </div>
            </text>
            <status value="active"/>
            <medicationReference>
               <reference value="urn:uuid:5f7b800e-a729-4e45-a642-ebf0c9ab05dd"/>
               <display value="Acetaminophen 300 mg and codeine phosphate 15 mg oral tablet"/>
            </medicationReference>
            <subject>
               <reference value="urn:uuid:5d4dc357-a124-44c9-bc59-36a5f33bfe3b"/>
               <display value="Khalid Nilsson"/>
            </subject>
            <effectivePeriod>
               <start value="2024-09-30"/>
            </effectivePeriod>
            <dosage>
               <text value="1 tablet (300 mg / 15 mg) every 4 to 6 hours as needed"/>
               <timing>
                  <repeat>
                     <frequency value="6"/>
                     <period value="1"/>
                     <periodUnit value="d"/>
                  </repeat>
               </timing>
               <asNeededBoolean value="true"/>
               <doseAndRate>
                  <doseQuantity>
                     <value value="1"/>
                     <unit value="{tbl}"/>
                     <system value="$ucum"/>
                     <code value="{tbl}"/>
                  </doseQuantity>
               </doseAndRate>
            </dosage>
         </MedicationStatement>
      </resource>
   </entry>
   <entry>
      <fullUrl value="urn:uuid:1bb31a20-bae1-4616-94ef-d2704d99383e"/>
      <resource>
         <Medication>
            <id value="1bb31a20-bae1-4616-94ef-d2704d99383e"/>
            <meta>
               <profile value="http://hl7.eu/fhir/eps/StructureDefinition/Medication-eu-eps"/>
            </meta>
            <text>
               <status value="generated"/>
               <div xmlns="http://www.w3.org/1999/xhtml">Acetaminophen 300 mg and hydrocodone bitartrate 5 mg oral tablet</div>
            </text>
            <code>
               <coding>
                  <system value="http://snomed.info/sct"/>
                  <code value="420397007"/>
                  <display value="Acetaminophen 300 mg and hydrocodone bitartrate 5 mg oral tablet"/>
               </coding>
               <text value="Acetaminophen 300 mg and hydrocodone bitartrate 5 mg oral tablet"/>
            </code>
         </Medication>
      </resource>
   </entry>
   <entry>
      <fullUrl value="urn:uuid:0d012ad9-f593-4072-9dd6-51e4e180d529"/>
      <resource>
         <MedicationStatement>
            <id value="0d012ad9-f593-4072-9dd6-51e4e180d529"/>
            <meta>
               <profile value="http://hl7.eu/fhir/eps/StructureDefinition/MedicationStatement-eu-eps"/>
            </meta>
            <text>
               <status value="generated"/>
               <div xmlns="http://www.w3.org/1999/xhtml">
                  <table class="hl7__ips first25">
                     <tr>
                        <th>Medication</th>
                        <th>Since</th>
                        <th>Form</th>
                        <th>Dosage</th>
                        <th>Reason</th>
                     </tr>
                     <tr>
                        <td>Acetaminophen 300 mg and hydrocodone bitartrate 5 mg oral tablet</td>
                        <td>
                           <span class="nb">2014-06-06</span>
                        </td>
                        <td>-</td>
                        <td>1 tablet (300 mg/5 mg) by mouth every 4 to 6 hours as needed for pain</td>
                        <td>-</td>
                     </tr>
                  </table>
               </div>
            </text>
            <status value="active"/>
            <medicationReference>
               <reference value="urn:uuid:1bb31a20-bae1-4616-94ef-d2704d99383e"/>
               <display value="Acetaminophen 300 mg and hydrocodone bitartrate 5 mg oral tablet"/>
            </medicationReference>
            <subject>
               <reference value="urn:uuid:5d4dc357-a124-44c9-bc59-36a5f33bfe3b"/>
               <display value="Khalid Nilsson"/>
            </subject>
            <effectivePeriod>
               <start value="2014-06-06"/>
            </effectivePeriod>
            <dosage>
               <text value="1 tablet (300 mg/5 mg) by mouth every 4 to 6 hours as needed for pain"/>
               <timing>
                  <repeat>
                     <frequency value="1"/>
                     <period value="4"/>
                     <periodUnit value="h"/>
                  </repeat>
               </timing>
               <asNeededBoolean value="true"/>
               <doseAndRate>
                  <doseQuantity>
                     <value value="1"/>
                     <unit value="{tbl}"/>
                     <system value="$ucum"/>
                     <code value="{tbl}"/>
                  </doseQuantity>
               </doseAndRate>
            </dosage>
         </MedicationStatement>
      </resource>
   </entry>
   <entry>
      <fullUrl value="urn:uuid:0b137713-cc25-42f5-9e7f-059627a1f753"/>
      <resource>
         <Medication>
            <id value="0b137713-cc25-42f5-9e7f-059627a1f753"/>
            <meta>
               <profile value="http://hl7.eu/fhir/eps/StructureDefinition/Medication-eu-eps"/>
            </meta>
            <text>
               <status value="generated"/>
               <div xmlns="http://www.w3.org/1999/xhtml">Clopidogrel (as clopidogrel bisulfate) 75 mg oral tablet</div>
            </text>
            <code>
               <coding>
                  <system value="http://snomed.info/sct"/>
                  <code value="783586007"/>
                  <display value="Clopidogrel (as clopidogrel bisulfate) 75 mg oral tablet"/>
               </coding>
               <text value="Clopidogrel (as clopidogrel bisulfate) 75 mg oral tablet"/>
            </code>
         </Medication>
      </resource>
   </entry>
   <entry>
      <fullUrl value="urn:uuid:b7e8dbdc-d40b-4322-94e1-91f89e3ee3d3"/>
      <resource>
         <MedicationStatement>
            <id value="b7e8dbdc-d40b-4322-94e1-91f89e3ee3d3"/>
            <meta>
               <profile value="http://hl7.eu/fhir/eps/StructureDefinition/MedicationStatement-eu-eps"/>
            </meta>
            <text>
               <status value="generated"/>
               <div xmlns="http://www.w3.org/1999/xhtml">
                  <table class="hl7__ips first25">
                     <tr>
                        <th>Medication</th>
                        <th>Since</th>
                        <th>Form</th>
                        <th>Dosage</th>
                        <th>Reason</th>
                     </tr>
                     <tr>
                        <td>Clopidogrel (as clopidogrel bisulfate) 75 mg oral tablet</td>
                        <td>
                           <span class="nb">1998-05-11</span>
                        </td>
                        <td>-</td>
                        <td>1 tablet (75 mg) by mouth once daily</td>
                        <td>-</td>
                     </tr>
                  </table>
               </div>
            </text>
            <status value="active"/>
            <medicationReference>
               <reference value="urn:uuid:0b137713-cc25-42f5-9e7f-059627a1f753"/>
               <display value="Clopidogrel (as clopidogrel bisulfate) 75 mg oral tablet"/>
            </medicationReference>
            <subject>
               <reference value="urn:uuid:5d4dc357-a124-44c9-bc59-36a5f33bfe3b"/>
               <display value="Khalid Nilsson"/>
            </subject>
            <effectivePeriod>
               <start value="1998-05-11"/>
            </effectivePeriod>
            <dosage>
               <text value="1 tablet (75 mg) by mouth once daily"/>
               <timing>
                  <repeat>
                     <frequency value="1"/>
                     <period value="1"/>
                     <periodUnit value="d"/>
                  </repeat>
               </timing>
               <asNeededBoolean value="false"/>
               <doseAndRate>
                  <doseQuantity>
                     <value value="1"/>
                     <unit value="{tbl}"/>
                     <code value="{tbl}"/>
                  </doseQuantity>
               </doseAndRate>
            </dosage>
         </MedicationStatement>
      </resource>
   </entry>
   <entry>
      <fullUrl value="urn:uuid:becf155a-b0fb-4e2f-927c-cfd2f7e619f1"/>
      <resource>
         <Medication>
            <id value="becf155a-b0fb-4e2f-927c-cfd2f7e619f1"/>
            <meta>
               <profile value="http://hl7.eu/fhir/eps/StructureDefinition/Medication-eu-eps"/>
            </meta>
            <text>
               <status value="generated"/>
               <div xmlns="http://www.w3.org/1999/xhtml">Simvastatin 20 mg oral tablet</div>
            </text>
            <code>
               <coding>
                  <system value="http://snomed.info/sct"/>
                  <code value="319997009"/>
                  <display value="Simvastatin 20 mg oral tablet"/>
               </coding>
               <text value="Simvastatin 20 mg oral tablet"/>
            </code>
         </Medication>
      </resource>
   </entry>
   <entry>
      <fullUrl value="urn:uuid:2e90b163-c4ad-41a8-b1df-60d0335688b8"/>
      <resource>
         <MedicationStatement>
            <id value="2e90b163-c4ad-41a8-b1df-60d0335688b8"/>
            <meta>
               <profile value="http://hl7.eu/fhir/eps/StructureDefinition/MedicationStatement-eu-eps"/>
            </meta>
            <text>
               <status value="generated"/>
               <div xmlns="http://www.w3.org/1999/xhtml">
                  <table class="hl7__ips first25">
                     <tr>
                        <th>Medication</th>
                        <th>Since</th>
                        <th>Form</th>
                        <th>Dosage</th>
                        <th>Reason</th>
                     </tr>
                     <tr>
                        <td>Simvastatin 20 mg oral tablet</td>
                        <td>
                           <span class="nb">1998-05-11</span>
                        </td>
                        <td>-</td>
                        <td>1 tablet (20 mg) by mouth once daily</td>
                        <td>-</td>
                     </tr>
                  </table>
               </div>
            </text>
            <status value="active"/>
            <medicationReference>
               <reference value="urn:uuid:becf155a-b0fb-4e2f-927c-cfd2f7e619f1"/>
               <display value="Simvastatin 20 mg oral tablet"/>
            </medicationReference>
            <subject>
               <reference value="urn:uuid:5d4dc357-a124-44c9-bc59-36a5f33bfe3b"/>
               <display value="Khalid Nilsson"/>
            </subject>
            <effectivePeriod>
               <start value="1998-05-11"/>
            </effectivePeriod>
            <dosage>
               <text value="1 tablet (20 mg) by mouth once daily"/>
               <timing>
                  <repeat>
                     <frequency value="1"/>
                     <period value="1"/>
                     <periodUnit value="d"/>
                  </repeat>
               </timing>
               <asNeededBoolean value="false"/>
               <doseAndRate>
                  <doseQuantity>
                     <value value="1"/>
                     <unit value="{tbl}"/>
                     <code value="{tbl}"/>
                  </doseQuantity>
               </doseAndRate>
            </dosage>
         </MedicationStatement>
      </resource>
   </entry>
   <entry>
      <fullUrl value="urn:uuid:cb705321-985c-4fd3-be6b-a6d32b397d56"/>
      <resource>
         <Medication>
            <id value="cb705321-985c-4fd3-be6b-a6d32b397d56"/>
            <meta>
               <profile value="http://hl7.eu/fhir/eps/StructureDefinition/Medication-eu-eps"/>
            </meta>
            <text>
               <status value="generated"/>
               <div xmlns="http://www.w3.org/1999/xhtml">Nitroglycerin 400 microgram/actuation sublingual spray</div>
            </text>
            <code>
               <coding>
                  <system value="http://snomed.info/sct"/>
                  <code value="425176000"/>
                  <display value="Nitroglycerin 400 microgram/actuation sublingual spray"/>
               </coding>
               <text value="Nitroglycerin 400 microgram/actuation sublingual spray"/>
            </code>
         </Medication>
      </resource>
   </entry>
   <entry>
      <fullUrl value="urn:uuid:4ded1031-c451-402b-a481-98b50cd11fb1"/>
      <resource>
         <MedicationStatement>
            <id value="4ded1031-c451-402b-a481-98b50cd11fb1"/>
            <meta>
               <profile value="http://hl7.eu/fhir/eps/StructureDefinition/MedicationStatement-eu-eps"/>
            </meta>
            <text>
               <status value="generated"/>
               <div xmlns="http://www.w3.org/1999/xhtml">
                  <table class="hl7__ips first25">
                     <tr>
                        <th>Medication</th>
                        <th>Since</th>
                        <th>Form</th>
                        <th>Dosage</th>
                        <th>Reason</th>
                     </tr>
                     <tr>
                        <td>Nitroglycerin 400 microgram/actuation sublingual spray</td>
                        <td>
                           <span class="nb">1998-05-11</span>
                        </td>
                        <td>-</td>
                        <td>400 micrograms (1 spray) sublingually as needed for chest pain, may repeat every 5 minutes as needed, up to 3 sprays in 15 minutes</td>
                        <td>-</td>
                     </tr>
                  </table>
               </div>
            </text>
            <status value="active"/>
            <medicationReference>
               <reference value="urn:uuid:cb705321-985c-4fd3-be6b-a6d32b397d56"/>
               <display value="Nitroglycerin 400 microgram/actuation sublingual spray"/>
            </medicationReference>
            <subject>
               <reference value="urn:uuid:5d4dc357-a124-44c9-bc59-36a5f33bfe3b"/>
               <display value="Khalid Nilsson"/>
            </subject>
            <effectivePeriod>
               <start value="1998-05-11"/>
            </effectivePeriod>
            <dosage>
               <text value="400 micrograms (1 spray) sublingually as needed for chest pain, may repeat every 5 minutes as needed, up to 3 sprays in 15 minutes"/>
               <timing>
                  <repeat>
                     <frequency value="1"/>
                     <period value="5"/>
                     <periodUnit value="min"/>
                  </repeat>
               </timing>
               <asNeededBoolean value="true"/>
               <doseAndRate>
                  <doseQuantity>
                     <value value="400"/>
                     <unit value="microgram"/>
                     <code value="ug"/>
                  </doseQuantity>
               </doseAndRate>
            </dosage>
         </MedicationStatement>
      </resource>
   </entry>
   <entry>
      <fullUrl value="urn:uuid:cab5fcb7-4add-4576-b3f9-19d4e1949c3d"/>
      <resource>
         <Medication>
            <id value="cab5fcb7-4add-4576-b3f9-19d4e1949c3d"/>
            <meta>
               <profile value="http://hl7.eu/fhir/eps/StructureDefinition/Medication-eu-eps"/>
            </meta>
            <text>
               <status value="generated"/>
               <div xmlns="http://www.w3.org/1999/xhtml">Metoprolol tartrate (as metoprolol succinate) 100 mg prolonged-release oral tablet</div>
            </text>
            <code>
               <coding>
                  <system value="http://snomed.info/sct"/>
                  <code value="879980009"/>
                  <display value="Metoprolol tartrate (as metoprolol succinate) 100 mg prolonged-release oral tablet"/>
               </coding>
               <text value="Metoprolol tartrate (as metoprolol succinate) 100 mg prolonged-release oral tablet"/>
            </code>
         </Medication>
      </resource>
   </entry>
   <entry>
      <fullUrl value="urn:uuid:6d5e312c-ac11-4412-beac-7478d07ded9a"/>
      <resource>
         <MedicationStatement>
            <id value="6d5e312c-ac11-4412-beac-7478d07ded9a"/>
            <meta>
               <profile value="http://hl7.eu/fhir/eps/StructureDefinition/MedicationStatement-eu-eps"/>
            </meta>
            <text>
               <status value="generated"/>
               <div xmlns="http://www.w3.org/1999/xhtml">
                  <table class="hl7__ips first25">
                     <tr>
                        <th>Medication</th>
                        <th>Since</th>
                        <th>Form</th>
                        <th>Dosage</th>
                        <th>Reason</th>
                     </tr>
                     <tr>
                        <td>Metoprolol tartrate (as metoprolol succinate) 100 mg prolonged-release oral tablet</td>
                        <td>
                           <span class="nb">1998-05-11</span>
                        </td>
                        <td>-</td>
                        <td>1 tablet (100 mg) once daily</td>
                        <td>-</td>
                     </tr>
                  </table>
               </div>
            </text>
            <status value="active"/>
            <medicationReference>
               <reference value="urn:uuid:cab5fcb7-4add-4576-b3f9-19d4e1949c3d"/>
               <display value="Metoprolol tartrate (as metoprolol succinate) 100 mg prolonged-release oral tablet"/>
            </medicationReference>
            <subject>
               <reference value="urn:uuid:5d4dc357-a124-44c9-bc59-36a5f33bfe3b"/>
               <display value="Khalid Nilsson"/>
            </subject>
            <effectivePeriod>
               <start value="1998-05-11"/>
            </effectivePeriod>
            <dosage>
               <text value="1 tablet (100 mg) once daily"/>
               <timing>
                  <repeat>
                     <frequency value="1"/>
                     <period value="1"/>
                     <periodUnit value="d"/>
                  </repeat>
               </timing>
               <asNeededBoolean value="false"/>
               <doseAndRate>
                  <doseQuantity>
                     <value value="1"/>
                     <unit value="{tbl}"/>
                     <code value="{tbl}"/>
                  </doseQuantity>
               </doseAndRate>
            </dosage>
         </MedicationStatement>
      </resource>
   </entry>
   <entry>
      <fullUrl value="urn:uuid:fa032dbd-fd34-4bf9-a14c-2b827aabd3b5"/>
      <resource>
         <Immunization>
            <id value="fa032dbd-fd34-4bf9-a14c-2b827aabd3b5"/>
            <meta>
               <profile value="http://hl7.org/fhir/uv/ips/StructureDefinition/Immunization-uv-ips"/>
            </meta>
            <text>
               <status value="generated"/>
               <div xmlns="http://www.w3.org/1999/xhtml">
                  <table class="hl7__ips">
                     <tr>
                        <td>Influenza virus antigen only vaccine product</td>
                        <td>
                           <span class="nb">30-Sep-2024</span>
                        </td>
                     </tr>
                  </table>
               </div>
            </text>
            <status value="completed"/>
            <vaccineCode>
               <coding>
                  <system value="http://snomed.info/sct"/>
                  <code value="1181000221105"/>
                  <display value="Vaccine product containing Influenza virus antigen"/>
               </coding>
               <coding>
                  <system value="http://www.whocc.no/atc"/>
                  <code value="J07BB02"/>
                  <display value="Influenza, inactivated, split virus"/>
               </coding>
               <text value="Influenza virus antigen only vaccine product"/>
            </vaccineCode>
            <patient>
               <reference value="urn:uuid:5d4dc357-a124-44c9-bc59-36a5f33bfe3b"/>
               <display value="Khalid Nilsson"/>
            </patient>
            <occurrenceDateTime value="2024-09-30"/>
            <lotNumber value="TT-ZelAy2p"/>
            <expirationDate value="2024-10-28"/>
            <site>
               <coding>
                  <system value="http://snomed.info/sct"/>
                  <code value="244979005"/>
                  <display value="Entire muscle of upper arm"/>
               </coding>
               <text value="Entire muscle of upper arm"/>
            </site>
            <route>
               <coding>
                  <system value="http://snomed.info/sct"/>
                  <code value="78421000"/>
                  <display value="Intramuscular route"/>
               </coding>
               <text value="Intramuscular route"/>
            </route>
         </Immunization>
      </resource>
   </entry>
   <entry>
      <fullUrl value="urn:uuid:b5d0dd16-afa8-48e8-ab03-7a0fe34ac04f"/>
      <resource>
         <Immunization>
            <id value="b5d0dd16-afa8-48e8-ab03-7a0fe34ac04f"/>
            <meta>
               <profile value="http://hl7.org/fhir/uv/ips/StructureDefinition/Immunization-uv-ips"/>
            </meta>
            <text>
               <status value="generated"/>
               <div xmlns="http://www.w3.org/1999/xhtml">
                  <table class="hl7__ips">
                     <tr>
                        <td>SARS-CoV-2 mRNA vaccine</td>
                        <td>
                           <span class="nb">29-Mar-2021</span>
                        </td>
                     </tr>
                  </table>
               </div>
            </text>
            <status value="completed"/>
            <vaccineCode>
               <coding>
                  <system value="http://snomed.info/sct"/>
                  <code value="1119349007"/>
                  <display value="Vaccine product containing SARS-CoV-2 mRNA"/>
               </coding>
               <coding>
                  <system value="http://www.whocc.no/atc"/>
                  <code value="J07BX03"/>
                  <display value="COVID-19 mRNA vaccines"/>
               </coding>
               <text value="SARS-CoV-2 mRNA vaccine"/>
            </vaccineCode>
            <patient>
               <reference value="urn:uuid:5d4dc357-a124-44c9-bc59-36a5f33bfe3b"/>
               <display value="Khalid Nilsson"/>
            </patient>
            <occurrenceDateTime value="2021-03-29"/>
            <lotNumber value="YJ-jGSa3wRG"/>
            <expirationDate value="2021-06-04"/>
            <site>
               <coding>
                  <system value="http://snomed.info/sct"/>
                  <code value="244979005"/>
                  <display value="Entire muscle of upper arm"/>
               </coding>
               <text value="Entire muscle of upper arm"/>
            </site>
            <route>
               <coding>
                  <system value="http://snomed.info/sct"/>
                  <code value="78421000"/>
                  <display value="Intramuscular route"/>
               </coding>
               <text value="Intramuscular route"/>
            </route>
         </Immunization>
      </resource>
   </entry>
   <entry>
      <fullUrl value="urn:uuid:f65bea32-44c4-4787-bfd7-fd2711c79dfc"/>
      <resource>
         <Immunization>
            <id value="f65bea32-44c4-4787-bfd7-fd2711c79dfc"/>
            <meta>
               <profile value="http://hl7.org/fhir/uv/ips/StructureDefinition/Immunization-uv-ips"/>
            </meta>
            <text>
               <status value="generated"/>
               <div xmlns="http://www.w3.org/1999/xhtml">
                  <table class="hl7__ips">
                     <tr>
                        <td>Clostridium tetani toxoid antigen adsorbed only vaccine product</td>
                        <td>
                           <span class="nb">02-Sep-2019</span>
                        </td>
                     </tr>
                  </table>
               </div>
            </text>
            <status value="completed"/>
            <vaccineCode>
               <coding>
                  <system value="http://snomed.info/sct"/>
                  <code value="777725002"/>
                  <display value="Vaccine product containing only Clostridium tetani toxoid antigen adsorbed"/>
               </coding>
               <coding>
                  <system value="http://www.whocc.no/atc"/>
                  <code value="J07AM51"/>
                  <display value="Diphtheria-tetanus vaccines, adult type"/>
               </coding>
               <text value="Clostridium tetani toxoid antigen adsorbed only vaccine product"/>
            </vaccineCode>
            <patient>
               <reference value="urn:uuid:5d4dc357-a124-44c9-bc59-36a5f33bfe3b"/>
               <display value="Khalid Nilsson"/>
            </patient>
            <occurrenceDateTime value="2019-09-02"/>
            <lotNumber value="CA-gLdqbv"/>
            <expirationDate value="2020-02-11"/>
            <site>
               <coding>
                  <system value="http://snomed.info/sct"/>
                  <code value="244979005"/>
                  <display value="Entire muscle of upper arm"/>
               </coding>
               <text value="Entire muscle of upper arm"/>
            </site>
            <route>
               <coding>
                  <system value="http://snomed.info/sct"/>
                  <code value="78421000"/>
                  <display value="Intramuscular route"/>
               </coding>
               <text value="Intramuscular route"/>
            </route>
         </Immunization>
      </resource>
   </entry>
   <entry>
      <fullUrl value="urn:uuid:fedcb130-1b8e-4383-99f7-80c2860cdd55"/>
      <resource>
         <Procedure>
            <id value="fedcb130-1b8e-4383-99f7-80c2860cdd55"/>
            <meta>
               <profile value="http://hl7.org/fhir/uv/ips/StructureDefinition/Procedure-uv-ips"/>
            </meta>
            <text>
               <status value="generated"/>
               <div xmlns="http://www.w3.org/1999/xhtml">
                  <table class="hl7__ips">
                     <tr>
                        <td>Pre-discharge assessment</td>
                        <td>
                           <span class="nb">21-Jun-2023</span>
                        </td>
                        <td>-</td>
                     </tr>
                  </table>
               </div>
            </text>
            <status value="completed"/>
            <code>
               <coding>
                  <system value="http://snomed.info/sct"/>
                  <code value="225386006"/>
                  <display value="Pre-discharge assessment (procedure)"/>
               </coding>
               <text value="Pre-discharge assessment"/>
            </code>
            <subject>
               <reference value="urn:uuid:"/>
               <display value="Khalid Nilsson"/>
            </subject>
            <performedDateTime value="2023-06-21"/>
         </Procedure>
      </resource>
   </entry>
   <entry>
      <fullUrl value="urn:uuid:ea863dab-f3ac-4254-82ff-077366e31722"/>
      <resource>
         <Procedure>
            <id value="ea863dab-f3ac-4254-82ff-077366e31722"/>
            <meta>
               <profile value="http://hl7.org/fhir/uv/ips/StructureDefinition/Procedure-uv-ips"/>
            </meta>
            <text>
               <status value="generated"/>
               <div xmlns="http://www.w3.org/1999/xhtml">
                  <table class="hl7__ips">
                     <tr>
                        <td>Discharge from skilled nursing facility (procedure)</td>
                        <td>
                           <span class="nb">21-Jun-2023</span>
                        </td>
                        <td>-</td>
                     </tr>
                  </table>
               </div>
            </text>
            <status value="completed"/>
            <code>
               <coding>
                  <system value="http://snomed.info/sct"/>
                  <code value="449381000124108"/>
                  <display value="Discharge from skilled nursing facility (procedure)"/>
               </coding>
            </code>
            <subject>
               <reference value="urn:uuid:"/>
               <display value="Khalid Nilsson"/>
            </subject>
            <performedDateTime value="2023-06-21"/>
         </Procedure>
      </resource>
   </entry>
   <entry>
      <fullUrl value="urn:uuid:5d9fac08-001a-4c95-bf69-d8292c943fa6"/>
      <resource>
         <Procedure>
            <id value="5d9fac08-001a-4c95-bf69-d8292c943fa6"/>
            <meta>
               <profile value="http://hl7.org/fhir/uv/ips/StructureDefinition/Procedure-uv-ips"/>
            </meta>
            <text>
               <status value="generated"/>
               <div xmlns="http://www.w3.org/1999/xhtml">
                  <table class="hl7__ips">
                     <tr>
                        <td>Nursing care/supplementary surveillance</td>
                        <td>
                           <span class="nb">20-Jun-2023</span>
                        </td>
                        <td>-</td>
                     </tr>
                  </table>
               </div>
            </text>
            <status value="completed"/>
            <code>
               <coding>
                  <system value="http://snomed.info/sct"/>
                  <code value="410401003"/>
                  <display value="Nursing care/supplementary surveillance (regime/therapy)"/>
               </coding>
               <text value="Nursing care/supplementary surveillance"/>
            </code>
            <subject>
               <reference value="urn:uuid:"/>
               <display value="Khalid Nilsson"/>
            </subject>
            <performedDateTime value="2023-06-20"/>
         </Procedure>
      </resource>
   </entry>
   <entry>
      <fullUrl value="urn:uuid:9895a4e8-2993-4eb1-ae22-34c6295c774d"/>
      <resource>
         <Procedure>
            <id value="9895a4e8-2993-4eb1-ae22-34c6295c774d"/>
            <meta>
               <profile value="http://hl7.org/fhir/uv/ips/StructureDefinition/Procedure-uv-ips"/>
            </meta>
            <text>
               <status value="generated"/>
               <div xmlns="http://www.w3.org/1999/xhtml">
                  <table class="hl7__ips">
                     <tr>
                        <td>Physical therapy procedure</td>
                        <td>
                           <span class="nb">19-Jun-2023</span>
                        </td>
                        <td>-</td>
                     </tr>
                  </table>
               </div>
            </text>
            <status value="completed"/>
            <code>
               <coding>
                  <system value="http://snomed.info/sct"/>
                  <code value="91251008"/>
                  <display value="Physical therapy procedure (regime/therapy)"/>
               </coding>
               <text value="Physical therapy procedure"/>
            </code>
            <subject>
               <reference value="urn:uuid:"/>
               <display value="Khalid Nilsson"/>
            </subject>
            <performedDateTime value="2023-06-19"/>
         </Procedure>
      </resource>
   </entry>
   <entry>
      <fullUrl value="urn:uuid:1a25ef29-ad2d-4bd5-aad3-ee365ce9d4c5"/>
      <resource>
         <Procedure>
            <id value="1a25ef29-ad2d-4bd5-aad3-ee365ce9d4c5"/>
            <meta>
               <profile value="http://hl7.org/fhir/uv/ips/StructureDefinition/Procedure-uv-ips"/>
            </meta>
            <text>
               <status value="generated"/>
               <div xmlns="http://www.w3.org/1999/xhtml">
                  <table class="hl7__ips">
                     <tr>
                        <td>Professional / ancillary services care</td>
                        <td>
                           <span class="nb">17-Jun-2023</span>
                        </td>
                        <td>-</td>
                     </tr>
                  </table>
               </div>
            </text>
            <status value="completed"/>
            <code>
               <coding>
                  <system value="http://snomed.info/sct"/>
                  <code value="409023009"/>
                  <display value="Professional / ancillary services care (regime/therapy)"/>
               </coding>
               <text value="Professional / ancillary services care"/>
            </code>
            <subject>
               <reference value="urn:uuid:"/>
               <display value="Khalid Nilsson"/>
            </subject>
            <performedDateTime value="2023-06-17"/>
         </Procedure>
      </resource>
   </entry>
   <entry>
      <fullUrl value="urn:uuid:36b955ce-78a5-49bb-ad7a-3d26fc1851a9"/>
      <resource>
         <Procedure>
            <id value="36b955ce-78a5-49bb-ad7a-3d26fc1851a9"/>
            <meta>
               <profile value="http://hl7.org/fhir/uv/ips/StructureDefinition/Procedure-uv-ips"/>
            </meta>
            <text>
               <status value="generated"/>
               <div xmlns="http://www.w3.org/1999/xhtml">
                  <table class="hl7__ips">
                     <tr>
                        <td>Speech and language therapy regime</td>
                        <td>
                           <span class="nb">14-Jun-2023</span>
                        </td>
                        <td>-</td>
                     </tr>
                  </table>
               </div>
            </text>
            <status value="completed"/>
            <code>
               <coding>
                  <system value="http://snomed.info/sct"/>
                  <code value="311555007"/>
                  <display value="Speech and language therapy regime (regime/therapy)"/>
               </coding>
               <text value="Speech and language therapy regime"/>
            </code>
            <subject>
               <reference value="urn:uuid:"/>
               <display value="Khalid Nilsson"/>
            </subject>
            <performedDateTime value="2023-06-14"/>
         </Procedure>
      </resource>
   </entry>
   <entry>
      <fullUrl value="urn:uuid:b32c0624-efb6-45f7-be48-f27804c98adb"/>
      <resource>
         <Procedure>
            <id value="b32c0624-efb6-45f7-be48-f27804c98adb"/>
            <meta>
               <profile value="http://hl7.org/fhir/uv/ips/StructureDefinition/Procedure-uv-ips"/>
            </meta>
            <text>
               <status value="generated"/>
               <div xmlns="http://www.w3.org/1999/xhtml">
                  <table class="hl7__ips">
                     <tr>
                        <td>Occupational therapy</td>
                        <td>
                           <span class="nb">10-Jun-2023</span>
                        </td>
                        <td>-</td>
                     </tr>
                  </table>
               </div>
            </text>
            <status value="completed"/>
            <code>
               <coding>
                  <system value="http://snomed.info/sct"/>
                  <code value="84478008"/>
                  <display value="Occupational therapy (regime/therapy)"/>
               </coding>
               <text value="Occupational therapy"/>
            </code>
            <subject>
               <reference value="urn:uuid:"/>
               <display value="Khalid Nilsson"/>
            </subject>
            <performedDateTime value="2023-06-10"/>
         </Procedure>
      </resource>
   </entry>
   <entry>
      <fullUrl value="urn:uuid:29dcb75c-4960-4fd4-a069-37b7eb325a90"/>
      <resource>
         <Procedure>
            <id value="29dcb75c-4960-4fd4-a069-37b7eb325a90"/>
            <meta>
               <profile value="http://hl7.org/fhir/uv/ips/StructureDefinition/Procedure-uv-ips"/>
            </meta>
            <text>
               <status value="generated"/>
               <div xmlns="http://www.w3.org/1999/xhtml">
                  <table class="hl7__ips">
                     <tr>
                        <td>History AND physical examination</td>
                        <td>
                           <span class="nb">08-May-2023</span>
                        </td>
                        <td>-</td>
                     </tr>
                  </table>
               </div>
            </text>
            <status value="completed"/>
            <code>
               <coding>
                  <system value="http://snomed.info/sct"/>
                  <code value="63332003"/>
                  <display value="History AND physical examination (procedure)"/>
               </coding>
               <text value="History AND physical examination"/>
            </code>
            <subject>
               <reference value="urn:uuid:"/>
               <display value="Khalid Nilsson"/>
            </subject>
            <performedDateTime value="2023-05-08"/>
         </Procedure>
      </resource>
   </entry>
   <entry>
      <fullUrl value="urn:uuid:62b6ea3c-959e-46ab-b927-9df97b58470b"/>
      <resource>
         <Procedure>
            <id value="62b6ea3c-959e-46ab-b927-9df97b58470b"/>
            <meta>
               <profile value="http://hl7.org/fhir/uv/ips/StructureDefinition/Procedure-uv-ips"/>
            </meta>
            <text>
               <status value="generated"/>
               <div xmlns="http://www.w3.org/1999/xhtml">
                  <table class="hl7__ips">
                     <tr>
                        <td>Initial patient assessment</td>
                        <td>
                           <span class="nb">08-May-2023</span>
                        </td>
                        <td>-</td>
                     </tr>
                  </table>
               </div>
            </text>
            <status value="completed"/>
            <code>
               <coding>
                  <system value="http://snomed.info/sct"/>
                  <code value="315639002"/>
                  <display value="Initial patient assessment (procedure)"/>
               </coding>
               <text value="Initial patient assessment"/>
            </code>
            <subject>
               <reference value="urn:uuid:"/>
               <display value="Khalid Nilsson"/>
            </subject>
            <performedDateTime value="2023-05-08"/>
         </Procedure>
      </resource>
   </entry>
   <entry>
      <fullUrl value="urn:uuid:f959726a-a790-4397-b03e-0300d31f2c79"/>
      <resource>
         <Procedure>
            <id value="f959726a-a790-4397-b03e-0300d31f2c79"/>
            <meta>
               <profile value="http://hl7.org/fhir/uv/ips/StructureDefinition/Procedure-uv-ips"/>
            </meta>
            <text>
               <status value="generated"/>
               <div xmlns="http://www.w3.org/1999/xhtml">
                  <table class="hl7__ips">
                     <tr>
                        <td>Development of individualized plan of care</td>
                        <td>
                           <span class="nb">08-May-2023</span>
                        </td>
                        <td>-</td>
                     </tr>
                  </table>
               </div>
            </text>
            <status value="completed"/>
            <code>
               <coding>
                  <system value="http://snomed.info/sct"/>
                  <code value="370789001"/>
                  <display value="Development of individualized plan of care (procedure)"/>
               </coding>
               <text value="Development of individualized plan of care"/>
            </code>
            <subject>
               <reference value="urn:uuid:"/>
               <display value="Khalid Nilsson"/>
            </subject>
            <performedDateTime value="2023-05-08"/>
         </Procedure>
      </resource>
   </entry>
   <entry>
      <fullUrl value="urn:uuid:f5af13b6-54dc-476b-9504-a33af06739c2"/>
      <resource>
         <AllergyIntolerance>
            <id value="f5af13b6-54dc-476b-9504-a33af06739c2"/>
            <meta>
               <profile value="http://hl7.eu/fhir/eps/StructureDefinition/allergyIntolerance-eu-eps"/>
            </meta>
            <text>
               <status value="generated"/>
               <div xmlns="http://www.w3.org/1999/xhtml">
                  <table class="hl7__ips">
                     <tr>
                        <th>Allergy/Intolerance</th>
                        <th>Onset Date</th>
                        <th>Status</th>
                        <th>Type</th>
                        <th>Reaction</th>
                     </tr>
                     <tr>
                        <td/>
                        <td>?</td>
                        <td>active</td>
                        <td>?</td>
                        <td/>
                     </tr>
                  </table>
               </div>
            </text>
            <clinicalStatus>
               <coding>
                  <system value="http://terminology.hl7.org/CodeSystem/allergyintolerance-clinical"/>
                  <code value="active"/>
               </coding>
            </clinicalStatus>
            <verificationStatus>
               <coding>
                  <system value="http://terminology.hl7.org/CodeSystem/allergyintolerance-verification"/>
                  <code value="confirmed"/>
               </coding>
            </verificationStatus>
            <code>
               <text/>
            </code>
            <patient>
               <reference value="urn:uuid:5d4dc357-a124-44c9-bc59-36a5f33bfe3b"/>
               <display value="Khalid Nilsson"/>
            </patient>
            <onsetDateTime>
               <extension url="http://hl7.org/fhir/StructureDefinition/data-absent-reason">
                  <valueCode value="unknown"/>
               </extension>
            </onsetDateTime>
         </AllergyIntolerance>
      </resource>
   </entry>
   <entry>
      <fullUrl value="urn:uuid:83a3d482-01a3-46c9-a851-333af1e2ef4e"/>
      <resource>
         <CarePlan>
            <id value="83a3d482-01a3-46c9-a851-333af1e2ef4e"/>
            <text>
               <status value="generated"/>
               <div xmlns="http://www.w3.org/1999/xhtml">
                  <table class="hl7__ips first25">
                     <tr>
                        <th>Active Planned Care / Goals</th>
                        <th>Start Date</th>
                        <th>Reason</th>
                     </tr>
                     <tr>
                        <td>Therapy</td>
                        <td>
                           <span class="nb">07-Apr-2014</span>
                        </td>
                        <td>-</td>
                     </tr>
                  </table>
               </div>
            </text>
            <status value="active"/>
            <intent value="plan"/>
            <category>
               <coding>
                  <system value="http://terminology.hl7.org/CodeSystem/care-plan-category"/>
                  <code value="assess-plan"/>
                  <display value="Assessment and Plan"/>
               </coding>
            </category>
            <subject>
               <reference value="urn:uuid:5d4dc357-a124-44c9-bc59-36a5f33bfe3b"/>
               <display value="Khalid Nilsson"/>
            </subject>
            <period>
               <start value="2014-04-07"/>
            </period>
            <activity>
               <detail>
                  <kind value="Appointment"/>
                  <code>
                     <coding>
                        <system value="http://snomed.info/sct"/>
                        <code value="276239002"/>
                        <display value="Therapy (regime/therapy)"/>
                     </coding>
                  </code>
                  <status value="unknown"/>
                  <description value="Therapy"/>
               </detail>
            </activity>
         </CarePlan>
      </resource>
   </entry>
   <entry>
      <fullUrl value="urn:uuid:5ba98e64-b8d2-44a2-8dd8-f9b4afde8246"/>
      <resource>
         <CarePlan>
            <id value="5ba98e64-b8d2-44a2-8dd8-f9b4afde8246"/>
            <text>
               <status value="generated"/>
               <div xmlns="http://www.w3.org/1999/xhtml">
                  <table class="hl7__ips first25">
                     <tr>
                        <th>Active Planned Care / Goals</th>
                        <th>Start Date</th>
                        <th>Reason</th>
                     </tr>
                     <tr>
                        <td>Diabetes self management plan</td>
                        <td>
                           <span class="nb">10-Jul-1973</span>
                        </td>
                        <td>Prediabetes</td>
                     </tr>
                     <tr>
                        <td>
                           <ul>
                              <li>Maintain hemoglobin A1c below 6.5% through lifestyle modification and self-management.</li>
                              <li>Achieve and maintain a healthy body weight as part of diabetes self-management.</li>
                              <li>Engage in at least 150 minutes of moderate-intensity physical activity per week.</li>
                           </ul>
                        </td>
                        <td/>
                        <td/>
                     </tr>
                  </table>
               </div>
            </text>
            <status value="active"/>
            <intent value="plan"/>
            <category>
               <coding>
                  <system value="http://terminology.hl7.org/CodeSystem/care-plan-category"/>
                  <code value="assess-plan"/>
                  <display value="Assessment and Plan"/>
               </coding>
            </category>
            <subject>
               <reference value="urn:uuid:5d4dc357-a124-44c9-bc59-36a5f33bfe3b"/>
               <display value="Khalid Nilsson"/>
            </subject>
            <period>
               <start value="1973-07-10"/>
            </period>
            <goal>
               <reference value="urn:uuid:040d1954-deb4-4e6b-995b-dbddf295f003"/>
            </goal>
            <goal>
               <reference value="urn:uuid:fe84883a-b319-414f-a459-8bea5bf4f0a5"/>
            </goal>
            <goal>
               <reference value="urn:uuid:3beb31c0-36d1-410f-875b-44ea97e4e7b7"/>
            </goal>
            <activity>
               <detail>
                  <kind value="Appointment"/>
                  <code>
                     <coding>
                        <system value="http://snomed.info/sct"/>
                        <code value="698360004"/>
                        <display value="Diabetes self management plan (qualifier value)"/>
                     </coding>
                  </code>
                  <reasonCode>
                     <coding>
                        <system value="http://snomed.info/sct"/>
                        <code value="15777000"/>
                        <display value="Prediabetes"/>
                     </coding>
                  </reasonCode>
                  <status value="unknown"/>
                  <description value="Diabetes self management plan"/>
               </detail>
            </activity>
         </CarePlan>
      </resource>
   </entry>
   <entry>
      <fullUrl value="urn:uuid:8f9b27e0-5ee0-4552-bf89-ed3e8ec08276"/>
      <resource>
         <ImmunizationRecommendation>
            <id value="8f9b27e0-5ee0-4552-bf89-ed3e8ec08276"/>
            <text>
               <status value="generated"/>
               <div xmlns="http://www.w3.org/1999/xhtml">
                  <table class="hl7__ips">
                     <tr>
                        <td>Vaccine product containing only Influenza virus antigen (medicinal product)</td>
                        <td>
                           <span class="nb">01-Oct-2025</span>
                        </td>
                        <td>Annual seasonal influenza vaccination</td>
                     </tr>
                  </table>
               </div>
            </text>
            <patient>
               <reference value="urn:uuid:5d4dc357-a124-44c9-bc59-36a5f33bfe3b"/>
               <display value="Khalid Nilsson"/>
            </patient>
            <date value="2025-10-22"/>
            <recommendation>
               <vaccineCode>
                  <coding>
                     <system value="http://snomed.info/sct"/>
                     <code value="1181000221105"/>
                     <display value="Vaccine product containing only Influenza virus antigen (medicinal product)"/>
                  </coding>
               </vaccineCode>
               <targetDisease>
                  <coding>
                     <system value="http://snomed.info/sct"/>
                     <code value="6142004"/>
                     <display value="Influenza (disorder)"/>
                  </coding>
               </targetDisease>
               <forecastStatus>
                  <coding>
                     <system value="http://terminology.hl7.org/CodeSystem/immunization-recommendation-status"/>
                     <code value="due"/>
                     <display value="Due"/>
                  </coding>
               </forecastStatus>
               <dateCriterion>
                  <code>
                     <coding>
                        <system value="http://loinc.org"/>
                        <code value="30980-7"/>
                        <display value="Date vaccine due"/>
                     </coding>
                  </code>
                  <value value="2025-10-01"/>
               </dateCriterion>
               <series value="Annual seasonal influenza vaccination"/>
            </recommendation>
         </ImmunizationRecommendation>
      </resource>
   </entry>
   <entry>
      <fullUrl value="urn:uuid:79d582ad-54ff-44ec-ac2a-fc4d26f6e6fd"/>
      <resource>
         <Observation>
            <id value="79d582ad-54ff-44ec-ac2a-fc4d26f6e6fd"/>
            <meta>
               <profile value="http://hl7.org/fhir/StructureDefinition/vitalsigns"/>
            </meta>
            <text>
               <status value="generated"/>
               <div xmlns="http://www.w3.org/1999/xhtml">
                  <table class="hl7__ips">
                     <tr>
                        <th>Vital Sign</th>
                        <th>Date</th>
                        <th>Measurement</th>
                     </tr>
                     <tr>
                        <td>Body Height</td>
                        <td>30-Sep-2024</td>
                        <td>171.6 cm</td>
                     </tr>
                  </table>
               </div>
            </text>
            <status value="final"/>
            <category>
               <coding>
                  <system value="http://terminology.hl7.org/CodeSystem/observation-category"/>
                  <code value="vital-signs"/>
                  <display value="Vital Signs"/>
               </coding>
            </category>
            <code>
               <coding>
                  <system value="http://loinc.org"/>
                  <code value="$8302-2"/>
                  <display value="Body Height"/>
               </coding>
            </code>
            <subject>
               <reference value="urn:uuid:5d4dc357-a124-44c9-bc59-36a5f33bfe3b"/>
               <display value="Khalid Nilsson"/>
            </subject>
            <effectiveDateTime value="2024-09-30"/>
            <valueQuantity>
               <value value="171.6"/>
               <unit value="cm"/>
               <code value="cm"/>
            </valueQuantity>
         </Observation>
      </resource>
   </entry>
   <entry>
      <fullUrl value="urn:uuid:df4595b9-655c-4893-bce1-04d5e62ee3e5"/>
      <resource>
         <Observation>
            <id value="df4595b9-655c-4893-bce1-04d5e62ee3e5"/>
            <meta>
               <profile value="http://hl7.org/fhir/StructureDefinition/vitalsigns"/>
            </meta>
            <text>
               <status value="generated"/>
               <div xmlns="http://www.w3.org/1999/xhtml">
                  <table class="hl7__ips">
                     <tr>
                        <th>Vital Sign</th>
                        <th>Date</th>
                        <th>Measurement</th>
                     </tr>
                     <tr>
                        <td>Pain severity - 0-10 verbal numeric rating [Score] - Reported</td>
                        <td>30-Sep-2024</td>
                        <td>1 {score}</td>
                     </tr>
                  </table>
               </div>
            </text>
            <status value="final"/>
            <category>
               <coding>
                  <system value="http://terminology.hl7.org/CodeSystem/observation-category"/>
                  <code value="vital-signs"/>
                  <display value="Vital Signs"/>
               </coding>
            </category>
            <code>
               <coding>
                  <system value="http://loinc.org"/>
                  <code value="$72514-3"/>
                  <display value="Pain severity - 0-10 verbal numeric rating [Score] - Reported"/>
               </coding>
            </code>
            <subject>
               <reference value="urn:uuid:5d4dc357-a124-44c9-bc59-36a5f33bfe3b"/>
               <display value="Khalid Nilsson"/>
            </subject>
            <effectiveDateTime value="2024-09-30"/>
            <valueQuantity>
               <value value="1"/>
               <unit value="{score}"/>
               <code value="{score}"/>
            </valueQuantity>
         </Observation>
      </resource>
   </entry>
   <entry>
      <fullUrl value="urn:uuid:4d161273-0076-4e02-ab1c-0100231fa91e"/>
      <resource>
         <Observation>
            <id value="4d161273-0076-4e02-ab1c-0100231fa91e"/>
            <meta>
               <profile value="http://hl7.org/fhir/StructureDefinition/vitalsigns"/>
            </meta>
            <text>
               <status value="generated"/>
               <div xmlns="http://www.w3.org/1999/xhtml">
                  <table class="hl7__ips">
                     <tr>
                        <th>Vital Sign</th>
                        <th>Date</th>
                        <th>Measurement</th>
                     </tr>
                     <tr>
                        <td>Body Weight</td>
                        <td>30-Sep-2024</td>
                        <td>89.4 kg</td>
                     </tr>
                  </table>
               </div>
            </text>
            <status value="final"/>
            <category>
               <coding>
                  <system value="http://terminology.hl7.org/CodeSystem/observation-category"/>
                  <code value="vital-signs"/>
                  <display value="Vital Signs"/>
               </coding>
            </category>
            <code>
               <coding>
                  <system value="http://loinc.org"/>
                  <code value="$29463-7"/>
                  <display value="Body Weight"/>
               </coding>
            </code>
            <subject>
               <reference value="urn:uuid:5d4dc357-a124-44c9-bc59-36a5f33bfe3b"/>
               <display value="Khalid Nilsson"/>
            </subject>
            <effectiveDateTime value="2024-09-30"/>
            <valueQuantity>
               <value value="89.4"/>
               <unit value="kg"/>
               <code value="kg"/>
            </valueQuantity>
         </Observation>
      </resource>
   </entry>
   <entry>
      <fullUrl value="urn:uuid:21e7ec9f-8904-4c0f-a42c-35fb7d763916"/>
      <resource>
         <Observation>
            <id value="21e7ec9f-8904-4c0f-a42c-35fb7d763916"/>
            <meta>
               <profile value="http://hl7.org/fhir/StructureDefinition/vitalsigns"/>
            </meta>
            <text>
               <status value="generated"/>
               <div xmlns="http://www.w3.org/1999/xhtml">
                  <table class="hl7__ips">
                     <tr>
                        <th>Vital Sign</th>
                        <th>Date</th>
                        <th>Measurement</th>
                     </tr>
                     <tr>
                        <td>Body mass index (BMI) [Ratio]</td>
                        <td>30-Sep-2024</td>
                        <td>30.4 kg/m2</td>
                     </tr>
                  </table>
               </div>
            </text>
            <status value="final"/>
            <category>
               <coding>
                  <system value="http://terminology.hl7.org/CodeSystem/observation-category"/>
                  <code value="vital-signs"/>
                  <display value="Vital Signs"/>
               </coding>
            </category>
            <code>
               <coding>
                  <system value="http://loinc.org"/>
                  <code value="$39156-5"/>
                  <display value="Body mass index (BMI) [Ratio]"/>
               </coding>
            </code>
            <subject>
               <reference value="urn:uuid:5d4dc357-a124-44c9-bc59-36a5f33bfe3b"/>
               <display value="Khalid Nilsson"/>
            </subject>
            <effectiveDateTime value="2024-09-30"/>
            <valueQuantity>
               <value value="30.4"/>
               <unit value="kg/m2"/>
               <code value="kg/m2"/>
            </valueQuantity>
         </Observation>
      </resource>
   </entry>
   <entry>
      <fullUrl value="urn:uuid:47e24d03-1ad6-4bc3-9e6d-4febf6e21c7f"/>
      <resource>
         <Observation>
            <id value="47e24d03-1ad6-4bc3-9e6d-4febf6e21c7f"/>
            <meta>
               <profile value="http://hl7.org/fhir/StructureDefinition/vitalsigns"/>
            </meta>
            <text>
               <status value="generated"/>
               <div xmlns="http://www.w3.org/1999/xhtml">
                  <table class="hl7__ips">
                     <tr>
                        <th>Vital Sign</th>
                        <th>Date</th>
                        <th>Measurement</th>
                     </tr>
                     <tr>
                        <td>Diastolic Blood Pressure</td>
                        <td>30-Sep-2024</td>
                        <td>66 mm[Hg]</td>
                     </tr>
                  </table>
               </div>
            </text>
            <status value="final"/>
            <category>
               <coding>
                  <system value="http://terminology.hl7.org/CodeSystem/observation-category"/>
                  <code value="vital-signs"/>
                  <display value="Vital Signs"/>
               </coding>
            </category>
            <code>
               <coding>
                  <system value="http://loinc.org"/>
                  <code value="$8462-4"/>
                  <display value="Diastolic Blood Pressure"/>
               </coding>
            </code>
            <subject>
               <reference value="urn:uuid:5d4dc357-a124-44c9-bc59-36a5f33bfe3b"/>
               <display value="Khalid Nilsson"/>
            </subject>
            <effectiveDateTime value="2024-09-30"/>
            <valueQuantity>
               <value value="66"/>
               <unit value="mm[Hg]"/>
               <code value="mm[Hg]"/>
            </valueQuantity>
         </Observation>
      </resource>
   </entry>
   <entry>
      <fullUrl value="urn:uuid:08b4ce33-f003-4c4a-b2d4-245f4c06b0f8"/>
      <resource>
         <Observation>
            <id value="08b4ce33-f003-4c4a-b2d4-245f4c06b0f8"/>
            <meta>
               <profile value="http://hl7.org/fhir/StructureDefinition/vitalsigns"/>
            </meta>
            <text>
               <status value="generated"/>
               <div xmlns="http://www.w3.org/1999/xhtml">
                  <table class="hl7__ips">
                     <tr>
                        <th>Vital Sign</th>
                        <th>Date</th>
                        <th>Measurement</th>
                     </tr>
                     <tr>
                        <td>Systolic Blood Pressure</td>
                        <td>30-Sep-2024</td>
                        <td>97 mm[Hg]</td>
                     </tr>
                  </table>
               </div>
            </text>
            <status value="final"/>
            <category>
               <coding>
                  <system value="http://terminology.hl7.org/CodeSystem/observation-category"/>
                  <code value="vital-signs"/>
                  <display value="Vital Signs"/>
               </coding>
            </category>
            <code>
               <coding>
                  <system value="http://loinc.org"/>
                  <code value="$8480-6"/>
                  <display value="Systolic Blood Pressure"/>
               </coding>
            </code>
            <subject>
               <reference value="urn:uuid:5d4dc357-a124-44c9-bc59-36a5f33bfe3b"/>
               <display value="Khalid Nilsson"/>
            </subject>
            <effectiveDateTime value="2024-09-30"/>
            <valueQuantity>
               <value value="97"/>
               <unit value="mm[Hg]"/>
               <code value="mm[Hg]"/>
            </valueQuantity>
         </Observation>
      </resource>
   </entry>
   <entry>
      <fullUrl value="urn:uuid:1db5b4b3-f40f-43ba-9902-b08c1fad626e"/>
      <resource>
         <Observation>
            <id value="1db5b4b3-f40f-43ba-9902-b08c1fad626e"/>
            <meta>
               <profile value="http://hl7.org/fhir/StructureDefinition/vitalsigns"/>
            </meta>
            <text>
               <status value="generated"/>
               <div xmlns="http://www.w3.org/1999/xhtml">
                  <table class="hl7__ips">
                     <tr>
                        <th>Vital Sign</th>
                        <th>Date</th>
                        <th>Measurement</th>
                     </tr>
                     <tr>
                        <td>Heart rate</td>
                        <td>30-Sep-2024</td>
                        <td>68 /min</td>
                     </tr>
                  </table>
               </div>
            </text>
            <status value="final"/>
            <category>
               <coding>
                  <system value="http://terminology.hl7.org/CodeSystem/observation-category"/>
                  <code value="vital-signs"/>
                  <display value="Vital Signs"/>
               </coding>
            </category>
            <code>
               <coding>
                  <system value="http://loinc.org"/>
                  <code value="$8867-4"/>
                  <display value="Heart rate"/>
               </coding>
            </code>
            <subject>
               <reference value="urn:uuid:5d4dc357-a124-44c9-bc59-36a5f33bfe3b"/>
               <display value="Khalid Nilsson"/>
            </subject>
            <effectiveDateTime value="2024-09-30"/>
            <valueQuantity>
               <value value="68"/>
               <unit value="/min"/>
               <code value="/min"/>
            </valueQuantity>
         </Observation>
      </resource>
   </entry>
   <entry>
      <fullUrl value="urn:uuid:51a63e57-fbd8-4294-a874-b5394fbf1e1b"/>
      <resource>
         <Observation>
            <id value="51a63e57-fbd8-4294-a874-b5394fbf1e1b"/>
            <meta>
               <profile value="http://hl7.org/fhir/StructureDefinition/vitalsigns"/>
            </meta>
            <text>
               <status value="generated"/>
               <div xmlns="http://www.w3.org/1999/xhtml">
                  <table class="hl7__ips">
                     <tr>
                        <th>Vital Sign</th>
                        <th>Date</th>
                        <th>Measurement</th>
                     </tr>
                     <tr>
                        <td>Respiratory rate</td>
                        <td>30-Sep-2024</td>
                        <td>13 /min</td>
                     </tr>
                  </table>
               </div>
            </text>
            <status value="final"/>
            <category>
               <coding>
                  <system value="http://terminology.hl7.org/CodeSystem/observation-category"/>
                  <code value="vital-signs"/>
                  <display value="Vital Signs"/>
               </coding>
            </category>
            <code>
               <coding>
                  <system value="http://loinc.org"/>
                  <code value="$9279-1"/>
                  <display value="Respiratory rate"/>
               </coding>
            </code>
            <subject>
               <reference value="urn:uuid:5d4dc357-a124-44c9-bc59-36a5f33bfe3b"/>
               <display value="Khalid Nilsson"/>
            </subject>
            <effectiveDateTime value="2024-09-30"/>
            <valueQuantity>
               <value value="13"/>
               <unit value="/min"/>
               <code value="/min"/>
            </valueQuantity>
         </Observation>
      </resource>
   </entry>
   <entry>
      <fullUrl value="urn:uuid:fcf99632-5851-4526-a801-67527e7b106a"/>
      <resource>
         <Observation>
            <id value="fcf99632-5851-4526-a801-67527e7b106a"/>
            <meta>
               <profile value="http://hl7.org/fhir/StructureDefinition/vitalsigns"/>
            </meta>
            <text>
               <status value="generated"/>
               <div xmlns="http://www.w3.org/1999/xhtml">
                  <table class="hl7__ips">
                     <tr>
                        <th>Vital Sign</th>
                        <th>Date</th>
                        <th>Measurement</th>
                     </tr>
                     <tr>
                        <td>Body Height</td>
                        <td>25-Sep-2023</td>
                        <td>171.6 cm</td>
                     </tr>
                  </table>
               </div>
            </text>
            <status value="final"/>
            <category>
               <coding>
                  <system value="http://terminology.hl7.org/CodeSystem/observation-category"/>
                  <code value="vital-signs"/>
                  <display value="Vital Signs"/>
               </coding>
            </category>
            <code>
               <coding>
                  <system value="http://loinc.org"/>
                  <code value="$8302-2"/>
                  <display value="Body Height"/>
               </coding>
            </code>
            <subject>
               <reference value="urn:uuid:5d4dc357-a124-44c9-bc59-36a5f33bfe3b"/>
               <display value="Khalid Nilsson"/>
            </subject>
            <effectiveDateTime value="2023-09-25"/>
            <valueQuantity>
               <value value="171.6"/>
               <unit value="cm"/>
               <code value="cm"/>
            </valueQuantity>
         </Observation>
      </resource>
   </entry>
   <entry>
      <fullUrl value="urn:uuid:ee258c6c-5e04-46de-aebc-aaaee62f8b3d"/>
      <resource>
         <Observation>
            <id value="ee258c6c-5e04-46de-aebc-aaaee62f8b3d"/>
            <meta>
               <profile value="http://hl7.org/fhir/StructureDefinition/vitalsigns"/>
            </meta>
            <text>
               <status value="generated"/>
               <div xmlns="http://www.w3.org/1999/xhtml">
                  <table class="hl7__ips">
                     <tr>
                        <th>Vital Sign</th>
                        <th>Date</th>
                        <th>Measurement</th>
                     </tr>
                     <tr>
                        <td>Pain severity - 0-10 verbal numeric rating [Score] - Reported</td>
                        <td>25-Sep-2023</td>
                        <td>1 {score}</td>
                     </tr>
                  </table>
               </div>
            </text>
            <status value="final"/>
            <category>
               <coding>
                  <system value="http://terminology.hl7.org/CodeSystem/observation-category"/>
                  <code value="vital-signs"/>
                  <display value="Vital Signs"/>
               </coding>
            </category>
            <code>
               <coding>
                  <system value="http://loinc.org"/>
                  <code value="$72514-3"/>
                  <display value="Pain severity - 0-10 verbal numeric rating [Score] - Reported"/>
               </coding>
            </code>
            <subject>
               <reference value="urn:uuid:5d4dc357-a124-44c9-bc59-36a5f33bfe3b"/>
               <display value="Khalid Nilsson"/>
            </subject>
            <effectiveDateTime value="2023-09-25"/>
            <valueQuantity>
               <value value="1"/>
               <unit value="{score}"/>
               <code value="{score}"/>
            </valueQuantity>
         </Observation>
      </resource>
   </entry>
   <entry>
      <fullUrl value="urn:uuid:97db9fea-ff20-4340-8329-98efe601a816"/>
      <resource>
         <Observation>
            <id value="97db9fea-ff20-4340-8329-98efe601a816"/>
            <meta>
               <profile value="http://hl7.org/fhir/StructureDefinition/vitalsigns"/>
            </meta>
            <text>
               <status value="generated"/>
               <div xmlns="http://www.w3.org/1999/xhtml">
                  <table class="hl7__ips">
                     <tr>
                        <th>Vital Sign</th>
                        <th>Date</th>
                        <th>Measurement</th>
                     </tr>
                     <tr>
                        <td>Body Weight</td>
                        <td>25-Sep-2023</td>
                        <td>89.4 kg</td>
                     </tr>
                  </table>
               </div>
            </text>
            <status value="final"/>
            <category>
               <coding>
                  <system value="http://terminology.hl7.org/CodeSystem/observation-category"/>
                  <code value="vital-signs"/>
                  <display value="Vital Signs"/>
               </coding>
            </category>
            <code>
               <coding>
                  <system value="http://loinc.org"/>
                  <code value="$29463-7"/>
                  <display value="Body Weight"/>
               </coding>
            </code>
            <subject>
               <reference value="urn:uuid:5d4dc357-a124-44c9-bc59-36a5f33bfe3b"/>
               <display value="Khalid Nilsson"/>
            </subject>
            <effectiveDateTime value="2023-09-25"/>
            <valueQuantity>
               <value value="89.4"/>
               <unit value="kg"/>
               <code value="kg"/>
            </valueQuantity>
         </Observation>
      </resource>
   </entry>
   <entry>
      <fullUrl value="urn:uuid:4491d634-f29d-4fa7-a9e6-26eb19bc5d8d"/>
      <resource>
         <Observation>
            <id value="4491d634-f29d-4fa7-a9e6-26eb19bc5d8d"/>
            <meta>
               <profile value="http://hl7.org/fhir/StructureDefinition/vitalsigns"/>
            </meta>
            <text>
               <status value="generated"/>
               <div xmlns="http://www.w3.org/1999/xhtml">
                  <table class="hl7__ips">
                     <tr>
                        <th>Vital Sign</th>
                        <th>Date</th>
                        <th>Measurement</th>
                     </tr>
                     <tr>
                        <td>Body mass index (BMI) [Ratio]</td>
                        <td>25-Sep-2023</td>
                        <td>30.4 kg/m2</td>
                     </tr>
                  </table>
               </div>
            </text>
            <status value="final"/>
            <category>
               <coding>
                  <system value="http://terminology.hl7.org/CodeSystem/observation-category"/>
                  <code value="vital-signs"/>
                  <display value="Vital Signs"/>
               </coding>
            </category>
            <code>
               <coding>
                  <system value="http://loinc.org"/>
                  <code value="$39156-5"/>
                  <display value="Body mass index (BMI) [Ratio]"/>
               </coding>
            </code>
            <subject>
               <reference value="urn:uuid:5d4dc357-a124-44c9-bc59-36a5f33bfe3b"/>
               <display value="Khalid Nilsson"/>
            </subject>
            <effectiveDateTime value="2023-09-25"/>
            <valueQuantity>
               <value value="30.4"/>
               <unit value="kg/m2"/>
               <code value="kg/m2"/>
            </valueQuantity>
         </Observation>
      </resource>
   </entry>
   <entry>
      <fullUrl value="urn:uuid:783e6035-639d-4066-81b2-e143c85cd707"/>
      <resource>
         <Observation>
            <id value="783e6035-639d-4066-81b2-e143c85cd707"/>
            <meta>
               <profile value="http://hl7.org/fhir/StructureDefinition/vitalsigns"/>
            </meta>
            <text>
               <status value="generated"/>
               <div xmlns="http://www.w3.org/1999/xhtml">
                  <table class="hl7__ips">
                     <tr>
                        <th>Vital Sign</th>
                        <th>Date</th>
                        <th>Measurement</th>
                     </tr>
                     <tr>
                        <td>Diastolic Blood Pressure</td>
                        <td>25-Sep-2023</td>
                        <td>61 mm[Hg]</td>
                     </tr>
                  </table>
               </div>
            </text>
            <status value="final"/>
            <category>
               <coding>
                  <system value="http://terminology.hl7.org/CodeSystem/observation-category"/>
                  <code value="vital-signs"/>
                  <display value="Vital Signs"/>
               </coding>
            </category>
            <code>
               <coding>
                  <system value="http://loinc.org"/>
                  <code value="$8462-4"/>
                  <display value="Diastolic Blood Pressure"/>
               </coding>
            </code>
            <subject>
               <reference value="urn:uuid:5d4dc357-a124-44c9-bc59-36a5f33bfe3b"/>
               <display value="Khalid Nilsson"/>
            </subject>
            <effectiveDateTime value="2023-09-25"/>
            <valueQuantity>
               <value value="61"/>
               <unit value="mm[Hg]"/>
               <code value="mm[Hg]"/>
            </valueQuantity>
         </Observation>
      </resource>
   </entry>
   <entry>
      <fullUrl value="urn:uuid:51dc3f80-1abd-4efe-b64c-be8185207973"/>
      <resource>
         <Observation>
            <id value="51dc3f80-1abd-4efe-b64c-be8185207973"/>
            <meta>
               <profile value="http://hl7.org/fhir/StructureDefinition/vitalsigns"/>
            </meta>
            <text>
               <status value="generated"/>
               <div xmlns="http://www.w3.org/1999/xhtml">
                  <table class="hl7__ips">
                     <tr>
                        <th>Vital Sign</th>
                        <th>Date</th>
                        <th>Measurement</th>
                     </tr>
                     <tr>
                        <td>Systolic Blood Pressure</td>
                        <td>25-Sep-2023</td>
                        <td>109 mm[Hg]</td>
                     </tr>
                  </table>
               </div>
            </text>
            <status value="final"/>
            <category>
               <coding>
                  <system value="http://terminology.hl7.org/CodeSystem/observation-category"/>
                  <code value="vital-signs"/>
                  <display value="Vital Signs"/>
               </coding>
            </category>
            <code>
               <coding>
                  <system value="http://loinc.org"/>
                  <code value="$8480-6"/>
                  <display value="Systolic Blood Pressure"/>
               </coding>
            </code>
            <subject>
               <reference value="urn:uuid:5d4dc357-a124-44c9-bc59-36a5f33bfe3b"/>
               <display value="Khalid Nilsson"/>
            </subject>
            <effectiveDateTime value="2023-09-25"/>
            <valueQuantity>
               <value value="109"/>
               <unit value="mm[Hg]"/>
               <code value="mm[Hg]"/>
            </valueQuantity>
         </Observation>
      </resource>
   </entry>
   <entry>
      <fullUrl value="urn:uuid:c5ab3f2c-c0ac-4ef8-826f-6d4f360dce41"/>
      <resource>
         <Observation>
            <id value="c5ab3f2c-c0ac-4ef8-826f-6d4f360dce41"/>
            <meta>
               <profile value="http://hl7.org/fhir/StructureDefinition/vitalsigns"/>
            </meta>
            <text>
               <status value="generated"/>
               <div xmlns="http://www.w3.org/1999/xhtml">
                  <table class="hl7__ips">
                     <tr>
                        <th>Vital Sign</th>
                        <th>Date</th>
                        <th>Measurement</th>
                     </tr>
                     <tr>
                        <td>Heart rate</td>
                        <td>25-Sep-2023</td>
                        <td>61 /min</td>
                     </tr>
                  </table>
               </div>
            </text>
            <status value="final"/>
            <category>
               <coding>
                  <system value="http://terminology.hl7.org/CodeSystem/observation-category"/>
                  <code value="vital-signs"/>
                  <display value="Vital Signs"/>
               </coding>
            </category>
            <code>
               <coding>
                  <system value="http://loinc.org"/>
                  <code value="$8867-4"/>
                  <display value="Heart rate"/>
               </coding>
            </code>
            <subject>
               <reference value="urn:uuid:5d4dc357-a124-44c9-bc59-36a5f33bfe3b"/>
               <display value="Khalid Nilsson"/>
            </subject>
            <effectiveDateTime value="2023-09-25"/>
            <valueQuantity>
               <value value="61"/>
               <unit value="/min"/>
               <code value="/min"/>
            </valueQuantity>
         </Observation>
      </resource>
   </entry>
   <entry>
      <fullUrl value="urn:uuid:da36a0b9-8346-4c06-8141-37491f15e293"/>
      <resource>
         <Observation>
            <id value="da36a0b9-8346-4c06-8141-37491f15e293"/>
            <meta>
               <profile value="http://hl7.org/fhir/StructureDefinition/vitalsigns"/>
            </meta>
            <text>
               <status value="generated"/>
               <div xmlns="http://www.w3.org/1999/xhtml">
                  <table class="hl7__ips">
                     <tr>
                        <th>Vital Sign</th>
                        <th>Date</th>
                        <th>Measurement</th>
                     </tr>
                     <tr>
                        <td>Respiratory rate</td>
                        <td>25-Sep-2023</td>
                        <td>13 /min</td>
                     </tr>
                  </table>
               </div>
            </text>
            <status value="final"/>
            <category>
               <coding>
                  <system value="http://terminology.hl7.org/CodeSystem/observation-category"/>
                  <code value="vital-signs"/>
                  <display value="Vital Signs"/>
               </coding>
            </category>
            <code>
               <coding>
                  <system value="http://loinc.org"/>
                  <code value="$9279-1"/>
                  <display value="Respiratory rate"/>
               </coding>
            </code>
            <subject>
               <reference value="urn:uuid:5d4dc357-a124-44c9-bc59-36a5f33bfe3b"/>
               <display value="Khalid Nilsson"/>
            </subject>
            <effectiveDateTime value="2023-09-25"/>
            <valueQuantity>
               <value value="13"/>
               <unit value="/min"/>
               <code value="/min"/>
            </valueQuantity>
         </Observation>
      </resource>
   </entry>
   <entry>
      <fullUrl value="urn:uuid:223ef8a5-1fb3-4bb1-98df-d9fd2f962975"/>
      <resource>
         <Observation>
            <id value="223ef8a5-1fb3-4bb1-98df-d9fd2f962975"/>
            <meta>
               <profile value="http://hl7.eu/fhir/laboratory/StructureDefinition/Observation-resultslab-eu-lab"/>
            </meta>
            <text>
               <status value="generated"/>
               <div xmlns="http://www.w3.org/1999/xhtml">
                  <table class="hl7__eu__lab__report">
                     <tr>
                        <th>Test</th>
                        <th>01-Oct-2024</th>
                        <th>Reference Range</th>
                        <th>Unit</th>
                     </tr>
                     <tr>
                        <td>Hemoglobin A1c/Hemoglobin.total in Blood</td>
                        <td>6.2</td>
                        <td>4.5 - 6.4</td>
                        <td/>
                        <td>%</td>
                     </tr>
                  </table>
               </div>
            </text>
            <status value="final"/>
            <category>
               <coding>
                  <system value="http://terminology.hl7.org/CodeSystem/observation-category"/>
                  <code value="laboratory"/>
               </coding>
            </category>
            <code>
               <coding>
                  <system value="http://loinc.org"/>
                  <code value="4548-4"/>
                  <display value="Hemoglobin A1c/Hemoglobin.total in Blood"/>
               </coding>
               <text value="Hemoglobin A1c/Hemoglobin.total in Blood"/>
            </code>
            <subject>
               <reference value="urn:uuid:5d4dc357-a124-44c9-bc59-36a5f33bfe3b"/>
               <display value="Khalid Nilsson"/>
            </subject>
            <effectiveDateTime value="2024-09-30T23:04:23Z"/>
            <performer>
               <display value="The Central European Lab"/>
            </performer>
            <valueQuantity>
               <value value="6.2"/>
               <unit value="%"/>
               <system value="http://unitsofmeasure.org"/>
               <code value="%"/>
            </valueQuantity>
            <referenceRange>
               <low>
                  <value value="4.5"/>
                  <system value="http://unitsofmeasure.org"/>
                  <code value="%"/>
               </low>
            </referenceRange>
            <referenceRange>
               <high>
                  <value value="6.4"/>
                  <system value="http://unitsofmeasure.org"/>
                  <code value="%"/>
               </high>
            </referenceRange>
         </Observation>
      </resource>
   </entry>
   <entry>
      <fullUrl value="urn:uuid:39b462d0-e20b-4b1b-9043-b4f9cde47c8a"/>
      <resource>
         <Observation>
            <id value="39b462d0-e20b-4b1b-9043-b4f9cde47c8a"/>
            <meta>
               <profile value="http://hl7.eu/fhir/laboratory/StructureDefinition/Observation-resultslab-eu-lab"/>
            </meta>
            <text>
               <status value="generated"/>
               <div xmlns="http://www.w3.org/1999/xhtml">
                  <table class="hl7__eu__lab__report">
                     <tr>
                        <th>Test</th>
                        <th>01-Oct-2024</th>
                        <th>Reference Range</th>
                        <th>Unit</th>
                     </tr>
                     <tr>
                        <td>Glucose [Mass/volume] in Blood</td>
                        <td>84.0</td>
                        <td>70 - 99</td>
                        <td/>
                        <td>mg/dL</td>
                     </tr>
                  </table>
               </div>
            </text>
            <status value="final"/>
            <category>
               <coding>
                  <system value="http://terminology.hl7.org/CodeSystem/observation-category"/>
                  <code value="laboratory"/>
               </coding>
            </category>
            <code>
               <coding>
                  <system value="http://loinc.org"/>
                  <code value="2339-0"/>
                  <display value="Glucose [Mass/volume] in Blood"/>
               </coding>
               <text value="Glucose [Mass/volume] in Blood"/>
            </code>
            <subject>
               <reference value="urn:uuid:5d4dc357-a124-44c9-bc59-36a5f33bfe3b"/>
               <display value="Khalid Nilsson"/>
            </subject>
            <effectiveDateTime value="2024-09-30T23:04:23Z"/>
            <performer>
               <display value="The Central European Lab"/>
            </performer>
            <valueQuantity>
               <value value="84"/>
               <unit value="mg/dL"/>
               <system value="http://unitsofmeasure.org"/>
               <code value="mg/dL"/>
            </valueQuantity>
            <referenceRange>
               <low>
                  <value value="70"/>
                  <system value="http://unitsofmeasure.org"/>
                  <code value="mg/dL"/>
               </low>
            </referenceRange>
            <referenceRange>
               <high>
                  <value value="99"/>
                  <system value="http://unitsofmeasure.org"/>
                  <code value="mg/dL"/>
               </high>
            </referenceRange>
         </Observation>
      </resource>
   </entry>
   <entry>
      <fullUrl value="urn:uuid:2d68effe-eb4f-4652-b5d7-84091e388ac9"/>
      <resource>
         <Observation>
            <id value="2d68effe-eb4f-4652-b5d7-84091e388ac9"/>
            <meta>
               <profile value="http://hl7.eu/fhir/laboratory/StructureDefinition/Observation-resultslab-eu-lab"/>
            </meta>
            <text>
               <status value="generated"/>
               <div xmlns="http://www.w3.org/1999/xhtml">
                  <table class="hl7__eu__lab__report">
                     <tr>
                        <th>Test</th>
                        <th>01-Oct-2024</th>
                        <th>Reference Range</th>
                        <th>Unit</th>
                     </tr>
                     <tr>
                        <td>Urea nitrogen [Mass/volume] in Blood</td>
                        <td>7.9</td>
                        <td>7 - 20</td>
                        <td/>
                        <td>mg/dL</td>
                     </tr>
                  </table>
               </div>
            </text>
            <status value="final"/>
            <category>
               <coding>
                  <system value="http://terminology.hl7.org/CodeSystem/observation-category"/>
                  <code value="laboratory"/>
               </coding>
            </category>
            <code>
               <coding>
                  <system value="http://loinc.org"/>
                  <code value="6299-2"/>
                  <display value="Urea nitrogen [Mass/volume] in Blood"/>
               </coding>
               <text value="Urea nitrogen [Mass/volume] in Blood"/>
            </code>
            <subject>
               <reference value="urn:uuid:5d4dc357-a124-44c9-bc59-36a5f33bfe3b"/>
               <display value="Khalid Nilsson"/>
            </subject>
            <effectiveDateTime value="2024-09-30T23:04:23Z"/>
            <performer>
               <display value="The Central European Lab"/>
            </performer>
            <valueQuantity>
               <value value="7.9"/>
               <unit value="mg/dL"/>
               <system value="http://unitsofmeasure.org"/>
               <code value="mg/dL"/>
            </valueQuantity>
            <referenceRange>
               <low>
                  <value value="7"/>
                  <system value="http://unitsofmeasure.org"/>
                  <code value="mg/dL"/>
               </low>
            </referenceRange>
            <referenceRange>
               <high>
                  <value value="20"/>
                  <system value="http://unitsofmeasure.org"/>
                  <code value="mg/dL"/>
               </high>
            </referenceRange>
         </Observation>
      </resource>
   </entry>
   <entry>
      <fullUrl value="urn:uuid:e642b8ce-e5d1-4636-a4a4-3d280596136e"/>
      <resource>
         <Observation>
            <id value="e642b8ce-e5d1-4636-a4a4-3d280596136e"/>
            <meta>
               <profile value="http://hl7.eu/fhir/laboratory/StructureDefinition/Observation-resultslab-eu-lab"/>
            </meta>
            <text>
               <status value="generated"/>
               <div xmlns="http://www.w3.org/1999/xhtml">
                  <table class="hl7__eu__lab__report">
                     <tr>
                        <th>Test</th>
                        <th>01-Oct-2024</th>
                        <th>Reference Range</th>
                        <th>Unit</th>
                     </tr>
                     <tr>
                        <td>Creatinine [Mass/volume] in Blood</td>
                        <td>0.9</td>
                        <td>0.9 - 1.3</td>
                        <td/>
                        <td>mg/dL</td>
                     </tr>
                  </table>
               </div>
            </text>
            <status value="final"/>
            <category>
               <coding>
                  <system value="http://terminology.hl7.org/CodeSystem/observation-category"/>
                  <code value="laboratory"/>
               </coding>
            </category>
            <code>
               <coding>
                  <system value="http://loinc.org"/>
                  <code value="38483-4"/>
                  <display value="Creatinine [Mass/volume] in Blood"/>
               </coding>
               <text value="Creatinine [Mass/volume] in Blood"/>
            </code>
            <subject>
               <reference value="urn:uuid:5d4dc357-a124-44c9-bc59-36a5f33bfe3b"/>
               <display value="Khalid Nilsson"/>
            </subject>
            <effectiveDateTime value="2024-09-30T23:04:23Z"/>
            <performer>
               <display value="The Central European Lab"/>
            </performer>
            <valueQuantity>
               <value value="0.9"/>
               <unit value="mg/dL"/>
               <system value="http://unitsofmeasure.org"/>
               <code value="mg/dL"/>
            </valueQuantity>
            <referenceRange>
               <low>
                  <value value="0.9"/>
                  <system value="http://unitsofmeasure.org"/>
                  <code value="mg/dL"/>
               </low>
            </referenceRange>
            <referenceRange>
               <high>
                  <value value="1.3"/>
                  <system value="http://unitsofmeasure.org"/>
                  <code value="mg/dL"/>
               </high>
            </referenceRange>
         </Observation>
      </resource>
   </entry>
   <entry>
      <fullUrl value="urn:uuid:adfa0ad2-09c4-445a-b588-3466262fe377"/>
      <resource>
         <Observation>
            <id value="adfa0ad2-09c4-445a-b588-3466262fe377"/>
            <meta>
               <profile value="http://hl7.eu/fhir/laboratory/StructureDefinition/Observation-resultslab-eu-lab"/>
            </meta>
            <text>
               <status value="generated"/>
               <div xmlns="http://www.w3.org/1999/xhtml">
                  <table class="hl7__eu__lab__report">
                     <tr>
                        <th>Test</th>
                        <th>01-Oct-2024</th>
                        <th>Reference Range</th>
                        <th>Unit</th>
                     </tr>
                     <tr>
                        <td>Calcium [Mass/volume] in Blood</td>
                        <td>9.3</td>
                        <td>8.6 - 10.2</td>
                        <td/>
                        <td>mg/dL</td>
                     </tr>
                  </table>
               </div>
            </text>
            <status value="final"/>
            <category>
               <coding>
                  <system value="http://terminology.hl7.org/CodeSystem/observation-category"/>
                  <code value="laboratory"/>
               </coding>
            </category>
            <code>
               <coding>
                  <system value="http://loinc.org"/>
                  <code value="49765-1"/>
                  <display value="Calcium [Mass/volume] in Blood"/>
               </coding>
               <text value="Calcium [Mass/volume] in Blood"/>
            </code>
            <subject>
               <reference value="urn:uuid:5d4dc357-a124-44c9-bc59-36a5f33bfe3b"/>
               <display value="Khalid Nilsson"/>
            </subject>
            <effectiveDateTime value="2024-09-30T23:04:23Z"/>
            <performer>
               <display value="The Central European Lab"/>
            </performer>
            <valueQuantity>
               <value value="9.3"/>
               <unit value="mg/dL"/>
               <system value="http://unitsofmeasure.org"/>
               <code value="mg/dL"/>
            </valueQuantity>
            <referenceRange>
               <low>
                  <value value="8.6"/>
                  <system value="http://unitsofmeasure.org"/>
                  <code value="mg/dL"/>
               </low>
            </referenceRange>
            <referenceRange>
               <high>
                  <value value="10.2"/>
                  <system value="http://unitsofmeasure.org"/>
                  <code value="mg/dL"/>
               </high>
            </referenceRange>
         </Observation>
      </resource>
   </entry>
   <entry>
      <fullUrl value="urn:uuid:02af9394-8d2d-46b5-a05e-cd59c43a53fa"/>
      <resource>
         <Observation>
            <id value="02af9394-8d2d-46b5-a05e-cd59c43a53fa"/>
            <meta>
               <profile value="http://hl7.eu/fhir/laboratory/StructureDefinition/Observation-resultslab-eu-lab"/>
            </meta>
            <text>
               <status value="generated"/>
               <div xmlns="http://www.w3.org/1999/xhtml">
                  <table class="hl7__eu__lab__report">
                     <tr>
                        <th>Test</th>
                        <th>01-Oct-2024</th>
                        <th>Reference Range</th>
                        <th>Unit</th>
                     </tr>
                     <tr>
                        <td>Sodium [Moles/volume] in Blood</td>
                        <td>140.1</td>
                        <td>135 - 145</td>
                        <td/>
                        <td>mmol/L</td>
                     </tr>
                  </table>
               </div>
            </text>
            <status value="final"/>
            <category>
               <coding>
                  <system value="http://terminology.hl7.org/CodeSystem/observation-category"/>
                  <code value="laboratory"/>
               </coding>
            </category>
            <code>
               <coding>
                  <system value="http://loinc.org"/>
                  <code value="2947-0"/>
                  <display value="Sodium [Moles/volume] in Blood"/>
               </coding>
               <text value="Sodium [Moles/volume] in Blood"/>
            </code>
            <subject>
               <reference value="urn:uuid:5d4dc357-a124-44c9-bc59-36a5f33bfe3b"/>
               <display value="Khalid Nilsson"/>
            </subject>
            <effectiveDateTime value="2024-09-30T23:04:23Z"/>
            <performer>
               <display value="The Central European Lab"/>
            </performer>
            <valueQuantity>
               <value value="140.1"/>
               <unit value="mmol/L"/>
               <system value="http://unitsofmeasure.org"/>
               <code value="mmol/L"/>
            </valueQuantity>
            <referenceRange>
               <low>
                  <value value="135"/>
                  <system value="http://unitsofmeasure.org"/>
                  <code value="mmol/L"/>
               </low>
            </referenceRange>
            <referenceRange>
               <high>
                  <value value="145"/>
                  <system value="http://unitsofmeasure.org"/>
                  <code value="mmol/L"/>
               </high>
            </referenceRange>
         </Observation>
      </resource>
   </entry>
   <entry>
      <fullUrl value="urn:uuid:7086206e-b631-489f-9cf7-e0fe7a1559f9"/>
      <resource>
         <Observation>
            <id value="7086206e-b631-489f-9cf7-e0fe7a1559f9"/>
            <meta>
               <profile value="http://hl7.eu/fhir/laboratory/StructureDefinition/Observation-resultslab-eu-lab"/>
            </meta>
            <text>
               <status value="generated"/>
               <div xmlns="http://www.w3.org/1999/xhtml">
                  <table class="hl7__eu__lab__report">
                     <tr>
                        <th>Test</th>
                        <th>01-Oct-2024</th>
                        <th>Reference Range</th>
                        <th>Unit</th>
                     </tr>
                     <tr>
                        <td>Potassium [Moles/volume] in Blood</td>
                        <td>4.3</td>
                        <td>3.5 - 5.1</td>
                        <td/>
                        <td>mmol/L</td>
                     </tr>
                  </table>
               </div>
            </text>
            <status value="final"/>
            <category>
               <coding>
                  <system value="http://terminology.hl7.org/CodeSystem/observation-category"/>
                  <code value="laboratory"/>
               </coding>
            </category>
            <code>
               <coding>
                  <system value="http://loinc.org"/>
                  <code value="6298-4"/>
                  <display value="Potassium [Moles/volume] in Blood"/>
               </coding>
               <text value="Potassium [Moles/volume] in Blood"/>
            </code>
            <subject>
               <reference value="urn:uuid:5d4dc357-a124-44c9-bc59-36a5f33bfe3b"/>
               <display value="Khalid Nilsson"/>
            </subject>
            <effectiveDateTime value="2024-09-30T23:04:23Z"/>
            <performer>
               <display value="The Central European Lab"/>
            </performer>
            <valueQuantity>
               <value value="4.3"/>
               <unit value="mmol/L"/>
               <system value="http://unitsofmeasure.org"/>
               <code value="mmol/L"/>
            </valueQuantity>
            <referenceRange>
               <low>
                  <value value="3.5"/>
                  <system value="http://unitsofmeasure.org"/>
                  <code value="mmol/L"/>
               </low>
            </referenceRange>
            <referenceRange>
               <high>
                  <value value="5.1"/>
                  <system value="http://unitsofmeasure.org"/>
                  <code value="mmol/L"/>
               </high>
            </referenceRange>
         </Observation>
      </resource>
   </entry>
   <entry>
      <fullUrl value="urn:uuid:7a0735eb-583c-4406-92e7-47f24eef6fc1"/>
      <resource>
         <Observation>
            <id value="7a0735eb-583c-4406-92e7-47f24eef6fc1"/>
            <meta>
               <profile value="http://hl7.eu/fhir/laboratory/StructureDefinition/Observation-resultslab-eu-lab"/>
            </meta>
            <text>
               <status value="generated"/>
               <div xmlns="http://www.w3.org/1999/xhtml">
                  <table class="hl7__eu__lab__report">
                     <tr>
                        <th>Test</th>
                        <th>01-Oct-2024</th>
                        <th>Reference Range</th>
                        <th>Unit</th>
                     </tr>
                     <tr>
                        <td>Chloride [Moles/volume] in Blood</td>
                        <td>104.3</td>
                        <td>98 - 108</td>
                        <td/>
                        <td>mmol/L</td>
                     </tr>
                  </table>
               </div>
            </text>
            <status value="final"/>
            <category>
               <coding>
                  <system value="http://terminology.hl7.org/CodeSystem/observation-category"/>
                  <code value="laboratory"/>
               </coding>
            </category>
            <code>
               <coding>
                  <system value="http://loinc.org"/>
                  <code value="2069-3"/>
                  <display value="Chloride [Moles/volume] in Blood"/>
               </coding>
               <text value="Chloride [Moles/volume] in Blood"/>
            </code>
            <subject>
               <reference value="urn:uuid:5d4dc357-a124-44c9-bc59-36a5f33bfe3b"/>
               <display value="Khalid Nilsson"/>
            </subject>
            <effectiveDateTime value="2024-09-30T23:04:23Z"/>
            <performer>
               <display value="The Central European Lab"/>
            </performer>
            <valueQuantity>
               <value value="104.3"/>
               <unit value="mmol/L"/>
               <system value="http://unitsofmeasure.org"/>
               <code value="mmol/L"/>
            </valueQuantity>
            <referenceRange>
               <low>
                  <value value="98"/>
                  <system value="http://unitsofmeasure.org"/>
                  <code value="mmol/L"/>
               </low>
            </referenceRange>
            <referenceRange>
               <high>
                  <value value="108"/>
                  <system value="http://unitsofmeasure.org"/>
                  <code value="mmol/L"/>
               </high>
            </referenceRange>
         </Observation>
      </resource>
   </entry>
   <entry>
      <fullUrl value="urn:uuid:03d0e636-0a42-4adb-91c7-825ac4252d17"/>
      <resource>
         <Observation>
            <id value="03d0e636-0a42-4adb-91c7-825ac4252d17"/>
            <meta>
               <profile value="http://hl7.eu/fhir/laboratory/StructureDefinition/Observation-resultslab-eu-lab"/>
            </meta>
            <text>
               <status value="generated"/>
               <div xmlns="http://www.w3.org/1999/xhtml">
                  <table class="hl7__eu__lab__report">
                     <tr>
                        <th>Test</th>
                        <th>01-Oct-2024</th>
                        <th>Reference Range</th>
                        <th>Unit</th>
                     </tr>
                     <tr>
                        <td>Carbon dioxide, total [Moles/volume] in Blood</td>
                        <td>20.8</td>
                        <td>22 - 29</td>
                        <td>L</td>
                        <td>mmol/L</td>
                     </tr>
                  </table>
               </div>
            </text>
            <status value="final"/>
            <category>
               <coding>
                  <system value="http://terminology.hl7.org/CodeSystem/observation-category"/>
                  <code value="laboratory"/>
               </coding>
            </category>
            <code>
               <coding>
                  <system value="http://loinc.org"/>
                  <code value="20565-8"/>
                  <display value="Carbon dioxide, total [Moles/volume] in Blood"/>
               </coding>
               <text value="Carbon dioxide, total [Moles/volume] in Blood"/>
            </code>
            <subject>
               <reference value="urn:uuid:5d4dc357-a124-44c9-bc59-36a5f33bfe3b"/>
               <display value="Khalid Nilsson"/>
            </subject>
            <effectiveDateTime value="2024-09-30T23:04:23Z"/>
            <performer>
               <display value="The Central European Lab"/>
            </performer>
            <valueQuantity>
               <value value="20.8"/>
               <unit value="mmol/L"/>
               <system value="http://unitsofmeasure.org"/>
               <code value="mmol/L"/>
            </valueQuantity>
            <interpretation>
               <coding>
                  <system value="http://terminology.hl7.org/CodeSystem/v3-ObservationInterpretation"/>
                  <code value="L"/>
                  <display value="Low"/>
               </coding>
            </interpretation>
            <referenceRange>
               <low>
                  <value value="22"/>
                  <system value="http://unitsofmeasure.org"/>
                  <code value="mmol/L"/>
               </low>
            </referenceRange>
            <referenceRange>
               <high>
                  <value value="29"/>
                  <system value="http://unitsofmeasure.org"/>
                  <code value="mmol/L"/>
               </high>
            </referenceRange>
         </Observation>
      </resource>
   </entry>
   <entry>
      <fullUrl value="urn:uuid:91495023-2599-4484-9431-63cd68242cd7"/>
      <resource>
         <DeviceUseStatement>
            <id value="91495023-2599-4484-9431-63cd68242cd7"/>
            <meta>
               <profile value="http://hl7.eu/fhir/eps/StructureDefinition/deviceUseStatement-eu-eps"/>
            </meta>
            <text>
               <status value="generated"/>
               <div xmlns="http://www.w3.org/1999/xhtml">
                  <table class="hl7__ips">
                     <tr>
                        <td>Home nebulizer (physical object)</td>
                        <td>
                           <span class="nb">22-Oct-1985</span>
                        </td>
                     </tr>
                  </table>
               </div>
            </text>
            <status value="active"/>
            <subject>
               <reference value="urn:uuid:5d4dc357-a124-44c9-bc59-36a5f33bfe3b"/>
               <display value="Khalid Nilsson"/>
            </subject>
            <timingPeriod>
               <start value="1985-10-22"/>
            </timingPeriod>
            <device>
               <reference value="urn:uuid:af8aa02d-1dfe-41b2-bacf-f8776fe5eecd"/>
               <display value="Home nebulizer (physical object)"/>
            </device>
         </DeviceUseStatement>
      </resource>
   </entry>
   <entry>
      <fullUrl value="urn:uuid:af8aa02d-1dfe-41b2-bacf-f8776fe5eecd"/>
      <resource>
         <Device>
            <id value="af8aa02d-1dfe-41b2-bacf-f8776fe5eecd"/>
            <meta>
               <profile value="http://hl7.eu/fhir/eps/StructureDefinition/device-eu-eps"/>
            </meta>
            <udiCarrier id="(01)12992241366142(11)851001(17)101016(10)62905665(21)205426860812819"/>
            <status value="active"/>
            <type>
               <coding>
                  <system value="http://snomed.info/sct"/>
                  <code value="170615005"/>
                  <display value="Home nebulizer (physical object)"/>
               </coding>
            </type>
            <patient>
               <reference value="urn:uuid:5d4dc357-a124-44c9-bc59-36a5f33bfe3b"/>
               <display value="Khalid Nilsson"/>
            </patient>
         </Device>
      </resource>
   </entry>
   <entry>
      <fullUrl value="urn:uuid:3872d1cb-68ff-4f6c-9b0a-1231b382defb"/>
      <resource>
         <DeviceUseStatement>
            <id value="3872d1cb-68ff-4f6c-9b0a-1231b382defb"/>
            <meta>
               <profile value="http://hl7.eu/fhir/eps/StructureDefinition/deviceUseStatement-eu-eps"/>
            </meta>
            <text>
               <status value="generated"/>
               <div xmlns="http://www.w3.org/1999/xhtml">
                  <table class="hl7__ips">
                     <tr>
                        <td>Blood glucose meter (physical object)</td>
                        <td>
                           <span class="nb">09-Jul-1973</span>
                        </td>
                     </tr>
                  </table>
               </div>
            </text>
            <status value="active"/>
            <subject>
               <reference value="urn:uuid:5d4dc357-a124-44c9-bc59-36a5f33bfe3b"/>
               <display value="Khalid Nilsson"/>
            </subject>
            <timingPeriod>
               <start value="1973-07-09"/>
            </timingPeriod>
            <device>
               <reference value="urn:uuid:d847ca38-3f8a-4225-9858-cfbb98fd7376"/>
               <display value="Blood glucose meter (physical object)"/>
            </device>
         </DeviceUseStatement>
      </resource>
   </entry>
   <entry>
      <fullUrl value="urn:uuid:d847ca38-3f8a-4225-9858-cfbb98fd7376"/>
      <resource>
         <Device>
            <id value="d847ca38-3f8a-4225-9858-cfbb98fd7376"/>
            <meta>
               <profile value="http://hl7.eu/fhir/eps/StructureDefinition/device-eu-eps"/>
            </meta>
            <udiCarrier id="(01)40131624648302(11)730619(17)980704(10)452435623(21)4594442144383605"/>
            <status value="active"/>
            <type>
               <coding>
                  <system value="http://snomed.info/sct"/>
                  <code value="337414009"/>
                  <display value="Blood glucose meter (physical object)"/>
               </coding>
            </type>
            <patient>
               <reference value="urn:uuid:5d4dc357-a124-44c9-bc59-36a5f33bfe3b"/>
               <display value="Khalid Nilsson"/>
            </patient>
         </Device>
      </resource>
   </entry>
   <entry>
      <fullUrl value="urn:uuid:2f41f998-22d7-4044-b802-6a2b76fb15b8"/>
      <resource>
         <Device>
            <id value="2f41f998-22d7-4044-b802-6a2b76fb15b8"/>
            <text>
               <status value="generated"/>
               <div xmlns="http://www.w3.org/1999/xhtml">SYNDERAI Synthetic Generator v5.0</div>
            </text>
            <status value="active&#34;"/>
            <distinctIdentifier value="synderai-generator-50"/>
            <manufacturer value="SYNDERAI Project"/>
            <deviceName>
               <name value="SYNDERAI Synthetic Generator"/>
               <type value="manufacturer-name"/>
            </deviceName>
            <version>
               <value value="5.0"/>
            </version>
         </Device>
      </resource>
   </entry>
   <entry>
      <fullUrl value="urn:uuid:67866864-9d7a-4324-8875-067cff31d605"/>
      <resource>
         <Provenance>
            <id value="67866864-9d7a-4324-8875-067cff31d605"/>
            <text>
               <status value="generated"/>
               <div xmlns="http://www.w3.org/1999/xhtml">Provenance for SYNDERAI Synthetic Example Data Resource</div>
            </text>
            <target>
               <reference value="Patient/5d4dc357-a124-44c9-bc59-36a5f33bfe3b"/>
            </target>
            <target>
               <reference value="Bundle/fe15b42a-60e4-47d7-8840-ef7c412293ee"/>
            </target>
            <target>
               <reference value="Composition/9970dad8-f036-421a-b25f-efee9c4c91da"/>
            </target>
            <target>
               <reference value="PractitionerRole/c54be3ff-a24c-4fa4-a84f-fb6b39587620"/>
            </target>
            <target>
               <reference value="Organization/1723422e-2f4f-4ead-ae26-938ea328dcb8"/>
            </target>
            <target>
               <reference value="Practitioner/0107821c-2d07-4573-8408-46264f7406fe"/>
            </target>
            <recorded value="2024-09-30T23:04:23Z"/>
            <policy value="https://synderai.net/synderai-synthetic-data-policy"/>
            <reason>
               <text value="Interoperability Testing and Training (non-clinical use)"/>
            </reason>
            <activity>
               <text value="Synthetic Example Data Generation"/>
            </activity>
            <agent>
               <type>
                  <text value="author"/>
               </type>
               <who>
                  <reference value="Device/2f41f998-22d7-4044-b802-6a2b76fb15b8"/>
               </who>
            </agent>
         </Provenance>
      </resource>
   </entry>
</Bundle>