{
  "resourceType": "Bundle",
  "id": "e8e3ac30-405b-4226-8228-6fbd59f3ea7a",
  "meta": {
    "profile": [
      "http://hl7.eu/fhir/eps/StructureDefinition/bundle-eu-eps"
    ]
  },
  "identifier": {
    "assigner": {
      "display": "HL7 Europe"
    },
    "system": "urn:oid:2.16.840.1.113883.2.51.999",
    "value": "078ec049-4b81-4f4b-b449-227b683b4a23"
  },
  "entry": [
    {
      "fullUrl": "urn:uuid:1621d699-da37-40c0-9f16-cf856f3144f0",
      "resource": {
        "resourceType": "Composition",
        "id": "1621d699-da37-40c0-9f16-cf856f3144f0",
        "meta": {
          "security": [
            {
              "system": "http://terminology.hl7.org/CodeSystem/v3-ActReason",
              "code": "HTEST"
            },
            {
              "system": "http://terminology.hl7.org/CodeSystem/v3-ActReason",
              "code": "TRAIN"
            }
          ],
          "tag": [
            {
              "system": "https://synderai.net/fhir/CodeSystem/tags",
              "code": "synthetic",
              "display": "SYNDERAI Synthetic data"
            }
          ],
          "profile": [
            "http://hl7.eu/fhir/eps/StructureDefinition/composition-eu-eps"
          ]
        },
        "identifier": {
          "assigner": {
            "display": "HL7 Europe"
          },
          "system": "urn:oid:2.16.840.1.113883.2.51.999",
          "value": "45882d55-5df1-4c4f-bd22-13703645a1cd"
        },
        "type": {
          "coding": [
            {
              "system": "http://loinc.org",
              "code": "60591-5",
              "display": "Patient summary Document"
            }
          ],
          "text": "Patient summary Document"
        },
        "author": [
          {
            "reference": "urn:uuid:19ad5d7b-a0dc-44d8-9e95-149505ccf4f8"
          }
        ],
        "section": [
          {
            "text": {
              "status": "generated",
              "div": "<div xmlns=\"http://www.w3.org/1999/xhtml\"><table class=\"hl7__ips\"><tr><th>Condition</th><th>Onset Date</th><th>Status</th></tr><tr><td>Chronic congestive heart failure</td><td><span class=\"nb\">01-Jul-2024</span></td><td>active</td></tr><tr><td>Aortic valve stenosis</td><td><span class=\"nb\">09-May-2015</span></td><td>active</td></tr><tr><td>Ischemic heart disease</td><td><span class=\"nb\">20-Oct-2008</span></td><td>active</td></tr><tr><td>Osteoporosis</td><td><span class=\"nb\">04-Sep-2000</span></td><td>active</td></tr><tr><td>Dependent drug abuse</td><td><span class=\"nb\">22-Mar-1996</span></td><td>active</td></tr><tr><td>Hyperlipidemia</td><td><span class=\"nb\">01-Aug-1994</span></td><td>active</td></tr><tr><td>Obstructive sleep apnea syndrome</td><td><span class=\"nb\">26-May-1992</span></td><td>active</td></tr><tr><td>Sleep disorder</td><td><span class=\"nb\">14-May-1992</span></td><td>active</td></tr><tr><td>Acute non-ST segment elevation myocardial infarction</td><td><span class=\"nb\">30-Apr-1991</span></td><td>active</td></tr><tr><td>Chronic intractable migraine without aura</td><td><span class=\"nb\">09-Aug-1990</span></td><td>active</td></tr><tr><td>Impacted molars</td><td><span class=\"nb\">27-May-1990</span></td><td>active</td></tr><tr><td>Essential hypertension</td><td><span class=\"nb\">22-Jun-1987</span></td><td>active</td></tr><tr><td>Hyperglycemia</td><td><span class=\"nb\">22-Jun-1987</span></td><td>active</td></tr><tr><td>Metabolic syndrome X</td><td><span class=\"nb\">22-Jun-1987</span></td><td>active</td></tr><tr><td>Hypertriglyceridemia</td><td><span class=\"nb\">22-Jun-1987</span></td><td>active</td></tr><tr><td>Type 2 diabetes mellitus</td><td><span class=\"nb\">16-Jun-1986</span></td><td>active</td></tr><tr><td>Anemia</td><td><span class=\"nb\">21-Feb-1983</span></td><td>active</td></tr><tr><td>Prediabetes</td><td><span class=\"nb\">07-Jun-1982</span></td><td>active</td></tr></table></div>"
            },
            "entry": [
              {
                "reference": "urn:uuid:6951858b-4783-40d7-bba0-1cb402a563d0"
              },
              {
                "reference": "urn:uuid:86c74c3c-2ea6-4584-bfdb-376bb53a4b74"
              },
              {
                "reference": "urn:uuid:6698f17f-b451-427f-a0c6-9fc5661edcb0"
              },
              {
                "reference": "urn:uuid:2e2d7ef1-1f98-4c03-ad25-2db8fd84dcb5"
              },
              {
                "reference": "urn:uuid:4305a00e-ed3c-4aad-8b73-4173f114c8e9"
              },
              {
                "reference": "urn:uuid:75112d48-fa6f-4d87-bd22-6c83d56b3bd0"
              },
              {
                "reference": "urn:uuid:8222b652-8cc7-4cdf-a9ff-9f06c1a438ac"
              },
              {
                "reference": "urn:uuid:f433bfba-fd06-47cf-a163-8fd2c31c4474"
              },
              {
                "reference": "urn:uuid:ab8b92f8-ff1d-459f-9390-970d49826bd3"
              },
              {
                "reference": "urn:uuid:b1620fb3-2a75-4f9f-8459-11699e49d49b"
              },
              {
                "reference": "urn:uuid:c2624a89-3eac-42c8-bd3d-f9bccc8906be"
              },
              {
                "reference": "urn:uuid:e267a397-ace9-4f02-9dec-ee6646a48912"
              },
              {
                "reference": "urn:uuid:76d7e3ff-7dbd-4d12-a001-762a310364a9"
              },
              {
                "reference": "urn:uuid:35bb179c-20ef-423b-b062-bbd57f996762"
              },
              {
                "reference": "urn:uuid:619aa15e-d4a0-4b96-a042-d6e0e271bacb"
              },
              {
                "reference": "urn:uuid:13be18f2-072e-4662-9ea2-10017fd3fd1d"
              },
              {
                "reference": "urn:uuid:fd96687e-aea9-4e2f-94e6-a48ae232c11a"
              },
              {
                "reference": "urn:uuid:31c8bde1-9ffd-4e50-bbb1-6ab5938c3d5d"
              }
            ],
            "code": {
              "coding": [
                {
                  "system": "http://loinc.org",
                  "code": "11450-4",
                  "display": "Problem list - Reported"
                }
              ]
            },
            "title": "Problem list"
          },
          {
            "text": {
              "status": "generated",
              "div": "<div xmlns=\"http://www.w3.org/1999/xhtml\"><table class=\"hl7__ips\"><tr><th>Medication</th><th>Since</th><th>Form</th><th>Dosage</th><th>Reason</th></tr><tr><td>Carvedilol 25 mg oral tablet</td><td><span class=\"nb\">2025-05-19</span></td><td>-</td><td>1 tablet (25 mg) by mouth twice daily</td><td>Chronic congestive heart failure (disorder)</td></tr><tr><td>Amlodipine (as amlodipine besylate) 2.5 mg oral tablet</td><td><span class=\"nb\">2025-05-19</span></td><td>-</td><td>1 tablet (2.5 mg) by mouth once daily</td><td>Essential hypertension (disorder)</td></tr><tr><td>Hydrochlorothiazide 25 mg oral tablet</td><td><span class=\"nb\">2025-05-19</span></td><td>-</td><td>1 tablet (25 mg) by mouth once daily</td><td>Essential hypertension (disorder)</td></tr><tr><td>Furosemide 40 mg oral tablet</td><td><span class=\"nb\">2025-05-19</span></td><td>-</td><td>1 tablet (40 mg) by mouth once daily</td><td>Chronic congestive heart failure (disorder)</td></tr><tr><td>Lisinopril 20 mg oral tablet</td><td><span class=\"nb\">2025-05-19</span></td><td>-</td><td>1 tablet (20 mg) by mouth once daily</td><td>Chronic congestive heart failure (disorder)</td></tr><tr><td>Metformin hydrochloride 500 mg prolonged-release oral tablet</td><td><span class=\"nb\">2025-05-19</span></td><td>-</td><td>1 tablet (500 mg) once daily</td><td>Diabetes mellitus type 2 (disorder)</td></tr><tr><td>Alendronic acid (as alendronate sodium) 10 mg oral tablet</td><td><span class=\"nb\">2025-05-19</span></td><td>-</td><td>1 tablet (10 mg) once daily</td><td>Osteoporosis (disorder)</td></tr><tr><td>Simvastatin 10 mg oral tablet</td><td><span class=\"nb\">2025-02-03</span></td><td>-</td><td>1 tablet (10 mg) by mouth once daily</td><td>Hyperlipidemia</td></tr><tr><td>Clopidogrel (as clopidogrel bisulfate) 75 mg oral tablet</td><td><span class=\"nb\">2008-10-27</span></td><td>-</td><td>1 tablet (75 mg) once daily</td><td>-</td></tr><tr><td>Simvastatin 20 mg oral tablet</td><td><span class=\"nb\">2008-10-27</span></td><td>-</td><td>1 tablet (20 mg) once daily</td><td>-</td></tr><tr><td>Nitroglycerin 400 microgram/actuation sublingual spray</td><td><span class=\"nb\">2008-10-27</span></td><td>-</td><td>400 micrograms per spray, use 1 spray under the tongue as needed for chest pain, may repeat every 5 minutes as needed, up to 3 sprays in 15 minutes</td><td>-</td></tr><tr><td>Metoprolol tartrate (as metoprolol succinate) 100 mg prolonged-release oral tablet</td><td><span class=\"nb\">2008-10-27</span></td><td>-</td><td>1 tablet (100 mg) once daily</td><td>-</td></tr><tr><td>Aspirin 81 mg gastro-resistant oral tablet</td><td><span class=\"nb\">1991-05-02</span></td><td>-</td><td>1 tablet (81 mg) by mouth once daily</td><td>-</td></tr><tr><td>Atorvastatin (as atorvastatin calcium) 20 mg oral tablet</td><td><span class=\"nb\">1991-05-02</span></td><td>-</td><td>1 tablet (20 mg) by mouth once daily</td><td>-</td></tr><tr><td>Prasugrel (as prasugrel hydrochloride) 10 mg oral tablet</td><td><span class=\"nb\">1991-05-02</span></td><td>-</td><td>1 tablet (10 mg) once daily</td><td>-</td></tr><tr><td>Metoprolol tartrate (as metoprolol succinate) 50 mg prolonged-release oral tablet</td><td><span class=\"nb\">1991-05-02</span></td><td>-</td><td>1 tablet (50 mg) once daily</td><td>-</td></tr><tr><td>Losartan potassium 100 mg oral tablet</td><td><span class=\"nb\">1991-05-02</span></td><td>-</td><td>1 tablet (100 mg) by mouth once daily</td><td>-</td></tr></table></div>"
            },
            "entry": [
              {
                "reference": "urn:uuid:9b5576e7-86f6-48d9-85a9-71eb54087dc7"
              },
              {
                "reference": "urn:uuid:0d9f4da2-03a5-47dc-964a-33a2508dc485"
              },
              {
                "reference": "urn:uuid:819777eb-dfaf-480b-9611-9c3d54a1ce84"
              },
              {
                "reference": "urn:uuid:bf86c140-7f80-4285-a196-7d9f5e4c0bfa"
              },
              {
                "reference": "urn:uuid:d7901bea-1c17-44de-8880-d5810da9c1a2"
              },
              {
                "reference": "urn:uuid:4400155a-db34-4cc4-9932-d2ac16ebc386"
              },
              {
                "reference": "urn:uuid:5363e4e6-ed65-4cf3-9c61-3407c15baf67"
              },
              {
                "reference": "urn:uuid:658ca630-1cb1-4b48-82ba-2dece3eaa729"
              },
              {
                "reference": "urn:uuid:c4c19aff-b123-4f72-a09f-02de972f4b49"
              },
              {
                "reference": "urn:uuid:0b5c2519-fee8-4789-8bdd-77b9b791f11e"
              },
              {
                "reference": "urn:uuid:a61ed48e-ce38-4b8d-974d-c10e75c62cef"
              },
              {
                "reference": "urn:uuid:7edcdcd1-efec-4f5f-a263-5cbecbc7de58"
              },
              {
                "reference": "urn:uuid:36044c0a-ecb1-4a31-a101-24c39b42eaae"
              },
              {
                "reference": "urn:uuid:203da7d0-26b6-47f8-87b2-ea7be2ff36e7"
              },
              {
                "reference": "urn:uuid:f2653142-6b09-4397-9c75-fd51ba8aba4f"
              },
              {
                "reference": "urn:uuid:01e10ef0-4295-47e9-b6c1-751ef0ab92e7"
              },
              {
                "reference": "urn:uuid:c651bc04-49c3-4797-92f6-c77debdf59b4"
              }
            ],
            "code": {
              "coding": [
                {
                  "system": "http://loinc.org",
                  "code": "10160-0",
                  "display": "History of Medication use Narrative"
                }
              ]
            },
            "title": "Medication list"
          },
          {
            "text": {
              "status": "generated",
              "div": "<div xmlns=\"http://www.w3.org/1999/xhtml\"><table class=\"hl7__ips\"><tr><th>Vaccine</th><th>Date</th></tr><tr><td>Influenza virus antigen only vaccine product</td><td><span class=\"nb\">20-Jan-2025</span></td></tr><tr><td>Clostridium tetani toxoid antigen adsorbed only vaccine product</td><td><span class=\"nb\">16-Aug-2021</span></td></tr><tr><td>SARS-CoV-2 mRNA vaccine</td><td><span class=\"nb\">22-Feb-2021</span></td></tr></table></div>"
            },
            "entry": [
              {
                "reference": "urn:uuid:66c61a1c-9745-46f0-9074-e3c05bdd4e1e"
              },
              {
                "reference": "urn:uuid:9a104c9b-9c7f-4df7-98a9-c7fde9628feb"
              },
              {
                "reference": "urn:uuid:9b18952a-f0b3-43b9-b0ef-e2733a20b221"
              }
            ],
            "code": {
              "coding": [
                {
                  "system": "http://loinc.org",
                  "code": "11369-6",
                  "display": "History of Immunization note"
                }
              ]
            },
            "title": "Immunizations list"
          },
          {
            "text": {
              "status": "generated",
              "div": "<div xmlns=\"http://www.w3.org/1999/xhtml\"><table class=\"hl7__ips\"><tr><th>Procedure</th><th>Date</th><th>Reason</th></tr><tr><td>Patient discharge</td><td><span class=\"nb\">25-Jun-2025</span></td><td>-</td></tr><tr><td>Hospice care</td><td><span class=\"nb\">24-Jun-2025</span></td><td>-</td></tr><tr><td>Notifications</td><td><span class=\"nb\">09-Jun-2025</span></td><td>-</td></tr><tr><td>Certification procedure</td><td><span class=\"nb\">09-Jun-2025</span></td><td>-</td></tr><tr><td>Initial patient assessment</td><td><span class=\"nb\">09-Jun-2025</span></td><td>-</td></tr><tr><td>Development of individualized plan of care</td><td><span class=\"nb\">09-Jun-2025</span></td><td>-</td></tr><tr><td>Sleep apnea assessment</td><td><span class=\"nb\">19-May-2025</span></td><td>Sleep disorder (disorder)</td></tr><tr><td>Depression screening</td><td><span class=\"nb\">19-May-2025</span></td><td>-</td></tr><tr><td>Assessment of health and social care needs</td><td><span class=\"nb\">19-May-2025</span></td><td>-</td></tr><tr><td>Assessment using Morse Fall Scale</td><td><span class=\"nb\">19-May-2025</span></td><td>-</td></tr><tr><td>Screening for domestic abuse</td><td><span class=\"nb\">19-May-2025</span></td><td>-</td></tr><tr><td>Depression screening using Patient Health Questionnaire Two-Item score (procedure)</td><td><span class=\"nb\">19-May-2025</span></td><td>-</td></tr><tr><td>Heart failure education</td><td><span class=\"nb\">31-Jan-2025</span></td><td>Chronic congestive heart failure (disorder)</td></tr><tr><td>Oxygen administration by mask</td><td><span class=\"nb\">30-Jan-2025</span></td><td>-</td></tr><tr><td>Placing subject in prone position</td><td><span class=\"nb\">30-Jan-2025</span></td><td>-</td></tr><tr><td>Electrocardiographic procedure</td><td><span class=\"nb\">27-Jan-2025</span></td><td>Chronic congestive heart failure (disorder)</td></tr><tr><td>Echocardiography</td><td><span class=\"nb\">27-Jan-2025</span></td><td>-</td></tr><tr><td>Plain X-ray of chest</td><td><span class=\"nb\">27-Jan-2025</span></td><td>-</td></tr><tr><td>Medication reconciliation</td><td><span class=\"nb\">27-Jan-2025</span></td><td>-</td></tr><tr><td>Assessment of anxiety</td><td><span class=\"nb\">25-Jun-2018</span></td><td>-</td></tr><tr><td>History AND physical examination</td><td><span class=\"nb\">18-Jan-2016</span></td><td>Aortic valve stenosis (disorder)</td></tr><tr><td>Operative procedure planned</td><td><span class=\"nb\">18-Jan-2016</span></td><td>Aortic valve stenosis (disorder)</td></tr><tr><td>Referral to cardiac surgery service</td><td><span class=\"nb\">18-Jan-2016</span></td><td>Aortic valve stenosis (disorder)</td></tr><tr><td>Review of imaging finding (procedure)</td><td><span class=\"nb\">18-Jan-2016</span></td><td>Aortic valve stenosis (disorder)</td></tr></table></div>"
            },
            "entry": [
              {
                "reference": "urn:uuid:61a9b79d-3d2c-46f9-8e06-a9726a1249f3"
              },
              {
                "reference": "urn:uuid:e08c9bd3-c7f1-43e9-807e-60d1a60703c3"
              },
              {
                "reference": "urn:uuid:f1c3a1a7-218d-40d4-bc65-3e0a36075c0d"
              },
              {
                "reference": "urn:uuid:35b7280e-7151-4c44-8a76-e13a2f13504a"
              },
              {
                "reference": "urn:uuid:534e66bc-2ec4-4368-ba8b-33d6e0d75739"
              },
              {
                "reference": "urn:uuid:56b10204-b065-4241-aec8-069f7e3e96af"
              },
              {
                "reference": "urn:uuid:d953ca1b-795d-407b-b1b6-7bf576f0d60f"
              },
              {
                "reference": "urn:uuid:5106d7ec-19e9-4937-a903-9463c4f6de62"
              },
              {
                "reference": "urn:uuid:6511ce20-f99d-4efa-bf68-1bdabe9dac6b"
              },
              {
                "reference": "urn:uuid:86c25cfa-c505-4f2a-b95a-32bd853529a6"
              },
              {
                "reference": "urn:uuid:4832dd5e-17c8-4f31-8dfd-2669b0dcbec4"
              },
              {
                "reference": "urn:uuid:4d9b73d6-79f6-4a73-b6c1-90fe2f1b13ce"
              },
              {
                "reference": "urn:uuid:4c299f60-b8e5-4469-8f78-b62e7dad3712"
              },
              {
                "reference": "urn:uuid:b0f2b650-4425-4d34-aab5-6ac5d3b0eca6"
              },
              {
                "reference": "urn:uuid:00abaaf0-4ba3-4665-8028-563f6a318a5d"
              },
              {
                "reference": "urn:uuid:262cad24-e877-497f-a2c1-2f5b0a29513e"
              },
              {
                "reference": "urn:uuid:c2e38ad6-6029-4b72-9784-4ea42e54e4f1"
              },
              {
                "reference": "urn:uuid:8cc6cc9f-89c4-45b6-93ce-629a44a9b33e"
              },
              {
                "reference": "urn:uuid:32c14605-39c6-4659-ab44-be6e131f5d16"
              },
              {
                "reference": "urn:uuid:352a7e80-ce10-41ef-9b80-295f60d038b6"
              },
              {
                "reference": "urn:uuid:fb85bfe8-155d-4ab0-9f32-e0d4c8df14c3"
              },
              {
                "reference": "urn:uuid:050b7198-2319-4468-bd08-dba632f38907"
              },
              {
                "reference": "urn:uuid:394710b5-17b1-472f-b55b-6c4b353b865c"
              },
              {
                "reference": "urn:uuid:f7d18fe7-77bc-4a07-b7f3-ef27532167fe"
              }
            ],
            "code": {
              "coding": [
                {
                  "system": "http://loinc.org",
                  "code": "47519-4",
                  "display": "History of Procedures Document"
                }
              ]
            },
            "title": "Procedure History list"
          },
          {
            "text": {
              "status": "generated",
              "div": "<div xmlns=\"http://www.w3.org/1999/xhtml\"><table class=\"hl7__ips\"><tr><th>Allergy/Intolerance</th><th>Onset Date</th><th>Status</th><th>Type</th><th>Reaction</th></tr><tr><td></td><td>?</td><td>active</td><td>?</td><td></td></tr></table></div>"
            },
            "entry": [
              {
                "reference": "urn:uuid:a8ceb399-dc64-4c44-91b0-050ff70df1a0"
              }
            ],
            "code": {
              "coding": [
                {
                  "system": "http://loinc.org",
                  "code": "48765-2",
                  "display": "Allergies and adverse reactions Document"
                }
              ]
            },
            "title": "Allergies and Intolerances"
          },
          {
            "text": {
              "status": "generated",
              "div": "<div xmlns=\"http://www.w3.org/1999/xhtml\"><table class=\"hl7__ips\"><tr><th>Active Planned Care / Goals</th><th>Start Date</th><th>Reason</th></tr><tr><td>Heart failure self management plan</td><td><span class=\"nb\">17-Jul-2024</span></td><td>Chronic congestive heart failure (disorder)</td></tr><tr><td><ul><li>Patient will monitor and record weight daily to detect early signs of fluid retention.</li><li>Patient will limit sodium intake to less than 2 grams per day.</li><li>Patient will restrict daily fluid intake as recommended.</li><li>Patient will take all heart failure medications as prescribed without missing doses.</li><li>Patient will recognize and promptly report symptoms such as increased shortness of breath, swelling, or rapid weight gain.</li></ul></td><td></td><td></td></tr><tr><td>Hyperlipidemia clinical management plan</td><td><span class=\"nb\">22-Aug-1994</span></td><td>Hyperlipidemia</td></tr><tr><td><ul><li>Achieve LDL cholesterol less than 1.8 mmol/L for secondary prevention of atherosclerotic cardiovascular disease</li><li>Achieve non-HDL cholesterol less than 2.6 mmol/L</li><li>Achieve fasting triglycerides less than 1.7 mmol/L</li></ul></td><td></td><td></td></tr><tr><td>Care plan</td><td><span class=\"nb\">26-May-1992</span></td><td>Obstructive sleep apnea syndrome (disorder)</td></tr><tr><td><ul><li>Achieve weight loss to reduce severity of obstructive sleep apnea.</li><li>Reduce AHI to less than 15 events per hour.</li><li>Use CPAP device for at least 4 hours per night on 70% of nights.</li><li>Maintain minimum nocturnal oxygen saturation above 90%.</li></ul></td><td></td><td></td></tr><tr><td>Discharge care plan</td><td><span class=\"nb\">02-May-1991</span></td><td>-</td></tr><tr><td>Lifestyle education regarding hypertension</td><td><span class=\"nb\">22-Jun-1987</span></td><td>Essential hypertension (disorder)</td></tr><tr><td><ul><li>Patient will implement recommended lifestyle changes to achieve and maintain target blood pressure.</li></ul></td><td></td><td></td></tr><tr><td>Diabetes self management plan</td><td><span class=\"nb\">07-Jun-1982</span></td><td>Prediabetes</td></tr><tr><td><ul><li>Patient will achieve and maintain target HbA1c through diabetes self-management strategies.</li><li>Patient will achieve and maintain fasting blood glucose within target range through diabetes self-management strategies.</li><li>Patient will achieve and maintain target body weight as part of diabetes self-management.</li></ul></td><td></td><td></td></tr><tr><th>Immunization Recommendation</th><th>Due Date</th><th>Reason</th></tr><tr><td>Vaccine product containing only Influenza virus antigen (medicinal product)</td><td><span class=\"nb\">01-Oct-2025</span></td><td>Annual seasonal influenza vaccination</td></tr></table></div>"
            },
            "entry": [
              {
                "reference": "urn:uuid:b109f340-7e87-4203-8531-aa96262d8602"
              },
              {
                "reference": "urn:uuid:8451f4e1-0d1e-4c8f-8322-5ccc59e5490d"
              },
              {
                "reference": "urn:uuid:06782e47-c0e2-4cff-a51f-e0b8f001a422"
              },
              {
                "reference": "urn:uuid:e9482dd5-16f0-4731-966f-547c0a9c7223"
              },
              {
                "reference": "urn:uuid:30c8175c-21a2-4ac0-b582-465d2c091ced"
              },
              {
                "reference": "urn:uuid:99fdc642-80d4-40c7-8e10-e04214d78e4b"
              },
              {
                "reference": "urn:uuid:05c3087f-28a7-44f5-aada-896cbd0b97c4"
              }
            ],
            "code": {
              "coding": [
                {
                  "system": "http://loinc.org",
                  "code": "18776-5",
                  "display": "Plan of care note"
                }
              ]
            },
            "title": "Care Plan"
          },
          {
            "text": {
              "status": "generated",
              "div": "<div xmlns=\"http://www.w3.org/1999/xhtml\"><table class=\"hl7__ips\"><tr><th>Vital Signs</th><th>2025-05-19</th><th>2025-01-31</th></tr><tr><td>Body Height</td><td>172.5 cm</td><td>-</td></tr><tr><td>Pain severity - 0-10 verbal numeric rating [Score] - Reported</td><td>1 {score}</td><td>-</td></tr><tr><td>Body Weight</td><td>83.1 kg</td><td>83.1 kg</td></tr><tr><td>Body mass index (BMI) [Ratio]</td><td>27.9 kg/m2</td><td>-</td></tr><tr><td>Diastolic Blood Pressure</td><td>44 mm[Hg]</td><td>-</td></tr><tr><td>Systolic Blood Pressure</td><td>78 mm[Hg]</td><td>-</td></tr><tr><td>Heart rate</td><td>62 /min</td><td>-</td></tr><tr><td>Respiratory rate</td><td>13 /min</td><td>-</td></tr></table></div>"
            },
            "entry": [
              {
                "reference": "urn:uuid:366323cc-da6f-41d1-a437-83f27d272654"
              },
              {
                "reference": "urn:uuid:29125ed1-f136-483f-9d88-87ccda6b9b5f"
              },
              {
                "reference": "urn:uuid:2111bb2e-0861-4bad-89e5-3697060e6aae"
              },
              {
                "reference": "urn:uuid:774ad253-80bf-47d2-8765-ffe052d70526"
              },
              {
                "reference": "urn:uuid:be1e633d-9269-458c-99e8-8b87a4107509"
              },
              {
                "reference": "urn:uuid:06742f7a-6cb4-45c3-ada2-9d8ed30b3530"
              },
              {
                "reference": "urn:uuid:2ece67f1-88a1-4a5d-b9a8-1ec424712f82"
              },
              {
                "reference": "urn:uuid:7762aea3-1663-4f17-90a0-36eb41f46d7c"
              },
              {
                "reference": "urn:uuid:47b33bf1-d1e4-40c9-81bf-9a6393f52350"
              }
            ],
            "code": {
              "coding": [
                {
                  "system": "http://loinc.org",
                  "code": "8716-3",
                  "display": "Vital signs note"
                }
              ]
            },
            "title": "Vital Signs"
          },
          {
            "text": {
              "status": "generated",
              "div": "<div xmlns=\"http://www.w3.org/1999/xhtml\"><table class=\"hl7__ips\"><table class=\"hl7__ips\"><thead><tr><th>Recent Lab Observations</th><th>19-MAY-2025</th><th>Reference&#xA0;Range</th><th>Unit</th></tr></thead><tbody><tr><td>Hemoglobin A1c/Hemoglobin.total in Blood</td><td>5.5</td><td>4.5 - 6.4</td><td>%</td></tr><tr><td>Glucose [Mass/volume] in Blood</td><td>131.1</td><td>70 - 140</td><td>mg/dL</td></tr><tr><td>Urea nitrogen [Mass/volume] in Blood</td><td>19.6</td><td>7 - 25</td><td>mg/dL</td></tr><tr><td>Creatinine [Mass/volume] in Blood</td><td>0.7</td><td>0.6 - 1.3</td><td>mg/dL</td></tr><tr><td>Calcium [Mass/volume] in Blood</td><td>9.1</td><td>8.5 - 10.5</td><td>mg/dL</td></tr><tr><td>Sodium [Moles/volume] in Blood</td><td>143.9</td><td>135 - 145</td><td>mmol/L</td></tr><tr><td>Potassium [Moles/volume] in Blood</td><td>4.7</td><td>3.5 - 5.1</td><td>mmol/L</td></tr><tr><td>Chloride [Moles/volume] in Blood</td><td>102.9</td><td>98 - 107</td><td>mmol/L</td></tr><tr><td>Carbon dioxide, total [Moles/volume] in Blood</td><td>26.5</td><td>22 - 29</td><td>mmol/L</td></tr><tr><td>Cholesterol [Mass/volume] in Serum or Plasma</td><td><strong>244.9 H</strong></td><td>0 - 200</td><td>mg/dL</td></tr><tr><td>Triglyceride [Mass/volume] in Serum or Plasma</td><td><strong>490.0 H</strong></td><td>0 - 199</td><td>mg/dL</td></tr><tr><td>Cholesterol in LDL [Mass/volume] in Serum or Plasma by Direct assay</td><td>119.1</td><td>0 - 130</td><td>mg/dL</td></tr><tr><td>Cholesterol in HDL [Mass/volume] in Serum or Plasma</td><td><strong>27.8 L</strong></td><td>40 - 100</td><td>mg/dL</td></tr><tr><td>Microalbumin/Creatinine [Mass Ratio] in Urine</td><td>14.7</td><td>0 - 30</td><td>mg/g</td></tr></tbody></table></table></div>"
            },
            "entry": [
              {
                "reference": "urn:uuid:75802714-d6ef-43a6-b889-63c022f86950"
              },
              {
                "reference": "urn:uuid:f09c8acf-37c6-4218-8903-53b8bcfcabc6"
              },
              {
                "reference": "urn:uuid:b9ad5f75-c208-423a-85e6-64ac2b974cb3"
              },
              {
                "reference": "urn:uuid:5949f51e-71c4-419d-a58f-04a5805cb309"
              },
              {
                "reference": "urn:uuid:1b7edf2e-c814-4069-b6aa-d56f25411958"
              },
              {
                "reference": "urn:uuid:ff90ac26-662c-478f-9f64-3a7fb0d73320"
              },
              {
                "reference": "urn:uuid:1d81ee2c-2658-43fb-bb41-755ffb619270"
              },
              {
                "reference": "urn:uuid:0aa5942f-7b61-4bff-b0de-56a6b3f7a733"
              },
              {
                "reference": "urn:uuid:769c0cff-167c-4e6e-a77e-2af2260135fa"
              },
              {
                "reference": "urn:uuid:5054ad0a-5725-40d4-982b-126664ca1896"
              },
              {
                "reference": "urn:uuid:200719ae-ff3f-4eaf-a2cc-a64ce1d31500"
              },
              {
                "reference": "urn:uuid:f7056849-a6dc-4ae8-87d8-45098a7759ce"
              },
              {
                "reference": "urn:uuid:c479e319-7feb-4633-8440-fa19f7ec8bbd"
              },
              {
                "reference": "urn:uuid:1d449f4e-1e4b-48b7-873b-580f0088b8fd"
              }
            ],
            "code": {
              "coding": [
                {
                  "system": "http://loinc.org",
                  "code": "30954-2",
                  "display": "Relevant diagnostic tests/laboratory data note"
                }
              ]
            },
            "title": "Relevant diagnostic tests/laboratory data"
          },
          {
            "text": {
              "status": "generated",
              "div": "<div xmlns=\"http://www.w3.org/1999/xhtml\"><table class=\"hl7__ips\"><tr><th>Device</th><th>Date (since)</th></tr><tr><td>Home continuous positive airway pressure unit (physical object)</td><td><span class=\"nb\">19-May-2025</span></td></tr><tr><td>Respiratory humidifier (physical object)</td><td><span class=\"nb\">19-May-2025</span></td></tr><tr><td>Blood glucose meter (physical object)</td><td><span class=\"nb\">07-Jun-1982</span></td></tr></table></div>"
            },
            "entry": [
              {
                "reference": "urn:uuid:d2fe4558-4b66-4126-9b6d-1247a12cfc4c"
              },
              {
                "reference": "urn:uuid:2480a85b-9006-4810-8b5e-666e625f768e"
              },
              {
                "reference": "urn:uuid:de710898-7501-419d-8963-ef1a596408fd"
              }
            ],
            "code": {
              "coding": [
                {
                  "system": "http://loinc.org",
                  "code": "46264-8",
                  "display": "History of medical device use"
                }
              ]
            },
            "title": "Device Use"
          }
        ],
        "title": "European Patient Summary",
        "status": "final",
        "subject": {
          "reference": "urn:uuid:b05155a8-6809-4e30-97fd-c38cb107ee70",
          "display": "Timothy Smith"
        },
        "custodian": {
          "reference": "urn:uuid:443c4355-bcfd-451a-b30e-0c1be5e3c310"
        },
        "date": "2025-05-19",
        "confidentiality": "N"
      }
    },
    {
      "fullUrl": "urn:uuid:b05155a8-6809-4e30-97fd-c38cb107ee70",
      "resource": {
        "resourceType": "Patient",
        "id": "b05155a8-6809-4e30-97fd-c38cb107ee70",
        "meta": {
          "security": [
            {
              "system": "http://terminology.hl7.org/CodeSystem/v3-ActReason",
              "code": "HTEST"
            },
            {
              "system": "http://terminology.hl7.org/CodeSystem/v3-ActReason",
              "code": "TRAIN"
            }
          ],
          "tag": [
            {
              "system": "https://synderai.net/fhir/CodeSystem/tags",
              "code": "synthetic",
              "display": "SYNDERAI Synthetic data"
            }
          ],
          "profile": [
            "http://hl7.eu/fhir/eps/StructureDefinition/patient-eu-eps"
          ]
        },
        "identifier": [
          {
            "type": {
              "coding": [
                {
                  "code": "PT",
                  "system": "http://terminology.hl7.org/CodeSystem/v2-0203"
                }
              ]
            },
            "system": "http://ec.europa.eu/identifier/eci",
            "value": "8029-862360-6"
          },
          {
            "type": {
              "coding": [
                {
                  "code": "MR",
                  "system": "http://terminology.hl7.org/CodeSystem/v2-0203"
                }
              ]
            },
            "system": "http://local.setting.eu/identifier",
            "value": "1fe71aa8-fb8e-4622-d398-65f6235c4fef"
          }
        ],
        "name": [
          {
            "family": "Smith"
          },
          {
            "given": [
              "Timothy"
            ]
          },
          {
            "text": "Timothy Smith"
          }
        ],
        "address": [
          {
            "line": [
              "9 Jeffrey orchard"
            ],
            "use": "home",
            "type": "physical",
            "postalCode": "NW1",
            "city": "North Joshuaville",
            "country": "United Kingdom"
          }
        ],
        "telecom": [
          {
            "system": "phone",
            "value": "+44(0)28 9018592"
          }
        ],
        "extension": [
          {
            "url": "http://hl7.org/fhir/StructureDefinition/patient-nationality",
            "valueCodeableConcept": {
              "coding": [
                {
                  "code": "GB",
                  "system": "http://hl7.org/fhir/ValueSet/country"
                }
              ]
            }
          }
        ],
        "text": {
          "status": "generated",
          "div": "<div xmlns=\"http://www.w3.org/1999/xhtml\"><table class=\"hl7__ips\"><tr><td>Timothy Smith</td><td>male</td><td>10-Sep-1941</td></tr></table></div>"
        },
        "gender": "male",
        "birthDate": "1941-09-10"
      }
    },
    {
      "fullUrl": "urn:uuid:19ad5d7b-a0dc-44d8-9e95-149505ccf4f8",
      "resource": {
        "resourceType": "PractitionerRole",
        "id": "19ad5d7b-a0dc-44d8-9e95-149505ccf4f8",
        "meta": {
          "profile": [
            "http://hl7.eu/fhir/base/StructureDefinition/practitionerRole-eu"
          ]
        },
        "text": {
          "status": "generated",
          "div": "<div xmlns=\"http://www.w3.org/1999/xhtml\"><table class=\"hl7__ips\">Provider Role Id 19ad5d7b-a0dc-44d8-9e95-149505ccf4f8</table></div>"
        },
        "practitioner": {
          "reference": "urn:uuid:13c2e2c3-6cf9-4df6-9aba-794d49defb62"
        },
        "organization": {
          "reference": "urn:uuid:443c4355-bcfd-451a-b30e-0c1be5e3c310"
        }
      }
    },
    {
      "fullUrl": "urn:uuid:13c2e2c3-6cf9-4df6-9aba-794d49defb62",
      "resource": {
        "resourceType": "Practitioner",
        "id": "13c2e2c3-6cf9-4df6-9aba-794d49defb62",
        "meta": {
          "profile": [
            "http://hl7.eu/fhir/base/StructureDefinition/practitioner-eu"
          ]
        },
        "name": [
          {
            "prefix": [
              "Dr."
            ],
            "given": [
              "Hel"
            ],
            "family": "Ping"
          }
        ],
        "text": {
          "status": "generated",
          "div": "<div xmlns=\"http://www.w3.org/1999/xhtml\"><table class=\"hl7__ips\">Dr. Hel Ping</table></div>"
        }
      }
    },
    {
      "fullUrl": "urn:uuid:443c4355-bcfd-451a-b30e-0c1be5e3c310",
      "resource": {
        "resourceType": "Organization",
        "id": "443c4355-bcfd-451a-b30e-0c1be5e3c310",
        "meta": {
          "profile": [
            "http://hl7.eu/fhir/base/StructureDefinition/organization-eu"
          ]
        },
        "identifier": [
          {
            "assigner": {
              "display": "HL7 Europe"
            },
            "system": "urn:oid:2.16.840.1.113883.2.51.999",
            "value": "fbefe23d-26e4-47b7-9e24-a5469a28ac48"
          }
        ],
        "address": [
          {
            "city": "London",
            "postalCode": "SE1 7",
            "country": "United Kingdom"
          }
        ],
        "text": {
          "status": "generated",
          "div": "<div xmlns=\"http://www.w3.org/1999/xhtml\"><table class=\"hl7__ips\">Evelina Children&#039;s Hospital</table></div>"
        },
        "name": "Evelina Children&#039;s Hospital"
      }
    },
    {
      "fullUrl": "urn:uuid:6951858b-4783-40d7-bba0-1cb402a563d0",
      "resource": {
        "resourceType": "Condition",
        "id": "6951858b-4783-40d7-bba0-1cb402a563d0",
        "meta": {
          "profile": [
            "http://hl7.org/fhir/uv/ips/StructureDefinition/Condition-uv-ips"
          ]
        },
        "category": [
          {
            "coding": [
              {
                "code": "problem-list-item",
                "system": "http://terminology.hl7.org/CodeSystem/condition-category",
                "display": "Problem List Item"
              }
            ]
          }
        ],
        "code": {
          "coding": [
            {
              "code": "88805009",
              "system": "http://snomed.info/sct",
              "display": "Chronic congestive heart failure (disorder)"
            }
          ],
          "text": "Chronic congestive heart failure"
        },
        "text": {
          "status": "generated",
          "div": "<div xmlns=\"http://www.w3.org/1999/xhtml\"><table class=\"hl7__ips\"><tr><td>Chronic congestive heart failure</td><td><span class=\"nb\">01-Jul-2024</span></td><td>active</td></tr></table></div>"
        },
        "onsetDateTime": "2024-07-01",
        "subject": {
          "reference": "urn:uuid:",
          "display": "Timothy Smith"
        },
        "asserter": {
          "reference": "urn:uuid:",
          "display": "Evelina Children&#039;s Hospital"
        }
      }
    },
    {
      "fullUrl": "urn:uuid:86c74c3c-2ea6-4584-bfdb-376bb53a4b74",
      "resource": {
        "resourceType": "Condition",
        "id": "86c74c3c-2ea6-4584-bfdb-376bb53a4b74",
        "meta": {
          "profile": [
            "http://hl7.org/fhir/uv/ips/StructureDefinition/Condition-uv-ips"
          ]
        },
        "category": [
          {
            "coding": [
              {
                "code": "problem-list-item",
                "system": "http://terminology.hl7.org/CodeSystem/condition-category",
                "display": "Problem List Item"
              }
            ]
          }
        ],
        "code": {
          "coding": [
            {
              "code": "60573004",
              "system": "http://snomed.info/sct",
              "display": "Aortic valve stenosis (disorder)"
            }
          ],
          "text": "Aortic valve stenosis"
        },
        "text": {
          "status": "generated",
          "div": "<div xmlns=\"http://www.w3.org/1999/xhtml\"><table class=\"hl7__ips\"><tr><td>Aortic valve stenosis</td><td><span class=\"nb\">09-May-2015</span></td><td>active</td></tr></table></div>"
        },
        "onsetDateTime": "2015-05-09",
        "subject": {
          "reference": "urn:uuid:",
          "display": "Timothy Smith"
        },
        "asserter": {
          "reference": "urn:uuid:",
          "display": "Evelina Children&#039;s Hospital"
        }
      }
    },
    {
      "fullUrl": "urn:uuid:6698f17f-b451-427f-a0c6-9fc5661edcb0",
      "resource": {
        "resourceType": "Condition",
        "id": "6698f17f-b451-427f-a0c6-9fc5661edcb0",
        "meta": {
          "profile": [
            "http://hl7.org/fhir/uv/ips/StructureDefinition/Condition-uv-ips"
          ]
        },
        "category": [
          {
            "coding": [
              {
                "code": "problem-list-item",
                "system": "http://terminology.hl7.org/CodeSystem/condition-category",
                "display": "Problem List Item"
              }
            ]
          }
        ],
        "code": {
          "coding": [
            {
              "code": "414545008",
              "system": "http://snomed.info/sct",
              "display": "Ischemic heart disease (disorder)"
            }
          ],
          "text": "Ischemic heart disease"
        },
        "text": {
          "status": "generated",
          "div": "<div xmlns=\"http://www.w3.org/1999/xhtml\"><table class=\"hl7__ips\"><tr><td>Ischemic heart disease</td><td><span class=\"nb\">20-Oct-2008</span></td><td>active</td></tr></table></div>"
        },
        "onsetDateTime": "2008-10-20",
        "subject": {
          "reference": "urn:uuid:",
          "display": "Timothy Smith"
        },
        "asserter": {
          "reference": "urn:uuid:",
          "display": "Evelina Children&#039;s Hospital"
        }
      }
    },
    {
      "fullUrl": "urn:uuid:2e2d7ef1-1f98-4c03-ad25-2db8fd84dcb5",
      "resource": {
        "resourceType": "Condition",
        "id": "2e2d7ef1-1f98-4c03-ad25-2db8fd84dcb5",
        "meta": {
          "profile": [
            "http://hl7.org/fhir/uv/ips/StructureDefinition/Condition-uv-ips"
          ]
        },
        "category": [
          {
            "coding": [
              {
                "code": "problem-list-item",
                "system": "http://terminology.hl7.org/CodeSystem/condition-category",
                "display": "Problem List Item"
              }
            ]
          }
        ],
        "code": {
          "coding": [
            {
              "code": "64859006",
              "system": "http://snomed.info/sct",
              "display": "Osteoporosis (disorder)"
            }
          ],
          "text": "Osteoporosis"
        },
        "text": {
          "status": "generated",
          "div": "<div xmlns=\"http://www.w3.org/1999/xhtml\"><table class=\"hl7__ips\"><tr><td>Osteoporosis</td><td><span class=\"nb\">04-Sep-2000</span></td><td>active</td></tr></table></div>"
        },
        "onsetDateTime": "2000-09-04",
        "subject": {
          "reference": "urn:uuid:",
          "display": "Timothy Smith"
        },
        "asserter": {
          "reference": "urn:uuid:",
          "display": "Evelina Children&#039;s Hospital"
        }
      }
    },
    {
      "fullUrl": "urn:uuid:4305a00e-ed3c-4aad-8b73-4173f114c8e9",
      "resource": {
        "resourceType": "Condition",
        "id": "4305a00e-ed3c-4aad-8b73-4173f114c8e9",
        "meta": {
          "profile": [
            "http://hl7.org/fhir/uv/ips/StructureDefinition/Condition-uv-ips"
          ]
        },
        "category": [
          {
            "coding": [
              {
                "code": "problem-list-item",
                "system": "http://terminology.hl7.org/CodeSystem/condition-category",
                "display": "Problem List Item"
              }
            ]
          }
        ],
        "code": {
          "coding": [
            {
              "code": "6525002",
              "system": "http://snomed.info/sct",
              "display": "Dependent drug abuse (disorder)"
            }
          ],
          "text": "Dependent drug abuse"
        },
        "text": {
          "status": "generated",
          "div": "<div xmlns=\"http://www.w3.org/1999/xhtml\"><table class=\"hl7__ips\"><tr><td>Dependent drug abuse</td><td><span class=\"nb\">22-Mar-1996</span></td><td>active</td></tr></table></div>"
        },
        "onsetDateTime": "1996-03-22",
        "subject": {
          "reference": "urn:uuid:",
          "display": "Timothy Smith"
        },
        "asserter": {
          "reference": "urn:uuid:",
          "display": "Evelina Children&#039;s Hospital"
        }
      }
    },
    {
      "fullUrl": "urn:uuid:75112d48-fa6f-4d87-bd22-6c83d56b3bd0",
      "resource": {
        "resourceType": "Condition",
        "id": "75112d48-fa6f-4d87-bd22-6c83d56b3bd0",
        "meta": {
          "profile": [
            "http://hl7.org/fhir/uv/ips/StructureDefinition/Condition-uv-ips"
          ]
        },
        "category": [
          {
            "coding": [
              {
                "code": "problem-list-item",
                "system": "http://terminology.hl7.org/CodeSystem/condition-category",
                "display": "Problem List Item"
              }
            ]
          }
        ],
        "code": {
          "coding": [
            {
              "code": "55822004",
              "system": "http://snomed.info/sct",
              "display": "Hyperlipidemia (disorder)"
            }
          ],
          "text": "Hyperlipidemia"
        },
        "text": {
          "status": "generated",
          "div": "<div xmlns=\"http://www.w3.org/1999/xhtml\"><table class=\"hl7__ips\"><tr><td>Hyperlipidemia</td><td><span class=\"nb\">01-Aug-1994</span></td><td>active</td></tr></table></div>"
        },
        "onsetDateTime": "1994-08-01",
        "subject": {
          "reference": "urn:uuid:",
          "display": "Timothy Smith"
        },
        "asserter": {
          "reference": "urn:uuid:",
          "display": "Evelina Children&#039;s Hospital"
        }
      }
    },
    {
      "fullUrl": "urn:uuid:8222b652-8cc7-4cdf-a9ff-9f06c1a438ac",
      "resource": {
        "resourceType": "Condition",
        "id": "8222b652-8cc7-4cdf-a9ff-9f06c1a438ac",
        "meta": {
          "profile": [
            "http://hl7.org/fhir/uv/ips/StructureDefinition/Condition-uv-ips"
          ]
        },
        "category": [
          {
            "coding": [
              {
                "code": "problem-list-item",
                "system": "http://terminology.hl7.org/CodeSystem/condition-category",
                "display": "Problem List Item"
              }
            ]
          }
        ],
        "code": {
          "coding": [
            {
              "code": "78275009",
              "system": "http://snomed.info/sct",
              "display": "Obstructive sleep apnea syndrome (disorder)"
            }
          ],
          "text": "Obstructive sleep apnea syndrome"
        },
        "text": {
          "status": "generated",
          "div": "<div xmlns=\"http://www.w3.org/1999/xhtml\"><table class=\"hl7__ips\"><tr><td>Obstructive sleep apnea syndrome</td><td><span class=\"nb\">26-May-1992</span></td><td>active</td></tr></table></div>"
        },
        "onsetDateTime": "1992-05-26",
        "subject": {
          "reference": "urn:uuid:",
          "display": "Timothy Smith"
        },
        "asserter": {
          "reference": "urn:uuid:",
          "display": "Evelina Children&#039;s Hospital"
        }
      }
    },
    {
      "fullUrl": "urn:uuid:f433bfba-fd06-47cf-a163-8fd2c31c4474",
      "resource": {
        "resourceType": "Condition",
        "id": "f433bfba-fd06-47cf-a163-8fd2c31c4474",
        "meta": {
          "profile": [
            "http://hl7.org/fhir/uv/ips/StructureDefinition/Condition-uv-ips"
          ]
        },
        "category": [
          {
            "coding": [
              {
                "code": "problem-list-item",
                "system": "http://terminology.hl7.org/CodeSystem/condition-category",
                "display": "Problem List Item"
              }
            ]
          }
        ],
        "code": {
          "coding": [
            {
              "code": "39898005",
              "system": "http://snomed.info/sct",
              "display": "Sleep disorder (disorder)"
            }
          ],
          "text": "Sleep disorder"
        },
        "text": {
          "status": "generated",
          "div": "<div xmlns=\"http://www.w3.org/1999/xhtml\"><table class=\"hl7__ips\"><tr><td>Sleep disorder</td><td><span class=\"nb\">14-May-1992</span></td><td>active</td></tr></table></div>"
        },
        "onsetDateTime": "1992-05-14",
        "subject": {
          "reference": "urn:uuid:",
          "display": "Timothy Smith"
        },
        "asserter": {
          "reference": "urn:uuid:",
          "display": "Evelina Children&#039;s Hospital"
        }
      }
    },
    {
      "fullUrl": "urn:uuid:ab8b92f8-ff1d-459f-9390-970d49826bd3",
      "resource": {
        "resourceType": "Condition",
        "id": "ab8b92f8-ff1d-459f-9390-970d49826bd3",
        "meta": {
          "profile": [
            "http://hl7.org/fhir/uv/ips/StructureDefinition/Condition-uv-ips"
          ]
        },
        "category": [
          {
            "coding": [
              {
                "code": "problem-list-item",
                "system": "http://terminology.hl7.org/CodeSystem/condition-category",
                "display": "Problem List Item"
              }
            ]
          }
        ],
        "code": {
          "coding": [
            {
              "code": "401314000",
              "system": "http://snomed.info/sct",
              "display": "Acute non-ST segment elevation myocardial infarction (disorder)"
            }
          ],
          "text": "Acute non-ST segment elevation myocardial infarction"
        },
        "text": {
          "status": "generated",
          "div": "<div xmlns=\"http://www.w3.org/1999/xhtml\"><table class=\"hl7__ips\"><tr><td>Acute non-ST segment elevation myocardial infarction</td><td><span class=\"nb\">30-Apr-1991</span></td><td>active</td></tr></table></div>"
        },
        "onsetDateTime": "1991-04-30",
        "subject": {
          "reference": "urn:uuid:",
          "display": "Timothy Smith"
        },
        "asserter": {
          "reference": "urn:uuid:",
          "display": "Evelina Children&#039;s Hospital"
        }
      }
    },
    {
      "fullUrl": "urn:uuid:b1620fb3-2a75-4f9f-8459-11699e49d49b",
      "resource": {
        "resourceType": "Condition",
        "id": "b1620fb3-2a75-4f9f-8459-11699e49d49b",
        "meta": {
          "profile": [
            "http://hl7.org/fhir/uv/ips/StructureDefinition/Condition-uv-ips"
          ]
        },
        "category": [
          {
            "coding": [
              {
                "code": "problem-list-item",
                "system": "http://terminology.hl7.org/CodeSystem/condition-category",
                "display": "Problem List Item"
              }
            ]
          }
        ],
        "code": {
          "coding": [
            {
              "code": "124171000119105",
              "system": "http://snomed.info/sct",
              "display": "Chronic intractable migraine without aura (disorder)"
            }
          ],
          "text": "Chronic intractable migraine without aura"
        },
        "text": {
          "status": "generated",
          "div": "<div xmlns=\"http://www.w3.org/1999/xhtml\"><table class=\"hl7__ips\"><tr><td>Chronic intractable migraine without aura</td><td><span class=\"nb\">09-Aug-1990</span></td><td>active</td></tr></table></div>"
        },
        "onsetDateTime": "1990-08-09",
        "subject": {
          "reference": "urn:uuid:",
          "display": "Timothy Smith"
        },
        "asserter": {
          "reference": "urn:uuid:",
          "display": "Evelina Children&#039;s Hospital"
        }
      }
    },
    {
      "fullUrl": "urn:uuid:c2624a89-3eac-42c8-bd3d-f9bccc8906be",
      "resource": {
        "resourceType": "Condition",
        "id": "c2624a89-3eac-42c8-bd3d-f9bccc8906be",
        "meta": {
          "profile": [
            "http://hl7.org/fhir/uv/ips/StructureDefinition/Condition-uv-ips"
          ]
        },
        "category": [
          {
            "coding": [
              {
                "code": "problem-list-item",
                "system": "http://terminology.hl7.org/CodeSystem/condition-category",
                "display": "Problem List Item"
              }
            ]
          }
        ],
        "code": {
          "coding": [
            {
              "code": "196416002",
              "system": "http://snomed.info/sct",
              "display": "Impacted molars (disorder)"
            }
          ],
          "text": "Impacted molars"
        },
        "text": {
          "status": "generated",
          "div": "<div xmlns=\"http://www.w3.org/1999/xhtml\"><table class=\"hl7__ips\"><tr><td>Impacted molars</td><td><span class=\"nb\">27-May-1990</span></td><td>active</td></tr></table></div>"
        },
        "onsetDateTime": "1990-05-27",
        "subject": {
          "reference": "urn:uuid:",
          "display": "Timothy Smith"
        },
        "asserter": {
          "reference": "urn:uuid:",
          "display": "Evelina Children&#039;s Hospital"
        }
      }
    },
    {
      "fullUrl": "urn:uuid:e267a397-ace9-4f02-9dec-ee6646a48912",
      "resource": {
        "resourceType": "Condition",
        "id": "e267a397-ace9-4f02-9dec-ee6646a48912",
        "meta": {
          "profile": [
            "http://hl7.org/fhir/uv/ips/StructureDefinition/Condition-uv-ips"
          ]
        },
        "category": [
          {
            "coding": [
              {
                "code": "problem-list-item",
                "system": "http://terminology.hl7.org/CodeSystem/condition-category",
                "display": "Problem List Item"
              }
            ]
          }
        ],
        "code": {
          "coding": [
            {
              "code": "59621000",
              "system": "http://snomed.info/sct",
              "display": "Essential hypertension (disorder)"
            }
          ],
          "text": "Essential hypertension"
        },
        "text": {
          "status": "generated",
          "div": "<div xmlns=\"http://www.w3.org/1999/xhtml\"><table class=\"hl7__ips\"><tr><td>Essential hypertension</td><td><span class=\"nb\">22-Jun-1987</span></td><td>active</td></tr></table></div>"
        },
        "onsetDateTime": "1987-06-22",
        "subject": {
          "reference": "urn:uuid:",
          "display": "Timothy Smith"
        },
        "asserter": {
          "reference": "urn:uuid:",
          "display": "Evelina Children&#039;s Hospital"
        }
      }
    },
    {
      "fullUrl": "urn:uuid:76d7e3ff-7dbd-4d12-a001-762a310364a9",
      "resource": {
        "resourceType": "Condition",
        "id": "76d7e3ff-7dbd-4d12-a001-762a310364a9",
        "meta": {
          "profile": [
            "http://hl7.org/fhir/uv/ips/StructureDefinition/Condition-uv-ips"
          ]
        },
        "category": [
          {
            "coding": [
              {
                "code": "problem-list-item",
                "system": "http://terminology.hl7.org/CodeSystem/condition-category",
                "display": "Problem List Item"
              }
            ]
          }
        ],
        "code": {
          "coding": [
            {
              "code": "80394007",
              "system": "http://snomed.info/sct",
              "display": "Hyperglycemia (disorder)"
            }
          ],
          "text": "Hyperglycemia"
        },
        "text": {
          "status": "generated",
          "div": "<div xmlns=\"http://www.w3.org/1999/xhtml\"><table class=\"hl7__ips\"><tr><td>Hyperglycemia</td><td><span class=\"nb\">22-Jun-1987</span></td><td>active</td></tr></table></div>"
        },
        "onsetDateTime": "1987-06-22",
        "subject": {
          "reference": "urn:uuid:",
          "display": "Timothy Smith"
        },
        "asserter": {
          "reference": "urn:uuid:",
          "display": "Evelina Children&#039;s Hospital"
        }
      }
    },
    {
      "fullUrl": "urn:uuid:35bb179c-20ef-423b-b062-bbd57f996762",
      "resource": {
        "resourceType": "Condition",
        "id": "35bb179c-20ef-423b-b062-bbd57f996762",
        "meta": {
          "profile": [
            "http://hl7.org/fhir/uv/ips/StructureDefinition/Condition-uv-ips"
          ]
        },
        "category": [
          {
            "coding": [
              {
                "code": "problem-list-item",
                "system": "http://terminology.hl7.org/CodeSystem/condition-category",
                "display": "Problem List Item"
              }
            ]
          }
        ],
        "code": {
          "coding": [
            {
              "code": "237602007",
              "system": "http://snomed.info/sct",
              "display": "Metabolic syndrome X (disorder)"
            }
          ],
          "text": "Metabolic syndrome X"
        },
        "text": {
          "status": "generated",
          "div": "<div xmlns=\"http://www.w3.org/1999/xhtml\"><table class=\"hl7__ips\"><tr><td>Metabolic syndrome X</td><td><span class=\"nb\">22-Jun-1987</span></td><td>active</td></tr></table></div>"
        },
        "onsetDateTime": "1987-06-22",
        "subject": {
          "reference": "urn:uuid:",
          "display": "Timothy Smith"
        },
        "asserter": {
          "reference": "urn:uuid:",
          "display": "Evelina Children&#039;s Hospital"
        }
      }
    },
    {
      "fullUrl": "urn:uuid:619aa15e-d4a0-4b96-a042-d6e0e271bacb",
      "resource": {
        "resourceType": "Condition",
        "id": "619aa15e-d4a0-4b96-a042-d6e0e271bacb",
        "meta": {
          "profile": [
            "http://hl7.org/fhir/uv/ips/StructureDefinition/Condition-uv-ips"
          ]
        },
        "category": [
          {
            "coding": [
              {
                "code": "problem-list-item",
                "system": "http://terminology.hl7.org/CodeSystem/condition-category",
                "display": "Problem List Item"
              }
            ]
          }
        ],
        "code": {
          "coding": [
            {
              "code": "302870006",
              "system": "http://snomed.info/sct",
              "display": "Hypertriglyceridemia (disorder)"
            }
          ],
          "text": "Hypertriglyceridemia"
        },
        "text": {
          "status": "generated",
          "div": "<div xmlns=\"http://www.w3.org/1999/xhtml\"><table class=\"hl7__ips\"><tr><td>Hypertriglyceridemia</td><td><span class=\"nb\">22-Jun-1987</span></td><td>active</td></tr></table></div>"
        },
        "onsetDateTime": "1987-06-22",
        "subject": {
          "reference": "urn:uuid:",
          "display": "Timothy Smith"
        },
        "asserter": {
          "reference": "urn:uuid:",
          "display": "Evelina Children&#039;s Hospital"
        }
      }
    },
    {
      "fullUrl": "urn:uuid:13be18f2-072e-4662-9ea2-10017fd3fd1d",
      "resource": {
        "resourceType": "Condition",
        "id": "13be18f2-072e-4662-9ea2-10017fd3fd1d",
        "meta": {
          "profile": [
            "http://hl7.org/fhir/uv/ips/StructureDefinition/Condition-uv-ips"
          ]
        },
        "category": [
          {
            "coding": [
              {
                "code": "problem-list-item",
                "system": "http://terminology.hl7.org/CodeSystem/condition-category",
                "display": "Problem List Item"
              }
            ]
          }
        ],
        "code": {
          "coding": [
            {
              "code": "44054006",
              "system": "http://snomed.info/sct",
              "display": "Diabetes mellitus type 2 (disorder)"
            }
          ],
          "text": "Type 2 diabetes mellitus"
        },
        "text": {
          "status": "generated",
          "div": "<div xmlns=\"http://www.w3.org/1999/xhtml\"><table class=\"hl7__ips\"><tr><td>Type 2 diabetes mellitus</td><td><span class=\"nb\">16-Jun-1986</span></td><td>active</td></tr></table></div>"
        },
        "onsetDateTime": "1986-06-16",
        "subject": {
          "reference": "urn:uuid:",
          "display": "Timothy Smith"
        },
        "asserter": {
          "reference": "urn:uuid:",
          "display": "Evelina Children&#039;s Hospital"
        }
      }
    },
    {
      "fullUrl": "urn:uuid:fd96687e-aea9-4e2f-94e6-a48ae232c11a",
      "resource": {
        "resourceType": "Condition",
        "id": "fd96687e-aea9-4e2f-94e6-a48ae232c11a",
        "meta": {
          "profile": [
            "http://hl7.org/fhir/uv/ips/StructureDefinition/Condition-uv-ips"
          ]
        },
        "category": [
          {
            "coding": [
              {
                "code": "problem-list-item",
                "system": "http://terminology.hl7.org/CodeSystem/condition-category",
                "display": "Problem List Item"
              }
            ]
          }
        ],
        "code": {
          "coding": [
            {
              "code": "271737000",
              "system": "http://snomed.info/sct",
              "display": "Anemia (disorder)"
            }
          ],
          "text": "Anemia"
        },
        "text": {
          "status": "generated",
          "div": "<div xmlns=\"http://www.w3.org/1999/xhtml\"><table class=\"hl7__ips\"><tr><td>Anemia</td><td><span class=\"nb\">21-Feb-1983</span></td><td>active</td></tr></table></div>"
        },
        "onsetDateTime": "1983-02-21",
        "subject": {
          "reference": "urn:uuid:",
          "display": "Timothy Smith"
        },
        "asserter": {
          "reference": "urn:uuid:",
          "display": "Evelina Children&#039;s Hospital"
        }
      }
    },
    {
      "fullUrl": "urn:uuid:31c8bde1-9ffd-4e50-bbb1-6ab5938c3d5d",
      "resource": {
        "resourceType": "Condition",
        "id": "31c8bde1-9ffd-4e50-bbb1-6ab5938c3d5d",
        "meta": {
          "profile": [
            "http://hl7.org/fhir/uv/ips/StructureDefinition/Condition-uv-ips"
          ]
        },
        "category": [
          {
            "coding": [
              {
                "code": "problem-list-item",
                "system": "http://terminology.hl7.org/CodeSystem/condition-category",
                "display": "Problem List Item"
              }
            ]
          }
        ],
        "code": {
          "coding": [
            {
              "code": "15777000",
              "system": "http://snomed.info/sct",
              "display": "Prediabetes (disorder)"
            }
          ],
          "text": "Prediabetes"
        },
        "text": {
          "status": "generated",
          "div": "<div xmlns=\"http://www.w3.org/1999/xhtml\"><table class=\"hl7__ips\"><tr><td>Prediabetes</td><td><span class=\"nb\">07-Jun-1982</span></td><td>active</td></tr></table></div>"
        },
        "onsetDateTime": "1982-06-07",
        "subject": {
          "reference": "urn:uuid:",
          "display": "Timothy Smith"
        },
        "asserter": {
          "reference": "urn:uuid:",
          "display": "Evelina Children&#039;s Hospital"
        }
      }
    },
    {
      "fullUrl": "urn:uuid:f1b6b90d-17cd-400f-8a1d-8a467736e5da",
      "resource": {
        "resourceType": "Condition",
        "id": "f1b6b90d-17cd-400f-8a1d-8a467736e5da",
        "meta": {
          "profile": [
            "http://hl7.org/fhir/uv/ips/StructureDefinition/Condition-uv-ips"
          ]
        },
        "category": [
          {
            "coding": [
              {
                "code": "problem-list-item",
                "system": "http://terminology.hl7.org/CodeSystem/condition-category",
                "display": "Problem List Item"
              }
            ]
          }
        ],
        "code": {
          "coding": [
            {
              "code": "444814009",
              "system": "http://snomed.info/sct",
              "display": "Viral sinusitis (disorder)"
            }
          ],
          "text": "Viral sinusitis"
        },
        "text": {
          "status": "generated",
          "div": "<div xmlns=\"http://www.w3.org/1999/xhtml\"><table class=\"hl7__ips\"><tr><td><span class=\"grayedout\">Viral sinusitis</span></td><td><span class=\"nb\">02-Jun-2025 - 27-Jun-2025</span></td><td><span class=\"grayedout\">inactive</span></td></tr></table></div>"
        },
        "onsetDateTime": "2025-06-02",
        "abatementDateTime": "2025-06-27",
        "subject": {
          "reference": "urn:uuid:",
          "display": "Timothy Smith"
        },
        "asserter": {
          "reference": "urn:uuid:",
          "display": "Evelina Children&#039;s Hospital"
        }
      }
    },
    {
      "fullUrl": "urn:uuid:ae3443f9-1c6e-4c3d-a9db-64b629d36766",
      "resource": {
        "resourceType": "Condition",
        "id": "ae3443f9-1c6e-4c3d-a9db-64b629d36766",
        "meta": {
          "profile": [
            "http://hl7.org/fhir/uv/ips/StructureDefinition/Condition-uv-ips"
          ]
        },
        "category": [
          {
            "coding": [
              {
                "code": "problem-list-item",
                "system": "http://terminology.hl7.org/CodeSystem/condition-category",
                "display": "Problem List Item"
              }
            ]
          }
        ],
        "code": {
          "coding": [
            {
              "code": "44465007",
              "system": "http://snomed.info/sct",
              "display": "Sprain of ankle (disorder)"
            }
          ],
          "text": "Sprain of ankle"
        },
        "text": {
          "status": "generated",
          "div": "<div xmlns=\"http://www.w3.org/1999/xhtml\"><table class=\"hl7__ips\"><tr><td><span class=\"grayedout\">Sprain of ankle</span></td><td><span class=\"nb\">19-Mar-2025 - 19-Apr-2025</span></td><td><span class=\"grayedout\">inactive</span></td></tr></table></div>"
        },
        "onsetDateTime": "2025-03-19",
        "abatementDateTime": "2025-04-19",
        "subject": {
          "reference": "urn:uuid:",
          "display": "Timothy Smith"
        },
        "asserter": {
          "reference": "urn:uuid:",
          "display": "Evelina Children&#039;s Hospital"
        }
      }
    },
    {
      "fullUrl": "urn:uuid:eaff8987-c689-4005-9bb7-176291f9ee14",
      "resource": {
        "resourceType": "Condition",
        "id": "eaff8987-c689-4005-9bb7-176291f9ee14",
        "meta": {
          "profile": [
            "http://hl7.org/fhir/uv/ips/StructureDefinition/Condition-uv-ips"
          ]
        },
        "category": [
          {
            "coding": [
              {
                "code": "problem-list-item",
                "system": "http://terminology.hl7.org/CodeSystem/condition-category",
                "display": "Problem List Item"
              }
            ]
          }
        ],
        "code": {
          "coding": [
            {
              "code": "55680006",
              "system": "http://snomed.info/sct",
              "display": "Drug overdose (disorder)"
            }
          ],
          "text": "Drug overdose"
        },
        "text": {
          "status": "generated",
          "div": "<div xmlns=\"http://www.w3.org/1999/xhtml\"><table class=\"hl7__ips\"><tr><td><span class=\"grayedout\">Drug overdose</span></td><td><span class=\"nb\">19-Mar-2023 - 19-Mar-2023</span></td><td><span class=\"grayedout\">inactive</span></td></tr></table></div>"
        },
        "onsetDateTime": "2023-03-19",
        "abatementDateTime": "2023-03-19",
        "subject": {
          "reference": "urn:uuid:",
          "display": "Timothy Smith"
        },
        "asserter": {
          "reference": "urn:uuid:",
          "display": "Evelina Children&#039;s Hospital"
        }
      }
    },
    {
      "fullUrl": "urn:uuid:86f8b593-4351-4010-b6bd-73506975e83b",
      "resource": {
        "resourceType": "Condition",
        "id": "86f8b593-4351-4010-b6bd-73506975e83b",
        "meta": {
          "profile": [
            "http://hl7.org/fhir/uv/ips/StructureDefinition/Condition-uv-ips"
          ]
        },
        "category": [
          {
            "coding": [
              {
                "code": "problem-list-item",
                "system": "http://terminology.hl7.org/CodeSystem/condition-category",
                "display": "Problem List Item"
              }
            ]
          }
        ],
        "code": {
          "coding": [
            {
              "code": "55680006",
              "system": "http://snomed.info/sct",
              "display": "Drug overdose (disorder)"
            }
          ],
          "text": "Drug overdose"
        },
        "text": {
          "status": "generated",
          "div": "<div xmlns=\"http://www.w3.org/1999/xhtml\"><table class=\"hl7__ips\"><tr><td><span class=\"grayedout\">Drug overdose</span></td><td><span class=\"nb\">30-Sep-2021 - 01-Oct-2021</span></td><td><span class=\"grayedout\">inactive</span></td></tr></table></div>"
        },
        "onsetDateTime": "2021-09-30",
        "abatementDateTime": "2021-10-01",
        "subject": {
          "reference": "urn:uuid:",
          "display": "Timothy Smith"
        },
        "asserter": {
          "reference": "urn:uuid:",
          "display": "Evelina Children&#039;s Hospital"
        }
      }
    },
    {
      "fullUrl": "urn:uuid:68c33536-2ca2-43e2-af95-76974bf84bd6",
      "resource": {
        "resourceType": "Condition",
        "id": "68c33536-2ca2-43e2-af95-76974bf84bd6",
        "meta": {
          "profile": [
            "http://hl7.org/fhir/uv/ips/StructureDefinition/Condition-uv-ips"
          ]
        },
        "category": [
          {
            "coding": [
              {
                "code": "problem-list-item",
                "system": "http://terminology.hl7.org/CodeSystem/condition-category",
                "display": "Problem List Item"
              }
            ]
          }
        ],
        "code": {
          "coding": [
            {
              "code": "444814009",
              "system": "http://snomed.info/sct",
              "display": "Viral sinusitis (disorder)"
            }
          ],
          "text": "Viral sinusitis"
        },
        "text": {
          "status": "generated",
          "div": "<div xmlns=\"http://www.w3.org/1999/xhtml\"><table class=\"hl7__ips\"><tr><td><span class=\"grayedout\">Viral sinusitis</span></td><td><span class=\"nb\">30-Aug-2021 - 26-Sep-2021</span></td><td><span class=\"grayedout\">inactive</span></td></tr></table></div>"
        },
        "onsetDateTime": "2021-08-30",
        "abatementDateTime": "2021-09-26",
        "subject": {
          "reference": "urn:uuid:",
          "display": "Timothy Smith"
        },
        "asserter": {
          "reference": "urn:uuid:",
          "display": "Evelina Children&#039;s Hospital"
        }
      }
    },
    {
      "fullUrl": "urn:uuid:ba439292-689b-4959-9fed-9a532d8b00b6",
      "resource": {
        "resourceType": "Condition",
        "id": "ba439292-689b-4959-9fed-9a532d8b00b6",
        "meta": {
          "profile": [
            "http://hl7.org/fhir/uv/ips/StructureDefinition/Condition-uv-ips"
          ]
        },
        "category": [
          {
            "coding": [
              {
                "code": "problem-list-item",
                "system": "http://terminology.hl7.org/CodeSystem/condition-category",
                "display": "Problem List Item"
              }
            ]
          }
        ],
        "code": {
          "coding": [
            {
              "code": "55680006",
              "system": "http://snomed.info/sct",
              "display": "Drug overdose (disorder)"
            }
          ],
          "text": "Drug overdose"
        },
        "text": {
          "status": "generated",
          "div": "<div xmlns=\"http://www.w3.org/1999/xhtml\"><table class=\"hl7__ips\"><tr><td><span class=\"grayedout\">Drug overdose</span></td><td><span class=\"nb\">09-Jul-2018 - 09-Jul-2018</span></td><td><span class=\"grayedout\">inactive</span></td></tr></table></div>"
        },
        "onsetDateTime": "2018-07-09",
        "abatementDateTime": "2018-07-09",
        "subject": {
          "reference": "urn:uuid:",
          "display": "Timothy Smith"
        },
        "asserter": {
          "reference": "urn:uuid:",
          "display": "Evelina Children&#039;s Hospital"
        }
      }
    },
    {
      "fullUrl": "urn:uuid:51b7f096-becd-47a6-a89a-086e31cca2b4",
      "resource": {
        "resourceType": "Condition",
        "id": "51b7f096-becd-47a6-a89a-086e31cca2b4",
        "meta": {
          "profile": [
            "http://hl7.org/fhir/uv/ips/StructureDefinition/Condition-uv-ips"
          ]
        },
        "category": [
          {
            "coding": [
              {
                "code": "problem-list-item",
                "system": "http://terminology.hl7.org/CodeSystem/condition-category",
                "display": "Problem List Item"
              }
            ]
          }
        ],
        "code": {
          "coding": [
            {
              "code": "10509002",
              "system": "http://snomed.info/sct",
              "display": "Acute bronchitis (disorder)"
            }
          ],
          "text": "Acute bronchitis"
        },
        "text": {
          "status": "generated",
          "div": "<div xmlns=\"http://www.w3.org/1999/xhtml\"><table class=\"hl7__ips\"><tr><td><span class=\"grayedout\">Acute bronchitis</span></td><td><span class=\"nb\">17-Jun-2018 - 01-Jul-2018</span></td><td><span class=\"grayedout\">inactive</span></td></tr></table></div>"
        },
        "onsetDateTime": "2018-06-17",
        "abatementDateTime": "2018-07-01",
        "subject": {
          "reference": "urn:uuid:",
          "display": "Timothy Smith"
        },
        "asserter": {
          "reference": "urn:uuid:",
          "display": "Evelina Children&#039;s Hospital"
        }
      }
    },
    {
      "fullUrl": "urn:uuid:9cd5b8c8-6ef8-4342-a2ef-8fcc89d17f40",
      "resource": {
        "resourceType": "Condition",
        "id": "9cd5b8c8-6ef8-4342-a2ef-8fcc89d17f40",
        "meta": {
          "profile": [
            "http://hl7.org/fhir/uv/ips/StructureDefinition/Condition-uv-ips"
          ]
        },
        "category": [
          {
            "coding": [
              {
                "code": "problem-list-item",
                "system": "http://terminology.hl7.org/CodeSystem/condition-category",
                "display": "Problem List Item"
              }
            ]
          }
        ],
        "code": {
          "coding": [
            {
              "code": "55680006",
              "system": "http://snomed.info/sct",
              "display": "Drug overdose (disorder)"
            }
          ],
          "text": "Drug overdose"
        },
        "text": {
          "status": "generated",
          "div": "<div xmlns=\"http://www.w3.org/1999/xhtml\"><table class=\"hl7__ips\"><tr><td><span class=\"grayedout\">Drug overdose</span></td><td><span class=\"nb\">15-Dec-2017 - 16-Dec-2017</span></td><td><span class=\"grayedout\">inactive</span></td></tr></table></div>"
        },
        "onsetDateTime": "2017-12-15",
        "abatementDateTime": "2017-12-16",
        "subject": {
          "reference": "urn:uuid:",
          "display": "Timothy Smith"
        },
        "asserter": {
          "reference": "urn:uuid:",
          "display": "Evelina Children&#039;s Hospital"
        }
      }
    },
    {
      "fullUrl": "urn:uuid:7c6ca49c-ea5e-42d1-b342-3c0d56131c3e",
      "resource": {
        "resourceType": "Condition",
        "id": "7c6ca49c-ea5e-42d1-b342-3c0d56131c3e",
        "meta": {
          "profile": [
            "http://hl7.org/fhir/uv/ips/StructureDefinition/Condition-uv-ips"
          ]
        },
        "category": [
          {
            "coding": [
              {
                "code": "problem-list-item",
                "system": "http://terminology.hl7.org/CodeSystem/condition-category",
                "display": "Problem List Item"
              }
            ]
          }
        ],
        "code": {
          "coding": [
            {
              "code": "55680006",
              "system": "http://snomed.info/sct",
              "display": "Drug overdose (disorder)"
            }
          ],
          "text": "Drug overdose"
        },
        "text": {
          "status": "generated",
          "div": "<div xmlns=\"http://www.w3.org/1999/xhtml\"><table class=\"hl7__ips\"><tr><td><span class=\"grayedout\">Drug overdose</span></td><td><span class=\"nb\">26-Aug-2016 - 27-Aug-2016</span></td><td><span class=\"grayedout\">inactive</span></td></tr></table></div>"
        },
        "onsetDateTime": "2016-08-26",
        "abatementDateTime": "2016-08-27",
        "subject": {
          "reference": "urn:uuid:",
          "display": "Timothy Smith"
        },
        "asserter": {
          "reference": "urn:uuid:",
          "display": "Evelina Children&#039;s Hospital"
        }
      }
    },
    {
      "fullUrl": "urn:uuid:3371f867-5b66-4667-bd6a-f75dfce1aee6",
      "resource": {
        "resourceType": "Condition",
        "id": "3371f867-5b66-4667-bd6a-f75dfce1aee6",
        "meta": {
          "profile": [
            "http://hl7.org/fhir/uv/ips/StructureDefinition/Condition-uv-ips"
          ]
        },
        "category": [
          {
            "coding": [
              {
                "code": "problem-list-item",
                "system": "http://terminology.hl7.org/CodeSystem/condition-category",
                "display": "Problem List Item"
              }
            ]
          }
        ],
        "code": {
          "coding": [
            {
              "code": "44465007",
              "system": "http://snomed.info/sct",
              "display": "Sprain of ankle (disorder)"
            }
          ],
          "text": "Sprain of ankle"
        },
        "text": {
          "status": "generated",
          "div": "<div xmlns=\"http://www.w3.org/1999/xhtml\"><table class=\"hl7__ips\"><tr><td><span class=\"grayedout\">Sprain of ankle</span></td><td><span class=\"nb\">23-Feb-2016 - 21-Mar-2016</span></td><td><span class=\"grayedout\">inactive</span></td></tr></table></div>"
        },
        "onsetDateTime": "2016-02-23",
        "abatementDateTime": "2016-03-21",
        "subject": {
          "reference": "urn:uuid:",
          "display": "Timothy Smith"
        },
        "asserter": {
          "reference": "urn:uuid:",
          "display": "Evelina Children&#039;s Hospital"
        }
      }
    },
    {
      "fullUrl": "urn:uuid:f2709ef3-9841-44d0-b859-2367e7ae8921",
      "resource": {
        "resourceType": "Medication",
        "id": "f2709ef3-9841-44d0-b859-2367e7ae8921",
        "meta": {
          "profile": [
            "http://hl7.eu/fhir/eps/StructureDefinition/Medication-eu-eps"
          ]
        },
        "code": {
          "coding": [
            {
              "code": "318632005",
              "system": "http://snomed.info/sct",
              "display": "Carvedilol 25 mg oral tablet"
            }
          ],
          "text": "Carvedilol 25 mg oral tablet"
        },
        "text": {
          "status": "generated",
          "div": "<div xmlns=\"http://www.w3.org/1999/xhtml\">Carvedilol 25 mg oral tablet</div>"
        }
      }
    },
    {
      "fullUrl": "urn:uuid:9b5576e7-86f6-48d9-85a9-71eb54087dc7",
      "resource": {
        "resourceType": "MedicationStatement",
        "id": "9b5576e7-86f6-48d9-85a9-71eb54087dc7",
        "meta": {
          "profile": [
            "http://hl7.eu/fhir/eps/StructureDefinition/MedicationStatement-eu-eps"
          ]
        },
        "effectivePeriod": {
          "start": "2025-05-19"
        },
        "dosage": [
          {
            "doseAndRate": [
              {
                "doseQuantity": {
                  "value": 1,
                  "unit": "{tbl}",
                  "system": "$ucum",
                  "code": "{tbl}"
                }
              }
            ],
            "timing": {
              "repeat": {
                "frequency": 2,
                "period": 1,
                "periodUnit": "d"
              }
            },
            "text": "1 tablet (25 mg) by mouth twice daily",
            "asNeededBoolean": false
          }
        ],
        "reasonCode": [
          {
            "coding": [
              {
                "code": "88805009",
                "system": "http://snomed.info/sct",
                "display": "Chronic congestive heart failure (disorder)"
              }
            ]
          }
        ],
        "text": {
          "status": "generated",
          "div": "<div xmlns=\"http://www.w3.org/1999/xhtml\"><table class=\"hl7__ips first25\"><tr><th>Medication</th><th>Since</th><th>Form</th><th>Dosage</th><th>Reason</th></tr><tr><td>Carvedilol 25 mg oral tablet</td><td><span class=\"nb\">2025-05-19</span></td><td>-</td><td>1 tablet (25 mg) by mouth twice daily</td><td>Chronic congestive heart failure (disorder)</td></tr></table></div>"
        },
        "status": "active",
        "medicationReference": {
          "reference": "urn:uuid:f2709ef3-9841-44d0-b859-2367e7ae8921",
          "display": "Carvedilol 25 mg oral tablet"
        },
        "subject": {
          "reference": "urn:uuid:b05155a8-6809-4e30-97fd-c38cb107ee70",
          "display": "Timothy Smith"
        }
      }
    },
    {
      "fullUrl": "urn:uuid:7aaeb2ce-b2ea-4f9f-b95e-faf052d29dd1",
      "resource": {
        "resourceType": "Medication",
        "id": "7aaeb2ce-b2ea-4f9f-b95e-faf052d29dd1",
        "meta": {
          "profile": [
            "http://hl7.eu/fhir/eps/StructureDefinition/Medication-eu-eps"
          ]
        },
        "code": {
          "coding": [
            {
              "code": "1153431000",
              "system": "http://snomed.info/sct",
              "display": "Amlodipine (as amlodipine besylate) 2.5 mg oral tablet"
            }
          ],
          "text": "Amlodipine (as amlodipine besylate) 2.5 mg oral tablet"
        },
        "text": {
          "status": "generated",
          "div": "<div xmlns=\"http://www.w3.org/1999/xhtml\">Amlodipine (as amlodipine besylate) 2.5 mg oral tablet</div>"
        }
      }
    },
    {
      "fullUrl": "urn:uuid:0d9f4da2-03a5-47dc-964a-33a2508dc485",
      "resource": {
        "resourceType": "MedicationStatement",
        "id": "0d9f4da2-03a5-47dc-964a-33a2508dc485",
        "meta": {
          "profile": [
            "http://hl7.eu/fhir/eps/StructureDefinition/MedicationStatement-eu-eps"
          ]
        },
        "effectivePeriod": {
          "start": "2025-05-19"
        },
        "dosage": [
          {
            "doseAndRate": [
              {
                "doseQuantity": {
                  "value": 1,
                  "unit": "{tbl}",
                  "code": "{tbl}"
                }
              }
            ],
            "timing": {
              "repeat": {
                "frequency": 1,
                "period": 1,
                "periodUnit": "d"
              }
            },
            "text": "1 tablet (2.5 mg) by mouth once daily",
            "asNeededBoolean": false
          }
        ],
        "reasonCode": [
          {
            "coding": [
              {
                "code": "59621000",
                "system": "http://snomed.info/sct",
                "display": "Essential hypertension (disorder)"
              }
            ]
          }
        ],
        "text": {
          "status": "generated",
          "div": "<div xmlns=\"http://www.w3.org/1999/xhtml\"><table class=\"hl7__ips first25\"><tr><th>Medication</th><th>Since</th><th>Form</th><th>Dosage</th><th>Reason</th></tr><tr><td>Amlodipine (as amlodipine besylate) 2.5 mg oral tablet</td><td><span class=\"nb\">2025-05-19</span></td><td>-</td><td>1 tablet (2.5 mg) by mouth once daily</td><td>Essential hypertension (disorder)</td></tr></table></div>"
        },
        "status": "active",
        "medicationReference": {
          "reference": "urn:uuid:7aaeb2ce-b2ea-4f9f-b95e-faf052d29dd1",
          "display": "Amlodipine (as amlodipine besylate) 2.5 mg oral tablet"
        },
        "subject": {
          "reference": "urn:uuid:b05155a8-6809-4e30-97fd-c38cb107ee70",
          "display": "Timothy Smith"
        }
      }
    },
    {
      "fullUrl": "urn:uuid:75e296ad-455b-4238-a2d7-754d84ce503f",
      "resource": {
        "resourceType": "Medication",
        "id": "75e296ad-455b-4238-a2d7-754d84ce503f",
        "meta": {
          "profile": [
            "http://hl7.eu/fhir/eps/StructureDefinition/Medication-eu-eps"
          ]
        },
        "code": {
          "coding": [
            {
              "code": "376209006",
              "system": "http://snomed.info/sct",
              "display": "Hydrochlorothiazide 25 mg oral tablet"
            }
          ],
          "text": "Hydrochlorothiazide 25 mg oral tablet"
        },
        "text": {
          "status": "generated",
          "div": "<div xmlns=\"http://www.w3.org/1999/xhtml\">Hydrochlorothiazide 25 mg oral tablet</div>"
        }
      }
    },
    {
      "fullUrl": "urn:uuid:819777eb-dfaf-480b-9611-9c3d54a1ce84",
      "resource": {
        "resourceType": "MedicationStatement",
        "id": "819777eb-dfaf-480b-9611-9c3d54a1ce84",
        "meta": {
          "profile": [
            "http://hl7.eu/fhir/eps/StructureDefinition/MedicationStatement-eu-eps"
          ]
        },
        "effectivePeriod": {
          "start": "2025-05-19"
        },
        "dosage": [
          {
            "doseAndRate": [
              {
                "doseQuantity": {
                  "value": 1,
                  "unit": "{tbl}",
                  "code": "{tbl}"
                }
              }
            ],
            "timing": {
              "repeat": {
                "frequency": 1,
                "period": 1,
                "periodUnit": "d"
              }
            },
            "text": "1 tablet (25 mg) by mouth once daily",
            "asNeededBoolean": false
          }
        ],
        "reasonCode": [
          {
            "coding": [
              {
                "code": "59621000",
                "system": "http://snomed.info/sct",
                "display": "Essential hypertension (disorder)"
              }
            ]
          }
        ],
        "text": {
          "status": "generated",
          "div": "<div xmlns=\"http://www.w3.org/1999/xhtml\"><table class=\"hl7__ips first25\"><tr><th>Medication</th><th>Since</th><th>Form</th><th>Dosage</th><th>Reason</th></tr><tr><td>Hydrochlorothiazide 25 mg oral tablet</td><td><span class=\"nb\">2025-05-19</span></td><td>-</td><td>1 tablet (25 mg) by mouth once daily</td><td>Essential hypertension (disorder)</td></tr></table></div>"
        },
        "status": "active",
        "medicationReference": {
          "reference": "urn:uuid:75e296ad-455b-4238-a2d7-754d84ce503f",
          "display": "Hydrochlorothiazide 25 mg oral tablet"
        },
        "subject": {
          "reference": "urn:uuid:b05155a8-6809-4e30-97fd-c38cb107ee70",
          "display": "Timothy Smith"
        }
      }
    },
    {
      "fullUrl": "urn:uuid:01323aed-7811-41cf-8671-5b5ab073c079",
      "resource": {
        "resourceType": "Medication",
        "id": "01323aed-7811-41cf-8671-5b5ab073c079",
        "meta": {
          "profile": [
            "http://hl7.eu/fhir/eps/StructureDefinition/Medication-eu-eps"
          ]
        },
        "code": {
          "coding": [
            {
              "code": "317972000",
              "system": "http://snomed.info/sct",
              "display": "Furosemide 40 mg oral tablet"
            }
          ],
          "text": "Furosemide 40 mg oral tablet"
        },
        "text": {
          "status": "generated",
          "div": "<div xmlns=\"http://www.w3.org/1999/xhtml\">Furosemide 40 mg oral tablet</div>"
        }
      }
    },
    {
      "fullUrl": "urn:uuid:bf86c140-7f80-4285-a196-7d9f5e4c0bfa",
      "resource": {
        "resourceType": "MedicationStatement",
        "id": "bf86c140-7f80-4285-a196-7d9f5e4c0bfa",
        "meta": {
          "profile": [
            "http://hl7.eu/fhir/eps/StructureDefinition/MedicationStatement-eu-eps"
          ]
        },
        "effectivePeriod": {
          "start": "2025-05-19"
        },
        "dosage": [
          {
            "doseAndRate": [
              {
                "doseQuantity": {
                  "value": 1,
                  "unit": "{tbl}",
                  "system": "$ucum",
                  "code": "{tbl}"
                }
              }
            ],
            "timing": {
              "repeat": {
                "frequency": 1,
                "period": 1,
                "periodUnit": "d"
              }
            },
            "text": "1 tablet (40 mg) by mouth once daily",
            "asNeededBoolean": false
          }
        ],
        "reasonCode": [
          {
            "coding": [
              {
                "code": "88805009",
                "system": "http://snomed.info/sct",
                "display": "Chronic congestive heart failure (disorder)"
              }
            ]
          }
        ],
        "text": {
          "status": "generated",
          "div": "<div xmlns=\"http://www.w3.org/1999/xhtml\"><table class=\"hl7__ips first25\"><tr><th>Medication</th><th>Since</th><th>Form</th><th>Dosage</th><th>Reason</th></tr><tr><td>Furosemide 40 mg oral tablet</td><td><span class=\"nb\">2025-05-19</span></td><td>-</td><td>1 tablet (40 mg) by mouth once daily</td><td>Chronic congestive heart failure (disorder)</td></tr></table></div>"
        },
        "status": "active",
        "medicationReference": {
          "reference": "urn:uuid:01323aed-7811-41cf-8671-5b5ab073c079",
          "display": "Furosemide 40 mg oral tablet"
        },
        "subject": {
          "reference": "urn:uuid:b05155a8-6809-4e30-97fd-c38cb107ee70",
          "display": "Timothy Smith"
        }
      }
    },
    {
      "fullUrl": "urn:uuid:51c110a7-b544-4a60-9d0b-85920dc30667",
      "resource": {
        "resourceType": "Medication",
        "id": "51c110a7-b544-4a60-9d0b-85920dc30667",
        "meta": {
          "profile": [
            "http://hl7.eu/fhir/eps/StructureDefinition/Medication-eu-eps"
          ]
        },
        "code": {
          "coding": [
            {
              "code": "318860005",
              "system": "http://snomed.info/sct",
              "display": "Lisinopril 20 mg oral tablet"
            }
          ],
          "text": "Lisinopril 20 mg oral tablet"
        },
        "text": {
          "status": "generated",
          "div": "<div xmlns=\"http://www.w3.org/1999/xhtml\">Lisinopril 20 mg oral tablet</div>"
        }
      }
    },
    {
      "fullUrl": "urn:uuid:d7901bea-1c17-44de-8880-d5810da9c1a2",
      "resource": {
        "resourceType": "MedicationStatement",
        "id": "d7901bea-1c17-44de-8880-d5810da9c1a2",
        "meta": {
          "profile": [
            "http://hl7.eu/fhir/eps/StructureDefinition/MedicationStatement-eu-eps"
          ]
        },
        "effectivePeriod": {
          "start": "2025-05-19"
        },
        "dosage": [
          {
            "doseAndRate": [
              {
                "doseQuantity": {
                  "value": 1,
                  "unit": "{tbl} (20 mg)",
                  "system": "$ucum",
                  "code": "{tbl}"
                }
              }
            ],
            "timing": {
              "repeat": {
                "frequency": 1,
                "period": 1,
                "periodUnit": "d"
              }
            },
            "text": "1 tablet (20 mg) by mouth once daily",
            "asNeededBoolean": false
          }
        ],
        "reasonCode": [
          {
            "coding": [
              {
                "code": "88805009",
                "system": "http://snomed.info/sct",
                "display": "Chronic congestive heart failure (disorder)"
              }
            ]
          }
        ],
        "text": {
          "status": "generated",
          "div": "<div xmlns=\"http://www.w3.org/1999/xhtml\"><table class=\"hl7__ips first25\"><tr><th>Medication</th><th>Since</th><th>Form</th><th>Dosage</th><th>Reason</th></tr><tr><td>Lisinopril 20 mg oral tablet</td><td><span class=\"nb\">2025-05-19</span></td><td>-</td><td>1 tablet (20 mg) by mouth once daily</td><td>Chronic congestive heart failure (disorder)</td></tr></table></div>"
        },
        "status": "active",
        "medicationReference": {
          "reference": "urn:uuid:51c110a7-b544-4a60-9d0b-85920dc30667",
          "display": "Lisinopril 20 mg oral tablet"
        },
        "subject": {
          "reference": "urn:uuid:b05155a8-6809-4e30-97fd-c38cb107ee70",
          "display": "Timothy Smith"
        }
      }
    },
    {
      "fullUrl": "urn:uuid:f24af9e6-70b3-40a5-9577-08851f07b5e6",
      "resource": {
        "resourceType": "Medication",
        "id": "f24af9e6-70b3-40a5-9577-08851f07b5e6",
        "meta": {
          "profile": [
            "http://hl7.eu/fhir/eps/StructureDefinition/Medication-eu-eps"
          ]
        },
        "code": {
          "coding": [
            {
              "code": "765507008",
              "system": "http://snomed.info/sct",
              "display": "Metformin hydrochloride 500 mg prolonged-release oral tablet"
            }
          ],
          "text": "Metformin hydrochloride 500 mg prolonged-release oral tablet"
        },
        "text": {
          "status": "generated",
          "div": "<div xmlns=\"http://www.w3.org/1999/xhtml\">Metformin hydrochloride 500 mg prolonged-release oral tablet</div>"
        }
      }
    },
    {
      "fullUrl": "urn:uuid:4400155a-db34-4cc4-9932-d2ac16ebc386",
      "resource": {
        "resourceType": "MedicationStatement",
        "id": "4400155a-db34-4cc4-9932-d2ac16ebc386",
        "meta": {
          "profile": [
            "http://hl7.eu/fhir/eps/StructureDefinition/MedicationStatement-eu-eps"
          ]
        },
        "effectivePeriod": {
          "start": "2025-05-19"
        },
        "dosage": [
          {
            "doseAndRate": [
              {
                "doseQuantity": {
                  "value": 1,
                  "unit": "{tbl}",
                  "system": "$ucum",
                  "code": "{tbl}"
                }
              }
            ],
            "timing": {
              "repeat": {
                "frequency": 1,
                "period": 1,
                "periodUnit": "d"
              }
            },
            "text": "1 tablet (500 mg) once daily",
            "asNeededBoolean": false
          }
        ],
        "reasonCode": [
          {
            "coding": [
              {
                "code": "44054006",
                "system": "http://snomed.info/sct",
                "display": "Diabetes mellitus type 2 (disorder)"
              }
            ]
          }
        ],
        "text": {
          "status": "generated",
          "div": "<div xmlns=\"http://www.w3.org/1999/xhtml\"><table class=\"hl7__ips first25\"><tr><th>Medication</th><th>Since</th><th>Form</th><th>Dosage</th><th>Reason</th></tr><tr><td>Metformin hydrochloride 500 mg prolonged-release oral tablet</td><td><span class=\"nb\">2025-05-19</span></td><td>-</td><td>1 tablet (500 mg) once daily</td><td>Diabetes mellitus type 2 (disorder)</td></tr></table></div>"
        },
        "status": "active",
        "medicationReference": {
          "reference": "urn:uuid:f24af9e6-70b3-40a5-9577-08851f07b5e6",
          "display": "Metformin hydrochloride 500 mg prolonged-release oral tablet"
        },
        "subject": {
          "reference": "urn:uuid:b05155a8-6809-4e30-97fd-c38cb107ee70",
          "display": "Timothy Smith"
        }
      }
    },
    {
      "fullUrl": "urn:uuid:24b32322-3fd8-4def-ae66-6149e4710118",
      "resource": {
        "resourceType": "Medication",
        "id": "24b32322-3fd8-4def-ae66-6149e4710118",
        "meta": {
          "profile": [
            "http://hl7.eu/fhir/eps/StructureDefinition/Medication-eu-eps"
          ]
        },
        "code": {
          "coding": [
            {
              "code": "783144007",
              "system": "http://snomed.info/sct",
              "display": "Alendronic acid (as alendronate sodium) 10 mg oral tablet"
            }
          ],
          "text": "Alendronic acid (as alendronate sodium) 10 mg oral tablet"
        },
        "text": {
          "status": "generated",
          "div": "<div xmlns=\"http://www.w3.org/1999/xhtml\">Alendronic acid (as alendronate sodium) 10 mg oral tablet</div>"
        }
      }
    },
    {
      "fullUrl": "urn:uuid:5363e4e6-ed65-4cf3-9c61-3407c15baf67",
      "resource": {
        "resourceType": "MedicationStatement",
        "id": "5363e4e6-ed65-4cf3-9c61-3407c15baf67",
        "meta": {
          "profile": [
            "http://hl7.eu/fhir/eps/StructureDefinition/MedicationStatement-eu-eps"
          ]
        },
        "effectivePeriod": {
          "start": "2025-05-19"
        },
        "dosage": [
          {
            "doseAndRate": [
              {
                "doseQuantity": {
                  "value": 1,
                  "unit": "{tbl}",
                  "code": "{tbl}"
                }
              }
            ],
            "timing": {
              "repeat": {
                "frequency": 1,
                "period": 1,
                "periodUnit": "d"
              }
            },
            "text": "1 tablet (10 mg) once daily",
            "asNeededBoolean": false
          }
        ],
        "reasonCode": [
          {
            "coding": [
              {
                "code": "64859006",
                "system": "http://snomed.info/sct",
                "display": "Osteoporosis (disorder)"
              }
            ]
          }
        ],
        "text": {
          "status": "generated",
          "div": "<div xmlns=\"http://www.w3.org/1999/xhtml\"><table class=\"hl7__ips first25\"><tr><th>Medication</th><th>Since</th><th>Form</th><th>Dosage</th><th>Reason</th></tr><tr><td>Alendronic acid (as alendronate sodium) 10 mg oral tablet</td><td><span class=\"nb\">2025-05-19</span></td><td>-</td><td>1 tablet (10 mg) once daily</td><td>Osteoporosis (disorder)</td></tr></table></div>"
        },
        "status": "active",
        "medicationReference": {
          "reference": "urn:uuid:24b32322-3fd8-4def-ae66-6149e4710118",
          "display": "Alendronic acid (as alendronate sodium) 10 mg oral tablet"
        },
        "subject": {
          "reference": "urn:uuid:b05155a8-6809-4e30-97fd-c38cb107ee70",
          "display": "Timothy Smith"
        }
      }
    },
    {
      "fullUrl": "urn:uuid:c81e69e4-62da-4e4f-8994-f9eb6168fe87",
      "resource": {
        "resourceType": "Medication",
        "id": "c81e69e4-62da-4e4f-8994-f9eb6168fe87",
        "meta": {
          "profile": [
            "http://hl7.eu/fhir/eps/StructureDefinition/Medication-eu-eps"
          ]
        },
        "code": {
          "coding": [
            {
              "code": "319996000",
              "system": "http://snomed.info/sct",
              "display": "Simvastatin 10 mg oral tablet"
            }
          ],
          "text": "Simvastatin 10 mg oral tablet"
        },
        "text": {
          "status": "generated",
          "div": "<div xmlns=\"http://www.w3.org/1999/xhtml\">Simvastatin 10 mg oral tablet</div>"
        }
      }
    },
    {
      "fullUrl": "urn:uuid:658ca630-1cb1-4b48-82ba-2dece3eaa729",
      "resource": {
        "resourceType": "MedicationStatement",
        "id": "658ca630-1cb1-4b48-82ba-2dece3eaa729",
        "meta": {
          "profile": [
            "http://hl7.eu/fhir/eps/StructureDefinition/MedicationStatement-eu-eps"
          ]
        },
        "effectivePeriod": {
          "start": "2025-02-03"
        },
        "dosage": [
          {
            "doseAndRate": [
              {
                "doseQuantity": {
                  "value": 1,
                  "unit": "{tbl}",
                  "code": "{tbl}"
                }
              }
            ],
            "timing": {
              "repeat": {
                "frequency": 1,
                "period": 1,
                "periodUnit": "d"
              }
            },
            "text": "1 tablet (10 mg) by mouth once daily",
            "asNeededBoolean": false
          }
        ],
        "reasonCode": [
          {
            "coding": [
              {
                "code": "55822004",
                "system": "http://snomed.info/sct",
                "display": "Hyperlipidemia"
              }
            ]
          }
        ],
        "text": {
          "status": "generated",
          "div": "<div xmlns=\"http://www.w3.org/1999/xhtml\"><table class=\"hl7__ips first25\"><tr><th>Medication</th><th>Since</th><th>Form</th><th>Dosage</th><th>Reason</th></tr><tr><td>Simvastatin 10 mg oral tablet</td><td><span class=\"nb\">2025-02-03</span></td><td>-</td><td>1 tablet (10 mg) by mouth once daily</td><td>Hyperlipidemia</td></tr></table></div>"
        },
        "status": "active",
        "medicationReference": {
          "reference": "urn:uuid:c81e69e4-62da-4e4f-8994-f9eb6168fe87",
          "display": "Simvastatin 10 mg oral tablet"
        },
        "subject": {
          "reference": "urn:uuid:b05155a8-6809-4e30-97fd-c38cb107ee70",
          "display": "Timothy Smith"
        }
      }
    },
    {
      "fullUrl": "urn:uuid:b095ec8b-7636-46d5-9131-cbe24c3dfc4b",
      "resource": {
        "resourceType": "Medication",
        "id": "b095ec8b-7636-46d5-9131-cbe24c3dfc4b",
        "meta": {
          "profile": [
            "http://hl7.eu/fhir/eps/StructureDefinition/Medication-eu-eps"
          ]
        },
        "code": {
          "coding": [
            {
              "code": "783586007",
              "system": "http://snomed.info/sct",
              "display": "Clopidogrel (as clopidogrel bisulfate) 75 mg oral tablet"
            }
          ],
          "text": "Clopidogrel (as clopidogrel bisulfate) 75 mg oral tablet"
        },
        "text": {
          "status": "generated",
          "div": "<div xmlns=\"http://www.w3.org/1999/xhtml\">Clopidogrel (as clopidogrel bisulfate) 75 mg oral tablet</div>"
        }
      }
    },
    {
      "fullUrl": "urn:uuid:c4c19aff-b123-4f72-a09f-02de972f4b49",
      "resource": {
        "resourceType": "MedicationStatement",
        "id": "c4c19aff-b123-4f72-a09f-02de972f4b49",
        "meta": {
          "profile": [
            "http://hl7.eu/fhir/eps/StructureDefinition/MedicationStatement-eu-eps"
          ]
        },
        "effectivePeriod": {
          "start": "2008-10-27"
        },
        "dosage": [
          {
            "doseAndRate": [
              {
                "doseQuantity": {
                  "value": 1,
                  "unit": "{tbl}",
                  "code": "{tbl}"
                }
              }
            ],
            "timing": {
              "repeat": {
                "frequency": 1,
                "period": 1,
                "periodUnit": "d"
              }
            },
            "text": "1 tablet (75 mg) once daily",
            "asNeededBoolean": false
          }
        ],
        "text": {
          "status": "generated",
          "div": "<div xmlns=\"http://www.w3.org/1999/xhtml\"><table class=\"hl7__ips first25\"><tr><th>Medication</th><th>Since</th><th>Form</th><th>Dosage</th><th>Reason</th></tr><tr><td>Clopidogrel (as clopidogrel bisulfate) 75 mg oral tablet</td><td><span class=\"nb\">2008-10-27</span></td><td>-</td><td>1 tablet (75 mg) once daily</td><td>-</td></tr></table></div>"
        },
        "status": "active",
        "medicationReference": {
          "reference": "urn:uuid:b095ec8b-7636-46d5-9131-cbe24c3dfc4b",
          "display": "Clopidogrel (as clopidogrel bisulfate) 75 mg oral tablet"
        },
        "subject": {
          "reference": "urn:uuid:b05155a8-6809-4e30-97fd-c38cb107ee70",
          "display": "Timothy Smith"
        }
      }
    },
    {
      "fullUrl": "urn:uuid:c665c549-3b8b-465b-ae8f-38e759dc0578",
      "resource": {
        "resourceType": "Medication",
        "id": "c665c549-3b8b-465b-ae8f-38e759dc0578",
        "meta": {
          "profile": [
            "http://hl7.eu/fhir/eps/StructureDefinition/Medication-eu-eps"
          ]
        },
        "code": {
          "coding": [
            {
              "code": "319997009",
              "system": "http://snomed.info/sct",
              "display": "Simvastatin 20 mg oral tablet"
            }
          ],
          "text": "Simvastatin 20 mg oral tablet"
        },
        "text": {
          "status": "generated",
          "div": "<div xmlns=\"http://www.w3.org/1999/xhtml\">Simvastatin 20 mg oral tablet</div>"
        }
      }
    },
    {
      "fullUrl": "urn:uuid:0b5c2519-fee8-4789-8bdd-77b9b791f11e",
      "resource": {
        "resourceType": "MedicationStatement",
        "id": "0b5c2519-fee8-4789-8bdd-77b9b791f11e",
        "meta": {
          "profile": [
            "http://hl7.eu/fhir/eps/StructureDefinition/MedicationStatement-eu-eps"
          ]
        },
        "effectivePeriod": {
          "start": "2008-10-27"
        },
        "dosage": [
          {
            "doseAndRate": [
              {
                "doseQuantity": {
                  "value": 1,
                  "unit": "{tbl}",
                  "code": "{tbl}"
                }
              }
            ],
            "timing": {
              "repeat": {
                "frequency": 1,
                "period": 1,
                "periodUnit": "d"
              }
            },
            "text": "1 tablet (20 mg) once daily",
            "asNeededBoolean": false
          }
        ],
        "text": {
          "status": "generated",
          "div": "<div xmlns=\"http://www.w3.org/1999/xhtml\"><table class=\"hl7__ips first25\"><tr><th>Medication</th><th>Since</th><th>Form</th><th>Dosage</th><th>Reason</th></tr><tr><td>Simvastatin 20 mg oral tablet</td><td><span class=\"nb\">2008-10-27</span></td><td>-</td><td>1 tablet (20 mg) once daily</td><td>-</td></tr></table></div>"
        },
        "status": "active",
        "medicationReference": {
          "reference": "urn:uuid:c665c549-3b8b-465b-ae8f-38e759dc0578",
          "display": "Simvastatin 20 mg oral tablet"
        },
        "subject": {
          "reference": "urn:uuid:b05155a8-6809-4e30-97fd-c38cb107ee70",
          "display": "Timothy Smith"
        }
      }
    },
    {
      "fullUrl": "urn:uuid:48593eaf-6f2b-489d-a508-c55598dc8b82",
      "resource": {
        "resourceType": "Medication",
        "id": "48593eaf-6f2b-489d-a508-c55598dc8b82",
        "meta": {
          "profile": [
            "http://hl7.eu/fhir/eps/StructureDefinition/Medication-eu-eps"
          ]
        },
        "code": {
          "coding": [
            {
              "code": "425176000",
              "system": "http://snomed.info/sct",
              "display": "Nitroglycerin 400 microgram/actuation sublingual spray"
            }
          ],
          "text": "Nitroglycerin 400 microgram/actuation sublingual spray"
        },
        "text": {
          "status": "generated",
          "div": "<div xmlns=\"http://www.w3.org/1999/xhtml\">Nitroglycerin 400 microgram/actuation sublingual spray</div>"
        }
      }
    },
    {
      "fullUrl": "urn:uuid:a61ed48e-ce38-4b8d-974d-c10e75c62cef",
      "resource": {
        "resourceType": "MedicationStatement",
        "id": "a61ed48e-ce38-4b8d-974d-c10e75c62cef",
        "meta": {
          "profile": [
            "http://hl7.eu/fhir/eps/StructureDefinition/MedicationStatement-eu-eps"
          ]
        },
        "effectivePeriod": {
          "start": "2008-10-27"
        },
        "dosage": [
          {
            "doseAndRate": [
              {
                "doseQuantity": {
                  "value": 400,
                  "unit": "microgram",
                  "code": "ug"
                }
              }
            ],
            "timing": {
              "repeat": {
                "frequency": 1,
                "period": 5,
                "periodUnit": "min"
              }
            },
            "text": "400 micrograms per spray, use 1 spray under the tongue as needed for chest pain, may repeat every 5 minutes as needed, up to 3 sprays in 15 minutes",
            "asNeededBoolean": true
          }
        ],
        "text": {
          "status": "generated",
          "div": "<div xmlns=\"http://www.w3.org/1999/xhtml\"><table class=\"hl7__ips first25\"><tr><th>Medication</th><th>Since</th><th>Form</th><th>Dosage</th><th>Reason</th></tr><tr><td>Nitroglycerin 400 microgram/actuation sublingual spray</td><td><span class=\"nb\">2008-10-27</span></td><td>-</td><td>400 micrograms per spray, use 1 spray under the tongue as needed for chest pain, may repeat every 5 minutes as needed, up to 3 sprays in 15 minutes</td><td>-</td></tr></table></div>"
        },
        "status": "active",
        "medicationReference": {
          "reference": "urn:uuid:48593eaf-6f2b-489d-a508-c55598dc8b82",
          "display": "Nitroglycerin 400 microgram/actuation sublingual spray"
        },
        "subject": {
          "reference": "urn:uuid:b05155a8-6809-4e30-97fd-c38cb107ee70",
          "display": "Timothy Smith"
        }
      }
    },
    {
      "fullUrl": "urn:uuid:e3be631b-0ce4-475f-a52d-18c19e98b3ad",
      "resource": {
        "resourceType": "Medication",
        "id": "e3be631b-0ce4-475f-a52d-18c19e98b3ad",
        "meta": {
          "profile": [
            "http://hl7.eu/fhir/eps/StructureDefinition/Medication-eu-eps"
          ]
        },
        "code": {
          "coding": [
            {
              "code": "879980009",
              "system": "http://snomed.info/sct",
              "display": "Metoprolol tartrate (as metoprolol succinate) 100 mg prolonged-release oral tablet"
            }
          ],
          "text": "Metoprolol tartrate (as metoprolol succinate) 100 mg prolonged-release oral tablet"
        },
        "text": {
          "status": "generated",
          "div": "<div xmlns=\"http://www.w3.org/1999/xhtml\">Metoprolol tartrate (as metoprolol succinate) 100 mg prolonged-release oral tablet</div>"
        }
      }
    },
    {
      "fullUrl": "urn:uuid:7edcdcd1-efec-4f5f-a263-5cbecbc7de58",
      "resource": {
        "resourceType": "MedicationStatement",
        "id": "7edcdcd1-efec-4f5f-a263-5cbecbc7de58",
        "meta": {
          "profile": [
            "http://hl7.eu/fhir/eps/StructureDefinition/MedicationStatement-eu-eps"
          ]
        },
        "effectivePeriod": {
          "start": "2008-10-27"
        },
        "dosage": [
          {
            "doseAndRate": [
              {
                "doseQuantity": {
                  "value": 1,
                  "unit": "{tbl}",
                  "code": "{tbl}"
                }
              }
            ],
            "timing": {
              "repeat": {
                "frequency": 1,
                "period": 1,
                "periodUnit": "d"
              }
            },
            "text": "1 tablet (100 mg) once daily",
            "asNeededBoolean": false
          }
        ],
        "text": {
          "status": "generated",
          "div": "<div xmlns=\"http://www.w3.org/1999/xhtml\"><table class=\"hl7__ips first25\"><tr><th>Medication</th><th>Since</th><th>Form</th><th>Dosage</th><th>Reason</th></tr><tr><td>Metoprolol tartrate (as metoprolol succinate) 100 mg prolonged-release oral tablet</td><td><span class=\"nb\">2008-10-27</span></td><td>-</td><td>1 tablet (100 mg) once daily</td><td>-</td></tr></table></div>"
        },
        "status": "active",
        "medicationReference": {
          "reference": "urn:uuid:e3be631b-0ce4-475f-a52d-18c19e98b3ad",
          "display": "Metoprolol tartrate (as metoprolol succinate) 100 mg prolonged-release oral tablet"
        },
        "subject": {
          "reference": "urn:uuid:b05155a8-6809-4e30-97fd-c38cb107ee70",
          "display": "Timothy Smith"
        }
      }
    },
    {
      "fullUrl": "urn:uuid:d2f5b7fc-407e-4e4b-9f78-169a5e2a3658",
      "resource": {
        "resourceType": "Medication",
        "id": "d2f5b7fc-407e-4e4b-9f78-169a5e2a3658",
        "meta": {
          "profile": [
            "http://hl7.eu/fhir/eps/StructureDefinition/Medication-eu-eps"
          ]
        },
        "code": {
          "coding": [
            {
              "code": "765570009",
              "system": "http://snomed.info/sct",
              "display": "Aspirin 81 mg gastro-resistant oral tablet"
            }
          ],
          "text": "Aspirin 81 mg gastro-resistant oral tablet"
        },
        "text": {
          "status": "generated",
          "div": "<div xmlns=\"http://www.w3.org/1999/xhtml\">Aspirin 81 mg gastro-resistant oral tablet</div>"
        }
      }
    },
    {
      "fullUrl": "urn:uuid:36044c0a-ecb1-4a31-a101-24c39b42eaae",
      "resource": {
        "resourceType": "MedicationStatement",
        "id": "36044c0a-ecb1-4a31-a101-24c39b42eaae",
        "meta": {
          "profile": [
            "http://hl7.eu/fhir/eps/StructureDefinition/MedicationStatement-eu-eps"
          ]
        },
        "effectivePeriod": {
          "start": "1991-05-02"
        },
        "dosage": [
          {
            "doseAndRate": [
              {
                "doseQuantity": {
                  "value": 1,
                  "unit": "{tbl}",
                  "system": "$ucum",
                  "code": "{tbl}"
                }
              }
            ],
            "timing": {
              "repeat": {
                "frequency": 1,
                "period": 1,
                "periodUnit": "d"
              }
            },
            "text": "1 tablet (81 mg) by mouth once daily",
            "asNeededBoolean": false
          }
        ],
        "text": {
          "status": "generated",
          "div": "<div xmlns=\"http://www.w3.org/1999/xhtml\"><table class=\"hl7__ips first25\"><tr><th>Medication</th><th>Since</th><th>Form</th><th>Dosage</th><th>Reason</th></tr><tr><td>Aspirin 81 mg gastro-resistant oral tablet</td><td><span class=\"nb\">1991-05-02</span></td><td>-</td><td>1 tablet (81 mg) by mouth once daily</td><td>-</td></tr></table></div>"
        },
        "status": "active",
        "medicationReference": {
          "reference": "urn:uuid:d2f5b7fc-407e-4e4b-9f78-169a5e2a3658",
          "display": "Aspirin 81 mg gastro-resistant oral tablet"
        },
        "subject": {
          "reference": "urn:uuid:b05155a8-6809-4e30-97fd-c38cb107ee70",
          "display": "Timothy Smith"
        }
      }
    },
    {
      "fullUrl": "urn:uuid:f2af3681-4ef5-4384-8648-4295d6c039c0",
      "resource": {
        "resourceType": "Medication",
        "id": "f2af3681-4ef5-4384-8648-4295d6c039c0",
        "meta": {
          "profile": [
            "http://hl7.eu/fhir/eps/StructureDefinition/Medication-eu-eps"
          ]
        },
        "code": {
          "coding": [
            {
              "code": "1145420004",
              "system": "http://snomed.info/sct",
              "display": "Atorvastatin (as atorvastatin calcium) 20 mg oral tablet"
            }
          ],
          "text": "Atorvastatin (as atorvastatin calcium) 20 mg oral tablet"
        },
        "text": {
          "status": "generated",
          "div": "<div xmlns=\"http://www.w3.org/1999/xhtml\">Atorvastatin (as atorvastatin calcium) 20 mg oral tablet</div>"
        }
      }
    },
    {
      "fullUrl": "urn:uuid:203da7d0-26b6-47f8-87b2-ea7be2ff36e7",
      "resource": {
        "resourceType": "MedicationStatement",
        "id": "203da7d0-26b6-47f8-87b2-ea7be2ff36e7",
        "meta": {
          "profile": [
            "http://hl7.eu/fhir/eps/StructureDefinition/MedicationStatement-eu-eps"
          ]
        },
        "effectivePeriod": {
          "start": "1991-05-02"
        },
        "dosage": [
          {
            "doseAndRate": [
              {
                "doseQuantity": {
                  "value": 1,
                  "unit": "{tbl}",
                  "code": "{tbl}"
                }
              }
            ],
            "timing": {
              "repeat": {
                "frequency": 1,
                "period": 1,
                "periodUnit": "d"
              }
            },
            "text": "1 tablet (20 mg) by mouth once daily",
            "asNeededBoolean": false
          }
        ],
        "text": {
          "status": "generated",
          "div": "<div xmlns=\"http://www.w3.org/1999/xhtml\"><table class=\"hl7__ips first25\"><tr><th>Medication</th><th>Since</th><th>Form</th><th>Dosage</th><th>Reason</th></tr><tr><td>Atorvastatin (as atorvastatin calcium) 20 mg oral tablet</td><td><span class=\"nb\">1991-05-02</span></td><td>-</td><td>1 tablet (20 mg) by mouth once daily</td><td>-</td></tr></table></div>"
        },
        "status": "active",
        "medicationReference": {
          "reference": "urn:uuid:f2af3681-4ef5-4384-8648-4295d6c039c0",
          "display": "Atorvastatin (as atorvastatin calcium) 20 mg oral tablet"
        },
        "subject": {
          "reference": "urn:uuid:b05155a8-6809-4e30-97fd-c38cb107ee70",
          "display": "Timothy Smith"
        }
      }
    },
    {
      "fullUrl": "urn:uuid:1374c7ff-a869-42d7-a750-67920e81195e",
      "resource": {
        "resourceType": "Medication",
        "id": "1374c7ff-a869-42d7-a750-67920e81195e",
        "meta": {
          "profile": [
            "http://hl7.eu/fhir/eps/StructureDefinition/Medication-eu-eps"
          ]
        },
        "code": {
          "coding": [
            {
              "code": "783368008",
              "system": "http://snomed.info/sct",
              "display": "Prasugrel (as prasugrel hydrochloride) 10 mg oral tablet"
            }
          ],
          "text": "Prasugrel (as prasugrel hydrochloride) 10 mg oral tablet"
        },
        "text": {
          "status": "generated",
          "div": "<div xmlns=\"http://www.w3.org/1999/xhtml\">Prasugrel (as prasugrel hydrochloride) 10 mg oral tablet</div>"
        }
      }
    },
    {
      "fullUrl": "urn:uuid:f2653142-6b09-4397-9c75-fd51ba8aba4f",
      "resource": {
        "resourceType": "MedicationStatement",
        "id": "f2653142-6b09-4397-9c75-fd51ba8aba4f",
        "meta": {
          "profile": [
            "http://hl7.eu/fhir/eps/StructureDefinition/MedicationStatement-eu-eps"
          ]
        },
        "effectivePeriod": {
          "start": "1991-05-02"
        },
        "dosage": [
          {
            "doseAndRate": [
              {
                "doseQuantity": {
                  "value": 1,
                  "unit": "{tbl}",
                  "code": "{tbl}"
                }
              }
            ],
            "timing": {
              "repeat": {
                "frequency": 1,
                "period": 1,
                "periodUnit": "d"
              }
            },
            "text": "1 tablet (10 mg) once daily",
            "asNeededBoolean": false
          }
        ],
        "text": {
          "status": "generated",
          "div": "<div xmlns=\"http://www.w3.org/1999/xhtml\"><table class=\"hl7__ips first25\"><tr><th>Medication</th><th>Since</th><th>Form</th><th>Dosage</th><th>Reason</th></tr><tr><td>Prasugrel (as prasugrel hydrochloride) 10 mg oral tablet</td><td><span class=\"nb\">1991-05-02</span></td><td>-</td><td>1 tablet (10 mg) once daily</td><td>-</td></tr></table></div>"
        },
        "status": "active",
        "medicationReference": {
          "reference": "urn:uuid:1374c7ff-a869-42d7-a750-67920e81195e",
          "display": "Prasugrel (as prasugrel hydrochloride) 10 mg oral tablet"
        },
        "subject": {
          "reference": "urn:uuid:b05155a8-6809-4e30-97fd-c38cb107ee70",
          "display": "Timothy Smith"
        }
      }
    },
    {
      "fullUrl": "urn:uuid:da19d2e3-9876-4931-9c1c-e16122e312ab",
      "resource": {
        "resourceType": "Medication",
        "id": "da19d2e3-9876-4931-9c1c-e16122e312ab",
        "meta": {
          "profile": [
            "http://hl7.eu/fhir/eps/StructureDefinition/Medication-eu-eps"
          ]
        },
        "code": {
          "coding": [
            {
              "code": "879979006",
              "system": "http://snomed.info/sct",
              "display": "Metoprolol tartrate (as metoprolol succinate) 50 mg prolonged-release oral tablet"
            }
          ],
          "text": "Metoprolol tartrate (as metoprolol succinate) 50 mg prolonged-release oral tablet"
        },
        "text": {
          "status": "generated",
          "div": "<div xmlns=\"http://www.w3.org/1999/xhtml\">Metoprolol tartrate (as metoprolol succinate) 50 mg prolonged-release oral tablet</div>"
        }
      }
    },
    {
      "fullUrl": "urn:uuid:01e10ef0-4295-47e9-b6c1-751ef0ab92e7",
      "resource": {
        "resourceType": "MedicationStatement",
        "id": "01e10ef0-4295-47e9-b6c1-751ef0ab92e7",
        "meta": {
          "profile": [
            "http://hl7.eu/fhir/eps/StructureDefinition/MedicationStatement-eu-eps"
          ]
        },
        "effectivePeriod": {
          "start": "1991-05-02"
        },
        "dosage": [
          {
            "doseAndRate": [
              {
                "doseQuantity": {
                  "value": 1,
                  "unit": "{tbl}",
                  "code": "{tbl}"
                }
              }
            ],
            "timing": {
              "repeat": {
                "frequency": 1,
                "period": 1,
                "periodUnit": "d"
              }
            },
            "text": "1 tablet (50 mg) once daily",
            "asNeededBoolean": false
          }
        ],
        "text": {
          "status": "generated",
          "div": "<div xmlns=\"http://www.w3.org/1999/xhtml\"><table class=\"hl7__ips first25\"><tr><th>Medication</th><th>Since</th><th>Form</th><th>Dosage</th><th>Reason</th></tr><tr><td>Metoprolol tartrate (as metoprolol succinate) 50 mg prolonged-release oral tablet</td><td><span class=\"nb\">1991-05-02</span></td><td>-</td><td>1 tablet (50 mg) once daily</td><td>-</td></tr></table></div>"
        },
        "status": "active",
        "medicationReference": {
          "reference": "urn:uuid:da19d2e3-9876-4931-9c1c-e16122e312ab",
          "display": "Metoprolol tartrate (as metoprolol succinate) 50 mg prolonged-release oral tablet"
        },
        "subject": {
          "reference": "urn:uuid:b05155a8-6809-4e30-97fd-c38cb107ee70",
          "display": "Timothy Smith"
        }
      }
    },
    {
      "fullUrl": "urn:uuid:823dd3c5-8f04-420d-9961-52eff1e02cd0",
      "resource": {
        "resourceType": "Medication",
        "id": "823dd3c5-8f04-420d-9961-52eff1e02cd0",
        "meta": {
          "profile": [
            "http://hl7.eu/fhir/eps/StructureDefinition/Medication-eu-eps"
          ]
        },
        "code": {
          "coding": [
            {
              "code": "407784004",
              "system": "http://snomed.info/sct",
              "display": "Losartan potassium 100 mg oral tablet"
            }
          ],
          "text": "Losartan potassium 100 mg oral tablet"
        },
        "text": {
          "status": "generated",
          "div": "<div xmlns=\"http://www.w3.org/1999/xhtml\">Losartan potassium 100 mg oral tablet</div>"
        }
      }
    },
    {
      "fullUrl": "urn:uuid:c651bc04-49c3-4797-92f6-c77debdf59b4",
      "resource": {
        "resourceType": "MedicationStatement",
        "id": "c651bc04-49c3-4797-92f6-c77debdf59b4",
        "meta": {
          "profile": [
            "http://hl7.eu/fhir/eps/StructureDefinition/MedicationStatement-eu-eps"
          ]
        },
        "effectivePeriod": {
          "start": "1991-05-02"
        },
        "dosage": [
          {
            "doseAndRate": [
              {
                "doseQuantity": {
                  "value": 1,
                  "unit": "{tbl} (100 mg)",
                  "system": "$ucum",
                  "code": "{tbl}"
                }
              }
            ],
            "timing": {
              "repeat": {
                "frequency": 1,
                "period": 1,
                "periodUnit": "d"
              }
            },
            "text": "1 tablet (100 mg) by mouth once daily",
            "asNeededBoolean": false
          }
        ],
        "text": {
          "status": "generated",
          "div": "<div xmlns=\"http://www.w3.org/1999/xhtml\"><table class=\"hl7__ips first25\"><tr><th>Medication</th><th>Since</th><th>Form</th><th>Dosage</th><th>Reason</th></tr><tr><td>Losartan potassium 100 mg oral tablet</td><td><span class=\"nb\">1991-05-02</span></td><td>-</td><td>1 tablet (100 mg) by mouth once daily</td><td>-</td></tr></table></div>"
        },
        "status": "active",
        "medicationReference": {
          "reference": "urn:uuid:823dd3c5-8f04-420d-9961-52eff1e02cd0",
          "display": "Losartan potassium 100 mg oral tablet"
        },
        "subject": {
          "reference": "urn:uuid:b05155a8-6809-4e30-97fd-c38cb107ee70",
          "display": "Timothy Smith"
        }
      }
    },
    {
      "fullUrl": "urn:uuid:66c61a1c-9745-46f0-9074-e3c05bdd4e1e",
      "resource": {
        "resourceType": "Immunization",
        "id": "66c61a1c-9745-46f0-9074-e3c05bdd4e1e",
        "meta": {
          "profile": [
            "http://hl7.org/fhir/uv/ips/StructureDefinition/Immunization-uv-ips"
          ]
        },
        "vaccineCode": {
          "coding": [
            {
              "code": "1181000221105",
              "system": "http://snomed.info/sct",
              "display": "Vaccine product containing Influenza virus antigen"
            },
            {
              "code": "J07BB02",
              "system": "http://www.whocc.no/atc",
              "display": "Influenza, inactivated, split virus"
            }
          ],
          "text": "Influenza virus antigen only vaccine product"
        },
        "site": {
          "coding": [
            {
              "code": "244979005",
              "system": "http://snomed.info/sct",
              "display": "Entire muscle of upper arm"
            }
          ],
          "text": "Entire muscle of upper arm"
        },
        "route": {
          "coding": [
            {
              "code": "78421000",
              "system": "http://snomed.info/sct",
              "display": "Intramuscular route"
            }
          ],
          "text": "Intramuscular route"
        },
        "text": {
          "status": "generated",
          "div": "<div xmlns=\"http://www.w3.org/1999/xhtml\"><table class=\"hl7__ips\"><tr><td>Influenza virus antigen only vaccine product</td><td><span class=\"nb\">20-Jan-2025</span></td></tr></table></div>"
        },
        "status": "completed",
        "patient": {
          "reference": "urn:uuid:b05155a8-6809-4e30-97fd-c38cb107ee70",
          "display": "Timothy Smith"
        },
        "occurrenceDateTime": "2025-01-20",
        "lotNumber": "HK-7Tz5a4R",
        "expirationDate": "2025-12-22"
      }
    },
    {
      "fullUrl": "urn:uuid:9a104c9b-9c7f-4df7-98a9-c7fde9628feb",
      "resource": {
        "resourceType": "Immunization",
        "id": "9a104c9b-9c7f-4df7-98a9-c7fde9628feb",
        "meta": {
          "profile": [
            "http://hl7.org/fhir/uv/ips/StructureDefinition/Immunization-uv-ips"
          ]
        },
        "vaccineCode": {
          "coding": [
            {
              "code": "777725002",
              "system": "http://snomed.info/sct",
              "display": "Vaccine product containing only Clostridium tetani toxoid antigen adsorbed"
            },
            {
              "code": "J07AM51",
              "system": "http://www.whocc.no/atc",
              "display": "Diphtheria-tetanus vaccines, adult type"
            }
          ],
          "text": "Clostridium tetani toxoid antigen adsorbed only vaccine product"
        },
        "site": {
          "coding": [
            {
              "code": "244979005",
              "system": "http://snomed.info/sct",
              "display": "Entire muscle of upper arm"
            }
          ],
          "text": "Entire muscle of upper arm"
        },
        "route": {
          "coding": [
            {
              "code": "78421000",
              "system": "http://snomed.info/sct",
              "display": "Intramuscular route"
            }
          ],
          "text": "Intramuscular route"
        },
        "text": {
          "status": "generated",
          "div": "<div xmlns=\"http://www.w3.org/1999/xhtml\"><table class=\"hl7__ips\"><tr><td>Clostridium tetani toxoid antigen adsorbed only vaccine product</td><td><span class=\"nb\">16-Aug-2021</span></td></tr></table></div>"
        },
        "status": "completed",
        "patient": {
          "reference": "urn:uuid:b05155a8-6809-4e30-97fd-c38cb107ee70",
          "display": "Timothy Smith"
        },
        "occurrenceDateTime": "2021-08-16",
        "lotNumber": "ME-V7cs",
        "expirationDate": "2021-10-21"
      }
    },
    {
      "fullUrl": "urn:uuid:9b18952a-f0b3-43b9-b0ef-e2733a20b221",
      "resource": {
        "resourceType": "Immunization",
        "id": "9b18952a-f0b3-43b9-b0ef-e2733a20b221",
        "meta": {
          "profile": [
            "http://hl7.org/fhir/uv/ips/StructureDefinition/Immunization-uv-ips"
          ]
        },
        "vaccineCode": {
          "coding": [
            {
              "code": "1119349007",
              "system": "http://snomed.info/sct",
              "display": "Vaccine product containing SARS-CoV-2 mRNA"
            },
            {
              "code": "J07BX03",
              "system": "http://www.whocc.no/atc",
              "display": "COVID-19 mRNA vaccines"
            }
          ],
          "text": "SARS-CoV-2 mRNA vaccine"
        },
        "site": {
          "coding": [
            {
              "code": "244979005",
              "system": "http://snomed.info/sct",
              "display": "Entire muscle of upper arm"
            }
          ],
          "text": "Entire muscle of upper arm"
        },
        "route": {
          "coding": [
            {
              "code": "78421000",
              "system": "http://snomed.info/sct",
              "display": "Intramuscular route"
            }
          ],
          "text": "Intramuscular route"
        },
        "text": {
          "status": "generated",
          "div": "<div xmlns=\"http://www.w3.org/1999/xhtml\"><table class=\"hl7__ips\"><tr><td>SARS-CoV-2 mRNA vaccine</td><td><span class=\"nb\">22-Feb-2021</span></td></tr></table></div>"
        },
        "status": "completed",
        "patient": {
          "reference": "urn:uuid:b05155a8-6809-4e30-97fd-c38cb107ee70",
          "display": "Timothy Smith"
        },
        "occurrenceDateTime": "2021-02-22",
        "lotNumber": "RJ-sp3m",
        "expirationDate": "2021-08-03"
      }
    },
    {
      "fullUrl": "urn:uuid:61a9b79d-3d2c-46f9-8e06-a9726a1249f3",
      "resource": {
        "resourceType": "Procedure",
        "id": "61a9b79d-3d2c-46f9-8e06-a9726a1249f3",
        "meta": {
          "profile": [
            "http://hl7.org/fhir/uv/ips/StructureDefinition/Procedure-uv-ips"
          ]
        },
        "code": {
          "coding": [
            {
              "code": "58000006",
              "system": "http://snomed.info/sct",
              "display": "Patient discharge (procedure)"
            }
          ],
          "text": "Patient discharge"
        },
        "text": {
          "status": "generated",
          "div": "<div xmlns=\"http://www.w3.org/1999/xhtml\"><table class=\"hl7__ips\"><tr><td>Patient discharge</td><td><span class=\"nb\">25-Jun-2025</span></td><td>-</td></tr></table></div>"
        },
        "status": "completed",
        "performedDateTime": "2025-06-25",
        "subject": {
          "reference": "urn:uuid:",
          "display": "Timothy Smith"
        }
      }
    },
    {
      "fullUrl": "urn:uuid:e08c9bd3-c7f1-43e9-807e-60d1a60703c3",
      "resource": {
        "resourceType": "Procedure",
        "id": "e08c9bd3-c7f1-43e9-807e-60d1a60703c3",
        "meta": {
          "profile": [
            "http://hl7.org/fhir/uv/ips/StructureDefinition/Procedure-uv-ips"
          ]
        },
        "code": {
          "coding": [
            {
              "code": "385763009",
              "system": "http://snomed.info/sct",
              "display": "Hospice care (regime/therapy)"
            }
          ],
          "text": "Hospice care"
        },
        "text": {
          "status": "generated",
          "div": "<div xmlns=\"http://www.w3.org/1999/xhtml\"><table class=\"hl7__ips\"><tr><td>Hospice care</td><td><span class=\"nb\">24-Jun-2025</span></td><td>-</td></tr></table></div>"
        },
        "status": "completed",
        "performedDateTime": "2025-06-24",
        "subject": {
          "reference": "urn:uuid:",
          "display": "Timothy Smith"
        }
      }
    },
    {
      "fullUrl": "urn:uuid:f1c3a1a7-218d-40d4-bc65-3e0a36075c0d",
      "resource": {
        "resourceType": "Procedure",
        "id": "f1c3a1a7-218d-40d4-bc65-3e0a36075c0d",
        "meta": {
          "profile": [
            "http://hl7.org/fhir/uv/ips/StructureDefinition/Procedure-uv-ips"
          ]
        },
        "code": {
          "coding": [
            {
              "code": "185087000",
              "system": "http://snomed.info/sct",
              "display": "Notifications (procedure)"
            }
          ],
          "text": "Notifications"
        },
        "text": {
          "status": "generated",
          "div": "<div xmlns=\"http://www.w3.org/1999/xhtml\"><table class=\"hl7__ips\"><tr><td>Notifications</td><td><span class=\"nb\">09-Jun-2025</span></td><td>-</td></tr></table></div>"
        },
        "status": "completed",
        "performedDateTime": "2025-06-09",
        "subject": {
          "reference": "urn:uuid:",
          "display": "Timothy Smith"
        }
      }
    },
    {
      "fullUrl": "urn:uuid:35b7280e-7151-4c44-8a76-e13a2f13504a",
      "resource": {
        "resourceType": "Procedure",
        "id": "35b7280e-7151-4c44-8a76-e13a2f13504a",
        "meta": {
          "profile": [
            "http://hl7.org/fhir/uv/ips/StructureDefinition/Procedure-uv-ips"
          ]
        },
        "code": {
          "coding": [
            {
              "code": "310417005",
              "system": "http://snomed.info/sct",
              "display": "Certification procedure (procedure)"
            }
          ],
          "text": "Certification procedure"
        },
        "text": {
          "status": "generated",
          "div": "<div xmlns=\"http://www.w3.org/1999/xhtml\"><table class=\"hl7__ips\"><tr><td>Certification procedure</td><td><span class=\"nb\">09-Jun-2025</span></td><td>-</td></tr></table></div>"
        },
        "status": "completed",
        "performedDateTime": "2025-06-09",
        "subject": {
          "reference": "urn:uuid:",
          "display": "Timothy Smith"
        }
      }
    },
    {
      "fullUrl": "urn:uuid:534e66bc-2ec4-4368-ba8b-33d6e0d75739",
      "resource": {
        "resourceType": "Procedure",
        "id": "534e66bc-2ec4-4368-ba8b-33d6e0d75739",
        "meta": {
          "profile": [
            "http://hl7.org/fhir/uv/ips/StructureDefinition/Procedure-uv-ips"
          ]
        },
        "code": {
          "coding": [
            {
              "code": "315639002",
              "system": "http://snomed.info/sct",
              "display": "Initial patient assessment (procedure)"
            }
          ],
          "text": "Initial patient assessment"
        },
        "text": {
          "status": "generated",
          "div": "<div xmlns=\"http://www.w3.org/1999/xhtml\"><table class=\"hl7__ips\"><tr><td>Initial patient assessment</td><td><span class=\"nb\">09-Jun-2025</span></td><td>-</td></tr></table></div>"
        },
        "status": "completed",
        "performedDateTime": "2025-06-09",
        "subject": {
          "reference": "urn:uuid:",
          "display": "Timothy Smith"
        }
      }
    },
    {
      "fullUrl": "urn:uuid:56b10204-b065-4241-aec8-069f7e3e96af",
      "resource": {
        "resourceType": "Procedure",
        "id": "56b10204-b065-4241-aec8-069f7e3e96af",
        "meta": {
          "profile": [
            "http://hl7.org/fhir/uv/ips/StructureDefinition/Procedure-uv-ips"
          ]
        },
        "code": {
          "coding": [
            {
              "code": "370789001",
              "system": "http://snomed.info/sct",
              "display": "Development of individualized plan of care (procedure)"
            }
          ],
          "text": "Development of individualized plan of care"
        },
        "text": {
          "status": "generated",
          "div": "<div xmlns=\"http://www.w3.org/1999/xhtml\"><table class=\"hl7__ips\"><tr><td>Development of individualized plan of care</td><td><span class=\"nb\">09-Jun-2025</span></td><td>-</td></tr></table></div>"
        },
        "status": "completed",
        "performedDateTime": "2025-06-09",
        "subject": {
          "reference": "urn:uuid:",
          "display": "Timothy Smith"
        }
      }
    },
    {
      "fullUrl": "urn:uuid:d953ca1b-795d-407b-b1b6-7bf576f0d60f",
      "resource": {
        "resourceType": "Procedure",
        "id": "d953ca1b-795d-407b-b1b6-7bf576f0d60f",
        "meta": {
          "profile": [
            "http://hl7.org/fhir/uv/ips/StructureDefinition/Procedure-uv-ips"
          ]
        },
        "code": {
          "coding": [
            {
              "code": "103750000",
              "system": "http://snomed.info/sct",
              "display": "Sleep apnea assessment (procedure)"
            }
          ],
          "text": "Sleep apnea assessment"
        },
        "reasonCode": [
          {
            "coding": [
              {
                "code": "39898005",
                "system": "http://snomed.info/sct",
                "display": "Sleep disorder (disorder)"
              }
            ]
          }
        ],
        "text": {
          "status": "generated",
          "div": "<div xmlns=\"http://www.w3.org/1999/xhtml\"><table class=\"hl7__ips\"><tr><td>Sleep apnea assessment</td><td><span class=\"nb\">19-May-2025</span></td><td>Sleep disorder (disorder)</td></tr></table></div>"
        },
        "status": "completed",
        "performedDateTime": "2025-05-19",
        "subject": {
          "reference": "urn:uuid:",
          "display": "Timothy Smith"
        }
      }
    },
    {
      "fullUrl": "urn:uuid:5106d7ec-19e9-4937-a903-9463c4f6de62",
      "resource": {
        "resourceType": "Procedure",
        "id": "5106d7ec-19e9-4937-a903-9463c4f6de62",
        "meta": {
          "profile": [
            "http://hl7.org/fhir/uv/ips/StructureDefinition/Procedure-uv-ips"
          ]
        },
        "code": {
          "coding": [
            {
              "code": "171207006",
              "system": "http://snomed.info/sct",
              "display": "Depression screening (procedure)"
            }
          ],
          "text": "Depression screening"
        },
        "text": {
          "status": "generated",
          "div": "<div xmlns=\"http://www.w3.org/1999/xhtml\"><table class=\"hl7__ips\"><tr><td>Depression screening</td><td><span class=\"nb\">19-May-2025</span></td><td>-</td></tr></table></div>"
        },
        "status": "completed",
        "performedDateTime": "2025-05-19",
        "subject": {
          "reference": "urn:uuid:",
          "display": "Timothy Smith"
        }
      }
    },
    {
      "fullUrl": "urn:uuid:6511ce20-f99d-4efa-bf68-1bdabe9dac6b",
      "resource": {
        "resourceType": "Procedure",
        "id": "6511ce20-f99d-4efa-bf68-1bdabe9dac6b",
        "meta": {
          "profile": [
            "http://hl7.org/fhir/uv/ips/StructureDefinition/Procedure-uv-ips"
          ]
        },
        "code": {
          "coding": [
            {
              "code": "710824005",
              "system": "http://snomed.info/sct",
              "display": "Assessment of health and social care needs (procedure)"
            }
          ],
          "text": "Assessment of health and social care needs"
        },
        "text": {
          "status": "generated",
          "div": "<div xmlns=\"http://www.w3.org/1999/xhtml\"><table class=\"hl7__ips\"><tr><td>Assessment of health and social care needs</td><td><span class=\"nb\">19-May-2025</span></td><td>-</td></tr></table></div>"
        },
        "status": "completed",
        "performedDateTime": "2025-05-19",
        "subject": {
          "reference": "urn:uuid:",
          "display": "Timothy Smith"
        }
      }
    },
    {
      "fullUrl": "urn:uuid:86c25cfa-c505-4f2a-b95a-32bd853529a6",
      "resource": {
        "resourceType": "Procedure",
        "id": "86c25cfa-c505-4f2a-b95a-32bd853529a6",
        "meta": {
          "profile": [
            "http://hl7.org/fhir/uv/ips/StructureDefinition/Procedure-uv-ips"
          ]
        },
        "code": {
          "coding": [
            {
              "code": "762993000",
              "system": "http://snomed.info/sct",
              "display": "Assessment using Morse Fall Scale (procedure)"
            }
          ],
          "text": "Assessment using Morse Fall Scale"
        },
        "text": {
          "status": "generated",
          "div": "<div xmlns=\"http://www.w3.org/1999/xhtml\"><table class=\"hl7__ips\"><tr><td>Assessment using Morse Fall Scale</td><td><span class=\"nb\">19-May-2025</span></td><td>-</td></tr></table></div>"
        },
        "status": "completed",
        "performedDateTime": "2025-05-19",
        "subject": {
          "reference": "urn:uuid:",
          "display": "Timothy Smith"
        }
      }
    },
    {
      "fullUrl": "urn:uuid:4832dd5e-17c8-4f31-8dfd-2669b0dcbec4",
      "resource": {
        "resourceType": "Procedure",
        "id": "4832dd5e-17c8-4f31-8dfd-2669b0dcbec4",
        "meta": {
          "profile": [
            "http://hl7.org/fhir/uv/ips/StructureDefinition/Procedure-uv-ips"
          ]
        },
        "code": {
          "coding": [
            {
              "code": "866148006",
              "system": "http://snomed.info/sct",
              "display": "Screening for domestic abuse (procedure)"
            }
          ],
          "text": "Screening for domestic abuse"
        },
        "text": {
          "status": "generated",
          "div": "<div xmlns=\"http://www.w3.org/1999/xhtml\"><table class=\"hl7__ips\"><tr><td>Screening for domestic abuse</td><td><span class=\"nb\">19-May-2025</span></td><td>-</td></tr></table></div>"
        },
        "status": "completed",
        "performedDateTime": "2025-05-19",
        "subject": {
          "reference": "urn:uuid:",
          "display": "Timothy Smith"
        }
      }
    },
    {
      "fullUrl": "urn:uuid:4d9b73d6-79f6-4a73-b6c1-90fe2f1b13ce",
      "resource": {
        "resourceType": "Procedure",
        "id": "4d9b73d6-79f6-4a73-b6c1-90fe2f1b13ce",
        "meta": {
          "profile": [
            "http://hl7.org/fhir/uv/ips/StructureDefinition/Procedure-uv-ips"
          ]
        },
        "code": {
          "coding": [
            {
              "code": "454711000124102",
              "system": "http://snomed.info/sct",
              "display": "Depression screening using Patient Health Questionnaire Two-Item score (procedure)"
            }
          ]
        },
        "text": {
          "status": "generated",
          "div": "<div xmlns=\"http://www.w3.org/1999/xhtml\"><table class=\"hl7__ips\"><tr><td>Depression screening using Patient Health Questionnaire Two-Item score (procedure)</td><td><span class=\"nb\">19-May-2025</span></td><td>-</td></tr></table></div>"
        },
        "status": "completed",
        "performedDateTime": "2025-05-19",
        "subject": {
          "reference": "urn:uuid:",
          "display": "Timothy Smith"
        }
      }
    },
    {
      "fullUrl": "urn:uuid:4c299f60-b8e5-4469-8f78-b62e7dad3712",
      "resource": {
        "resourceType": "Procedure",
        "id": "4c299f60-b8e5-4469-8f78-b62e7dad3712",
        "meta": {
          "profile": [
            "http://hl7.org/fhir/uv/ips/StructureDefinition/Procedure-uv-ips"
          ]
        },
        "code": {
          "coding": [
            {
              "code": "423475008",
              "system": "http://snomed.info/sct",
              "display": "Heart failure education (procedure)"
            }
          ],
          "text": "Heart failure education"
        },
        "reasonCode": [
          {
            "coding": [
              {
                "code": "88805009",
                "system": "http://snomed.info/sct",
                "display": "Chronic congestive heart failure (disorder)"
              }
            ]
          }
        ],
        "text": {
          "status": "generated",
          "div": "<div xmlns=\"http://www.w3.org/1999/xhtml\"><table class=\"hl7__ips\"><tr><td>Heart failure education</td><td><span class=\"nb\">31-Jan-2025</span></td><td>Chronic congestive heart failure (disorder)</td></tr></table></div>"
        },
        "status": "completed",
        "performedDateTime": "2025-01-31",
        "subject": {
          "reference": "urn:uuid:",
          "display": "Timothy Smith"
        }
      }
    },
    {
      "fullUrl": "urn:uuid:b0f2b650-4425-4d34-aab5-6ac5d3b0eca6",
      "resource": {
        "resourceType": "Procedure",
        "id": "b0f2b650-4425-4d34-aab5-6ac5d3b0eca6",
        "meta": {
          "profile": [
            "http://hl7.org/fhir/uv/ips/StructureDefinition/Procedure-uv-ips"
          ]
        },
        "code": {
          "coding": [
            {
              "code": "371908008",
              "system": "http://snomed.info/sct",
              "display": "Oxygen administration by mask (procedure)"
            }
          ],
          "text": "Oxygen administration by mask"
        },
        "text": {
          "status": "generated",
          "div": "<div xmlns=\"http://www.w3.org/1999/xhtml\"><table class=\"hl7__ips\"><tr><td>Oxygen administration by mask</td><td><span class=\"nb\">30-Jan-2025</span></td><td>-</td></tr></table></div>"
        },
        "status": "completed",
        "performedDateTime": "2025-01-30",
        "subject": {
          "reference": "urn:uuid:",
          "display": "Timothy Smith"
        }
      }
    },
    {
      "fullUrl": "urn:uuid:00abaaf0-4ba3-4665-8028-563f6a318a5d",
      "resource": {
        "resourceType": "Procedure",
        "id": "00abaaf0-4ba3-4665-8028-563f6a318a5d",
        "meta": {
          "profile": [
            "http://hl7.org/fhir/uv/ips/StructureDefinition/Procedure-uv-ips"
          ]
        },
        "code": {
          "coding": [
            {
              "code": "431182000",
              "system": "http://snomed.info/sct",
              "display": "Placing subject in prone position (procedure)"
            }
          ],
          "text": "Placing subject in prone position"
        },
        "text": {
          "status": "generated",
          "div": "<div xmlns=\"http://www.w3.org/1999/xhtml\"><table class=\"hl7__ips\"><tr><td>Placing subject in prone position</td><td><span class=\"nb\">30-Jan-2025</span></td><td>-</td></tr></table></div>"
        },
        "status": "completed",
        "performedDateTime": "2025-01-30",
        "subject": {
          "reference": "urn:uuid:",
          "display": "Timothy Smith"
        }
      }
    },
    {
      "fullUrl": "urn:uuid:262cad24-e877-497f-a2c1-2f5b0a29513e",
      "resource": {
        "resourceType": "Procedure",
        "id": "262cad24-e877-497f-a2c1-2f5b0a29513e",
        "meta": {
          "profile": [
            "http://hl7.org/fhir/uv/ips/StructureDefinition/Procedure-uv-ips"
          ]
        },
        "code": {
          "coding": [
            {
              "code": "29303009",
              "system": "http://snomed.info/sct",
              "display": "Electrocardiographic procedure"
            }
          ],
          "text": "Electrocardiographic procedure"
        },
        "reasonCode": [
          {
            "coding": [
              {
                "code": "88805009",
                "system": "http://snomed.info/sct",
                "display": "Chronic congestive heart failure (disorder)"
              }
            ]
          }
        ],
        "text": {
          "status": "generated",
          "div": "<div xmlns=\"http://www.w3.org/1999/xhtml\"><table class=\"hl7__ips\"><tr><td>Electrocardiographic procedure</td><td><span class=\"nb\">27-Jan-2025</span></td><td>Chronic congestive heart failure (disorder)</td></tr></table></div>"
        },
        "status": "completed",
        "performedDateTime": "2025-01-27",
        "subject": {
          "reference": "urn:uuid:",
          "display": "Timothy Smith"
        }
      }
    },
    {
      "fullUrl": "urn:uuid:c2e38ad6-6029-4b72-9784-4ea42e54e4f1",
      "resource": {
        "resourceType": "Procedure",
        "id": "c2e38ad6-6029-4b72-9784-4ea42e54e4f1",
        "meta": {
          "profile": [
            "http://hl7.org/fhir/uv/ips/StructureDefinition/Procedure-uv-ips"
          ]
        },
        "code": {
          "coding": [
            {
              "code": "40701008",
              "system": "http://snomed.info/sct",
              "display": "Echocardiography (procedure)"
            }
          ],
          "text": "Echocardiography"
        },
        "text": {
          "status": "generated",
          "div": "<div xmlns=\"http://www.w3.org/1999/xhtml\"><table class=\"hl7__ips\"><tr><td>Echocardiography</td><td><span class=\"nb\">27-Jan-2025</span></td><td>-</td></tr></table></div>"
        },
        "status": "completed",
        "performedDateTime": "2025-01-27",
        "subject": {
          "reference": "urn:uuid:",
          "display": "Timothy Smith"
        }
      }
    },
    {
      "fullUrl": "urn:uuid:8cc6cc9f-89c4-45b6-93ce-629a44a9b33e",
      "resource": {
        "resourceType": "Procedure",
        "id": "8cc6cc9f-89c4-45b6-93ce-629a44a9b33e",
        "meta": {
          "profile": [
            "http://hl7.org/fhir/uv/ips/StructureDefinition/Procedure-uv-ips"
          ]
        },
        "code": {
          "coding": [
            {
              "code": "399208008",
              "system": "http://snomed.info/sct",
              "display": "Plain chest X-ray (procedure)"
            }
          ],
          "text": "Plain X-ray of chest"
        },
        "text": {
          "status": "generated",
          "div": "<div xmlns=\"http://www.w3.org/1999/xhtml\"><table class=\"hl7__ips\"><tr><td>Plain X-ray of chest</td><td><span class=\"nb\">27-Jan-2025</span></td><td>-</td></tr></table></div>"
        },
        "status": "completed",
        "performedDateTime": "2025-01-27",
        "subject": {
          "reference": "urn:uuid:",
          "display": "Timothy Smith"
        }
      }
    },
    {
      "fullUrl": "urn:uuid:32c14605-39c6-4659-ab44-be6e131f5d16",
      "resource": {
        "resourceType": "Procedure",
        "id": "32c14605-39c6-4659-ab44-be6e131f5d16",
        "meta": {
          "profile": [
            "http://hl7.org/fhir/uv/ips/StructureDefinition/Procedure-uv-ips"
          ]
        },
        "code": {
          "coding": [
            {
              "code": "430193006",
              "system": "http://snomed.info/sct",
              "display": "Medication Reconciliation (procedure)"
            }
          ],
          "text": "Medication reconciliation"
        },
        "text": {
          "status": "generated",
          "div": "<div xmlns=\"http://www.w3.org/1999/xhtml\"><table class=\"hl7__ips\"><tr><td>Medication reconciliation</td><td><span class=\"nb\">27-Jan-2025</span></td><td>-</td></tr></table></div>"
        },
        "status": "completed",
        "performedDateTime": "2025-01-27",
        "subject": {
          "reference": "urn:uuid:",
          "display": "Timothy Smith"
        }
      }
    },
    {
      "fullUrl": "urn:uuid:352a7e80-ce10-41ef-9b80-295f60d038b6",
      "resource": {
        "resourceType": "Procedure",
        "id": "352a7e80-ce10-41ef-9b80-295f60d038b6",
        "meta": {
          "profile": [
            "http://hl7.org/fhir/uv/ips/StructureDefinition/Procedure-uv-ips"
          ]
        },
        "code": {
          "coding": [
            {
              "code": "710841007",
              "system": "http://snomed.info/sct",
              "display": "Assessment of anxiety (procedure)"
            }
          ],
          "text": "Assessment of anxiety"
        },
        "text": {
          "status": "generated",
          "div": "<div xmlns=\"http://www.w3.org/1999/xhtml\"><table class=\"hl7__ips\"><tr><td>Assessment of anxiety</td><td><span class=\"nb\">25-Jun-2018</span></td><td>-</td></tr></table></div>"
        },
        "status": "completed",
        "performedDateTime": "2018-06-25",
        "subject": {
          "reference": "urn:uuid:",
          "display": "Timothy Smith"
        }
      }
    },
    {
      "fullUrl": "urn:uuid:fb85bfe8-155d-4ab0-9f32-e0d4c8df14c3",
      "resource": {
        "resourceType": "Procedure",
        "id": "fb85bfe8-155d-4ab0-9f32-e0d4c8df14c3",
        "meta": {
          "profile": [
            "http://hl7.org/fhir/uv/ips/StructureDefinition/Procedure-uv-ips"
          ]
        },
        "code": {
          "coding": [
            {
              "code": "63332003",
              "system": "http://snomed.info/sct",
              "display": "History AND physical examination (procedure)"
            }
          ],
          "text": "History AND physical examination"
        },
        "reasonCode": [
          {
            "coding": [
              {
                "code": "60573004",
                "system": "http://snomed.info/sct",
                "display": "Aortic valve stenosis (disorder)"
              }
            ]
          }
        ],
        "text": {
          "status": "generated",
          "div": "<div xmlns=\"http://www.w3.org/1999/xhtml\"><table class=\"hl7__ips\"><tr><td>History AND physical examination</td><td><span class=\"nb\">18-Jan-2016</span></td><td>Aortic valve stenosis (disorder)</td></tr></table></div>"
        },
        "status": "completed",
        "performedDateTime": "2016-01-18",
        "subject": {
          "reference": "urn:uuid:",
          "display": "Timothy Smith"
        }
      }
    },
    {
      "fullUrl": "urn:uuid:050b7198-2319-4468-bd08-dba632f38907",
      "resource": {
        "resourceType": "Procedure",
        "id": "050b7198-2319-4468-bd08-dba632f38907",
        "meta": {
          "profile": [
            "http://hl7.org/fhir/uv/ips/StructureDefinition/Procedure-uv-ips"
          ]
        },
        "code": {
          "coding": [
            {
              "code": "183976008",
              "system": "http://snomed.info/sct",
              "display": "Operative procedure planned (situation)"
            }
          ],
          "text": "Operative procedure planned"
        },
        "reasonCode": [
          {
            "coding": [
              {
                "code": "60573004",
                "system": "http://snomed.info/sct",
                "display": "Aortic valve stenosis (disorder)"
              }
            ]
          }
        ],
        "text": {
          "status": "generated",
          "div": "<div xmlns=\"http://www.w3.org/1999/xhtml\"><table class=\"hl7__ips\"><tr><td>Operative procedure planned</td><td><span class=\"nb\">18-Jan-2016</span></td><td>Aortic valve stenosis (disorder)</td></tr></table></div>"
        },
        "status": "completed",
        "performedDateTime": "2016-01-18",
        "subject": {
          "reference": "urn:uuid:",
          "display": "Timothy Smith"
        }
      }
    },
    {
      "fullUrl": "urn:uuid:394710b5-17b1-472f-b55b-6c4b353b865c",
      "resource": {
        "resourceType": "Procedure",
        "id": "394710b5-17b1-472f-b55b-6c4b353b865c",
        "meta": {
          "profile": [
            "http://hl7.org/fhir/uv/ips/StructureDefinition/Procedure-uv-ips"
          ]
        },
        "code": {
          "coding": [
            {
              "code": "306185001",
              "system": "http://snomed.info/sct",
              "display": "Referral to cardiac surgery service (procedure)"
            }
          ],
          "text": "Referral to cardiac surgery service"
        },
        "reasonCode": [
          {
            "coding": [
              {
                "code": "60573004",
                "system": "http://snomed.info/sct",
                "display": "Aortic valve stenosis (disorder)"
              }
            ]
          }
        ],
        "text": {
          "status": "generated",
          "div": "<div xmlns=\"http://www.w3.org/1999/xhtml\"><table class=\"hl7__ips\"><tr><td>Referral to cardiac surgery service</td><td><span class=\"nb\">18-Jan-2016</span></td><td>Aortic valve stenosis (disorder)</td></tr></table></div>"
        },
        "status": "completed",
        "performedDateTime": "2016-01-18",
        "subject": {
          "reference": "urn:uuid:",
          "display": "Timothy Smith"
        }
      }
    },
    {
      "fullUrl": "urn:uuid:f7d18fe7-77bc-4a07-b7f3-ef27532167fe",
      "resource": {
        "resourceType": "Procedure",
        "id": "f7d18fe7-77bc-4a07-b7f3-ef27532167fe",
        "meta": {
          "profile": [
            "http://hl7.org/fhir/uv/ips/StructureDefinition/Procedure-uv-ips"
          ]
        },
        "code": {
          "coding": [
            {
              "code": "452331000124102",
              "system": "http://snomed.info/sct",
              "display": "Review of imaging finding (procedure)"
            }
          ]
        },
        "reasonCode": [
          {
            "coding": [
              {
                "code": "60573004",
                "system": "http://snomed.info/sct",
                "display": "Aortic valve stenosis (disorder)"
              }
            ]
          }
        ],
        "text": {
          "status": "generated",
          "div": "<div xmlns=\"http://www.w3.org/1999/xhtml\"><table class=\"hl7__ips\"><tr><td>Review of imaging finding (procedure)</td><td><span class=\"nb\">18-Jan-2016</span></td><td>Aortic valve stenosis (disorder)</td></tr></table></div>"
        },
        "status": "completed",
        "performedDateTime": "2016-01-18",
        "subject": {
          "reference": "urn:uuid:",
          "display": "Timothy Smith"
        }
      }
    },
    {
      "fullUrl": "urn:uuid:a8ceb399-dc64-4c44-91b0-050ff70df1a0",
      "resource": {
        "resourceType": "AllergyIntolerance",
        "id": "a8ceb399-dc64-4c44-91b0-050ff70df1a0",
        "meta": {
          "profile": [
            "http://hl7.eu/fhir/eps/StructureDefinition/allergyIntolerance-eu-eps"
          ]
        },
        "code": {
          "text": ""
        },
        "clinicalStatus": {
          "coding": [
            {
              "code": "active",
              "system": "http://terminology.hl7.org/CodeSystem/allergyintolerance-clinical"
            }
          ]
        },
        "text": {
          "status": "generated",
          "div": "<div xmlns=\"http://www.w3.org/1999/xhtml\"><table class=\"hl7__ips\"><tr><th>Allergy/Intolerance</th><th>Onset Date</th><th>Status</th><th>Type</th><th>Reaction</th></tr><tr><td></td><td>?</td><td>active</td><td>?</td><td></td></tr></table></div>"
        },
        "verificationStatus": {
          "coding": [
            {
              "code": "confirmed",
              "system": "http://terminology.hl7.org/CodeSystem/allergyintolerance-verification"
            }
          ]
        },
        "patient": {
          "reference": "urn:uuid:b05155a8-6809-4e30-97fd-c38cb107ee70",
          "display": "Timothy Smith"
        },
        "_onsetDateTime": {
          "extension": [
            {
              "url": "http://hl7.org/fhir/StructureDefinition/data-absent-reason",
              "valueCode": "unknown"
            }
          ]
        }
      }
    },
    {
      "fullUrl": "urn:uuid:b109f340-7e87-4203-8531-aa96262d8602",
      "resource": {
        "resourceType": "CarePlan",
        "id": "b109f340-7e87-4203-8531-aa96262d8602",
        "category": [
          {
            "coding": [
              {
                "code": "assess-plan",
                "system": "http://terminology.hl7.org/CodeSystem/care-plan-category",
                "display": "Assessment and Plan"
              }
            ]
          }
        ],
        "activity": [
          {
            "detail": {
              "code": {
                "coding": [
                  {
                    "code": "735984001",
                    "system": "http://snomed.info/sct",
                    "display": "Heart failure self management plan (record artifact)"
                  }
                ]
              },
              "reasonCode": [
                {
                  "coding": [
                    {
                      "code": "88805009",
                      "system": "http://snomed.info/sct",
                      "display": "Chronic congestive heart failure (disorder)"
                    }
                  ]
                }
              ],
              "status": "unknown",
              "description": "Heart failure self management plan",
              "kind": "Appointment"
            }
          }
        ],
        "period": {
          "start": "2024-07-17"
        },
        "goal": [
          {
            "reference": "urn:uuid:c3313515-5bfb-4a07-8c2d-1bfca89a01a2"
          },
          {
            "reference": "urn:uuid:6cc5cd07-d694-40d7-9b6e-56858fe34be8"
          },
          {
            "reference": "urn:uuid:413c4c0d-94e2-4ffd-a397-abc72db1862a"
          },
          {
            "reference": "urn:uuid:e07fc31c-fe48-45dd-8700-4caa1770c7d1"
          },
          {
            "reference": "urn:uuid:88549075-0a2f-479e-aaff-78af7b17754e"
          }
        ],
        "text": {
          "status": "generated",
          "div": "<div xmlns=\"http://www.w3.org/1999/xhtml\"><table class=\"hl7__ips first25\"><tr><th>Active Planned Care / Goals</th><th>Start Date</th><th>Reason</th></tr><tr><td>Heart failure self management plan</td><td><span class=\"nb\">17-Jul-2024</span></td><td>Chronic congestive heart failure (disorder)</td></tr><tr><td><ul><li>Patient will monitor and record weight daily to detect early signs of fluid retention.</li><li>Patient will limit sodium intake to less than 2 grams per day.</li><li>Patient will restrict daily fluid intake as recommended.</li><li>Patient will take all heart failure medications as prescribed without missing doses.</li><li>Patient will recognize and promptly report symptoms such as increased shortness of breath, swelling, or rapid weight gain.</li></ul></td><td></td><td></td></tr></table></div>"
        },
        "status": "active",
        "intent": "plan",
        "subject": {
          "reference": "urn:uuid:b05155a8-6809-4e30-97fd-c38cb107ee70",
          "display": "Timothy Smith"
        }
      }
    },
    {
      "fullUrl": "urn:uuid:8451f4e1-0d1e-4c8f-8322-5ccc59e5490d",
      "resource": {
        "resourceType": "CarePlan",
        "id": "8451f4e1-0d1e-4c8f-8322-5ccc59e5490d",
        "category": [
          {
            "coding": [
              {
                "code": "assess-plan",
                "system": "http://terminology.hl7.org/CodeSystem/care-plan-category",
                "display": "Assessment and Plan"
              }
            ]
          }
        ],
        "activity": [
          {
            "detail": {
              "code": {
                "coding": [
                  {
                    "code": "736285004",
                    "system": "http://snomed.info/sct",
                    "display": "Hyperlipidemia clinical management plan (record artifact)"
                  }
                ]
              },
              "reasonCode": [
                {
                  "coding": [
                    {
                      "code": "55822004",
                      "system": "http://snomed.info/sct",
                      "display": "Hyperlipidemia"
                    }
                  ]
                }
              ],
              "status": "unknown",
              "description": "Hyperlipidemia clinical management plan",
              "kind": "Appointment"
            }
          }
        ],
        "period": {
          "start": "1994-08-22"
        },
        "goal": [
          {
            "reference": "urn:uuid:dd3b56b5-58d8-4979-8390-634701184d24"
          },
          {
            "reference": "urn:uuid:648220a1-1172-4a33-9a61-21d0048f5435"
          },
          {
            "reference": "urn:uuid:c1547a10-840e-483a-b08a-9cc754d918c7"
          }
        ],
        "text": {
          "status": "generated",
          "div": "<div xmlns=\"http://www.w3.org/1999/xhtml\"><table class=\"hl7__ips first25\"><tr><th>Active Planned Care / Goals</th><th>Start Date</th><th>Reason</th></tr><tr><td>Hyperlipidemia clinical management plan</td><td><span class=\"nb\">22-Aug-1994</span></td><td>Hyperlipidemia</td></tr><tr><td><ul><li>Achieve LDL cholesterol less than 1.8 mmol/L for secondary prevention of atherosclerotic cardiovascular disease</li><li>Achieve non-HDL cholesterol less than 2.6 mmol/L</li><li>Achieve fasting triglycerides less than 1.7 mmol/L</li></ul></td><td></td><td></td></tr></table></div>"
        },
        "status": "active",
        "intent": "plan",
        "subject": {
          "reference": "urn:uuid:b05155a8-6809-4e30-97fd-c38cb107ee70",
          "display": "Timothy Smith"
        }
      }
    },
    {
      "fullUrl": "urn:uuid:06782e47-c0e2-4cff-a51f-e0b8f001a422",
      "resource": {
        "resourceType": "CarePlan",
        "id": "06782e47-c0e2-4cff-a51f-e0b8f001a422",
        "category": [
          {
            "coding": [
              {
                "code": "assess-plan",
                "system": "http://terminology.hl7.org/CodeSystem/care-plan-category",
                "display": "Assessment and Plan"
              }
            ]
          }
        ],
        "activity": [
          {
            "detail": {
              "code": {
                "coding": [
                  {
                    "code": "734163000",
                    "system": "http://snomed.info/sct",
                    "display": "Care plan (record artifact)"
                  }
                ]
              },
              "reasonCode": [
                {
                  "coding": [
                    {
                      "code": "78275009",
                      "system": "http://snomed.info/sct",
                      "display": "Obstructive sleep apnea syndrome (disorder)"
                    }
                  ]
                }
              ],
              "status": "unknown",
              "description": "Care plan",
              "kind": "Appointment"
            }
          }
        ],
        "period": {
          "start": "1992-05-26"
        },
        "goal": [
          {
            "reference": "urn:uuid:9c8a13cc-77d4-49c8-8b4e-a6d4e08689d0"
          },
          {
            "reference": "urn:uuid:b4818434-26d1-4786-84d4-7c97181fb351"
          },
          {
            "reference": "urn:uuid:932888a4-9830-4801-a021-9b7d8dd6c99d"
          },
          {
            "reference": "urn:uuid:afbea592-9254-4531-8f26-db630fb10358"
          }
        ],
        "text": {
          "status": "generated",
          "div": "<div xmlns=\"http://www.w3.org/1999/xhtml\"><table class=\"hl7__ips first25\"><tr><th>Active Planned Care / Goals</th><th>Start Date</th><th>Reason</th></tr><tr><td>Care plan</td><td><span class=\"nb\">26-May-1992</span></td><td>Obstructive sleep apnea syndrome (disorder)</td></tr><tr><td><ul><li>Achieve weight loss to reduce severity of obstructive sleep apnea.</li><li>Reduce AHI to less than 15 events per hour.</li><li>Use CPAP device for at least 4 hours per night on 70% of nights.</li><li>Maintain minimum nocturnal oxygen saturation above 90%.</li></ul></td><td></td><td></td></tr></table></div>"
        },
        "status": "active",
        "intent": "plan",
        "subject": {
          "reference": "urn:uuid:b05155a8-6809-4e30-97fd-c38cb107ee70",
          "display": "Timothy Smith"
        }
      }
    },
    {
      "fullUrl": "urn:uuid:e9482dd5-16f0-4731-966f-547c0a9c7223",
      "resource": {
        "resourceType": "CarePlan",
        "id": "e9482dd5-16f0-4731-966f-547c0a9c7223",
        "category": [
          {
            "coding": [
              {
                "code": "assess-plan",
                "system": "http://terminology.hl7.org/CodeSystem/care-plan-category",
                "display": "Assessment and Plan"
              }
            ]
          }
        ],
        "activity": [
          {
            "detail": {
              "code": {
                "coding": [
                  {
                    "code": "736372004",
                    "system": "http://snomed.info/sct",
                    "display": "Discharge care plan (record artifact)"
                  }
                ]
              },
              "status": "unknown",
              "description": "Discharge care plan",
              "kind": "Appointment"
            }
          }
        ],
        "period": {
          "start": "1991-05-02"
        },
        "text": {
          "status": "generated",
          "div": "<div xmlns=\"http://www.w3.org/1999/xhtml\"><table class=\"hl7__ips first25\"><tr><th>Active Planned Care / Goals</th><th>Start Date</th><th>Reason</th></tr><tr><td>Discharge care plan</td><td><span class=\"nb\">02-May-1991</span></td><td>-</td></tr></table></div>"
        },
        "status": "active",
        "intent": "plan",
        "subject": {
          "reference": "urn:uuid:b05155a8-6809-4e30-97fd-c38cb107ee70",
          "display": "Timothy Smith"
        }
      }
    },
    {
      "fullUrl": "urn:uuid:30c8175c-21a2-4ac0-b582-465d2c091ced",
      "resource": {
        "resourceType": "CarePlan",
        "id": "30c8175c-21a2-4ac0-b582-465d2c091ced",
        "category": [
          {
            "coding": [
              {
                "code": "assess-plan",
                "system": "http://terminology.hl7.org/CodeSystem/care-plan-category",
                "display": "Assessment and Plan"
              }
            ]
          }
        ],
        "activity": [
          {
            "detail": {
              "code": {
                "coding": [
                  {
                    "code": "443402002",
                    "system": "http://snomed.info/sct",
                    "display": "Lifestyle education regarding hypertension (procedure)"
                  }
                ]
              },
              "reasonCode": [
                {
                  "coding": [
                    {
                      "code": "59621000",
                      "system": "http://snomed.info/sct",
                      "display": "Essential hypertension (disorder)"
                    }
                  ]
                }
              ],
              "status": "unknown",
              "description": "Lifestyle education regarding hypertension",
              "kind": "Appointment"
            }
          }
        ],
        "period": {
          "start": "1987-06-22"
        },
        "goal": [
          {
            "reference": "urn:uuid:9bedc75a-7501-4d76-b2af-2391f1f53a35"
          }
        ],
        "text": {
          "status": "generated",
          "div": "<div xmlns=\"http://www.w3.org/1999/xhtml\"><table class=\"hl7__ips first25\"><tr><th>Active Planned Care / Goals</th><th>Start Date</th><th>Reason</th></tr><tr><td>Lifestyle education regarding hypertension</td><td><span class=\"nb\">22-Jun-1987</span></td><td>Essential hypertension (disorder)</td></tr><tr><td><ul><li>Patient will implement recommended lifestyle changes to achieve and maintain target blood pressure.</li></ul></td><td></td><td></td></tr></table></div>"
        },
        "status": "active",
        "intent": "plan",
        "subject": {
          "reference": "urn:uuid:b05155a8-6809-4e30-97fd-c38cb107ee70",
          "display": "Timothy Smith"
        }
      }
    },
    {
      "fullUrl": "urn:uuid:99fdc642-80d4-40c7-8e10-e04214d78e4b",
      "resource": {
        "resourceType": "CarePlan",
        "id": "99fdc642-80d4-40c7-8e10-e04214d78e4b",
        "category": [
          {
            "coding": [
              {
                "code": "assess-plan",
                "system": "http://terminology.hl7.org/CodeSystem/care-plan-category",
                "display": "Assessment and Plan"
              }
            ]
          }
        ],
        "activity": [
          {
            "detail": {
              "code": {
                "coding": [
                  {
                    "code": "698360004",
                    "system": "http://snomed.info/sct",
                    "display": "Diabetes self management plan (qualifier value)"
                  }
                ]
              },
              "reasonCode": [
                {
                  "coding": [
                    {
                      "code": "15777000",
                      "system": "http://snomed.info/sct",
                      "display": "Prediabetes"
                    }
                  ]
                }
              ],
              "status": "unknown",
              "description": "Diabetes self management plan",
              "kind": "Appointment"
            }
          }
        ],
        "period": {
          "start": "1982-06-07"
        },
        "goal": [
          {
            "reference": "urn:uuid:03949cc1-1305-47f2-94d6-d2c4011e3581"
          },
          {
            "reference": "urn:uuid:3319b39f-7359-48d1-b683-48a08b69b336"
          },
          {
            "reference": "urn:uuid:db80b5f0-e659-412f-9805-5435f7255abe"
          }
        ],
        "text": {
          "status": "generated",
          "div": "<div xmlns=\"http://www.w3.org/1999/xhtml\"><table class=\"hl7__ips first25\"><tr><th>Active Planned Care / Goals</th><th>Start Date</th><th>Reason</th></tr><tr><td>Diabetes self management plan</td><td><span class=\"nb\">07-Jun-1982</span></td><td>Prediabetes</td></tr><tr><td><ul><li>Patient will achieve and maintain target HbA1c through diabetes self-management strategies.</li><li>Patient will achieve and maintain fasting blood glucose within target range through diabetes self-management strategies.</li><li>Patient will achieve and maintain target body weight as part of diabetes self-management.</li></ul></td><td></td><td></td></tr></table></div>"
        },
        "status": "active",
        "intent": "plan",
        "subject": {
          "reference": "urn:uuid:b05155a8-6809-4e30-97fd-c38cb107ee70",
          "display": "Timothy Smith"
        }
      }
    },
    {
      "fullUrl": "urn:uuid:05c3087f-28a7-44f5-aada-896cbd0b97c4",
      "resource": {
        "resourceType": "ImmunizationRecommendation",
        "id": "05c3087f-28a7-44f5-aada-896cbd0b97c4",
        "recommendation": [
          {
            "vaccineCode": [
              {
                "coding": [
                  {
                    "code": "1181000221105",
                    "system": "http://snomed.info/sct",
                    "display": "Vaccine product containing only Influenza virus antigen (medicinal product)"
                  }
                ]
              }
            ],
            "dateCriterion": [
              {
                "code": {
                  "coding": [
                    {
                      "code": "30980-7",
                      "system": "http://loinc.org",
                      "display": "Date vaccine due"
                    }
                  ]
                },
                "value": "2025-10-01"
              }
            ],
            "targetDisease": {
              "coding": [
                {
                  "code": "6142004",
                  "system": "http://snomed.info/sct",
                  "display": "Influenza (disorder)"
                }
              ]
            },
            "series": "Annual seasonal influenza vaccination",
            "forecastStatus": {
              "coding": [
                {
                  "code": "due",
                  "system": "http://terminology.hl7.org/CodeSystem/immunization-recommendation-status",
                  "display": "Due"
                }
              ]
            }
          }
        ],
        "text": {
          "status": "generated",
          "div": "<div xmlns=\"http://www.w3.org/1999/xhtml\"><table class=\"hl7__ips\"><tr><td>Vaccine product containing only Influenza virus antigen (medicinal product)</td><td><span class=\"nb\">01-Oct-2025</span></td><td>Annual seasonal influenza vaccination</td></tr></table></div>"
        },
        "date": "2025-10-22",
        "patient": {
          "reference": "urn:uuid:b05155a8-6809-4e30-97fd-c38cb107ee70",
          "display": "Timothy Smith"
        }
      }
    },
    {
      "fullUrl": "urn:uuid:366323cc-da6f-41d1-a437-83f27d272654",
      "resource": {
        "resourceType": "Observation",
        "id": "366323cc-da6f-41d1-a437-83f27d272654",
        "meta": {
          "profile": [
            "http://hl7.org/fhir/StructureDefinition/vitalsigns"
          ]
        },
        "category": [
          {
            "coding": [
              {
                "system": "http://terminology.hl7.org/CodeSystem/observation-category",
                "code": "vital-signs",
                "display": "Vital Signs"
              }
            ]
          }
        ],
        "valueQuantity": {
          "value": 172.5,
          "code": "cm",
          "unit": "cm"
        },
        "text": {
          "status": "generated",
          "div": "<div xmlns=\"http://www.w3.org/1999/xhtml\"><table class=\"hl7__ips\"><tr><th>Vital Sign</th><th>Date</th><th>Measurement</th></tr><tr><td>Body Height</td><td>19-May-2025</td><td>172.5 cm</td></tr></table></div>"
        },
        "status": "final",
        "code": {
          "coding": [
            {
              "code": "$8302-2",
              "system": "http://loinc.org",
              "display": "Body Height"
            }
          ]
        },
        "subject": {
          "reference": "urn:uuid:b05155a8-6809-4e30-97fd-c38cb107ee70",
          "display": "Timothy Smith"
        },
        "effectiveDateTime": "2025-05-19"
      }
    },
    {
      "fullUrl": "urn:uuid:29125ed1-f136-483f-9d88-87ccda6b9b5f",
      "resource": {
        "resourceType": "Observation",
        "id": "29125ed1-f136-483f-9d88-87ccda6b9b5f",
        "meta": {
          "profile": [
            "http://hl7.org/fhir/StructureDefinition/vitalsigns"
          ]
        },
        "category": [
          {
            "coding": [
              {
                "system": "http://terminology.hl7.org/CodeSystem/observation-category",
                "code": "vital-signs",
                "display": "Vital Signs"
              }
            ]
          }
        ],
        "valueQuantity": {
          "value": 1,
          "code": "{score}",
          "unit": "{score}"
        },
        "text": {
          "status": "generated",
          "div": "<div xmlns=\"http://www.w3.org/1999/xhtml\"><table class=\"hl7__ips\"><tr><th>Vital Sign</th><th>Date</th><th>Measurement</th></tr><tr><td>Pain severity - 0-10 verbal numeric rating [Score] - Reported</td><td>19-May-2025</td><td>1 {score}</td></tr></table></div>"
        },
        "status": "final",
        "code": {
          "coding": [
            {
              "code": "$72514-3",
              "system": "http://loinc.org",
              "display": "Pain severity - 0-10 verbal numeric rating [Score] - Reported"
            }
          ]
        },
        "subject": {
          "reference": "urn:uuid:b05155a8-6809-4e30-97fd-c38cb107ee70",
          "display": "Timothy Smith"
        },
        "effectiveDateTime": "2025-05-19"
      }
    },
    {
      "fullUrl": "urn:uuid:2111bb2e-0861-4bad-89e5-3697060e6aae",
      "resource": {
        "resourceType": "Observation",
        "id": "2111bb2e-0861-4bad-89e5-3697060e6aae",
        "meta": {
          "profile": [
            "http://hl7.org/fhir/StructureDefinition/vitalsigns"
          ]
        },
        "category": [
          {
            "coding": [
              {
                "system": "http://terminology.hl7.org/CodeSystem/observation-category",
                "code": "vital-signs",
                "display": "Vital Signs"
              }
            ]
          }
        ],
        "valueQuantity": {
          "value": 83.1,
          "code": "kg",
          "unit": "kg"
        },
        "text": {
          "status": "generated",
          "div": "<div xmlns=\"http://www.w3.org/1999/xhtml\"><table class=\"hl7__ips\"><tr><th>Vital Sign</th><th>Date</th><th>Measurement</th></tr><tr><td>Body Weight</td><td>19-May-2025</td><td>83.1 kg</td></tr></table></div>"
        },
        "status": "final",
        "code": {
          "coding": [
            {
              "code": "$29463-7",
              "system": "http://loinc.org",
              "display": "Body Weight"
            }
          ]
        },
        "subject": {
          "reference": "urn:uuid:b05155a8-6809-4e30-97fd-c38cb107ee70",
          "display": "Timothy Smith"
        },
        "effectiveDateTime": "2025-05-19"
      }
    },
    {
      "fullUrl": "urn:uuid:774ad253-80bf-47d2-8765-ffe052d70526",
      "resource": {
        "resourceType": "Observation",
        "id": "774ad253-80bf-47d2-8765-ffe052d70526",
        "meta": {
          "profile": [
            "http://hl7.org/fhir/StructureDefinition/vitalsigns"
          ]
        },
        "category": [
          {
            "coding": [
              {
                "system": "http://terminology.hl7.org/CodeSystem/observation-category",
                "code": "vital-signs",
                "display": "Vital Signs"
              }
            ]
          }
        ],
        "valueQuantity": {
          "value": 27.9,
          "code": "kg/m2",
          "unit": "kg/m2"
        },
        "text": {
          "status": "generated",
          "div": "<div xmlns=\"http://www.w3.org/1999/xhtml\"><table class=\"hl7__ips\"><tr><th>Vital Sign</th><th>Date</th><th>Measurement</th></tr><tr><td>Body mass index (BMI) [Ratio]</td><td>19-May-2025</td><td>27.9 kg/m2</td></tr></table></div>"
        },
        "status": "final",
        "code": {
          "coding": [
            {
              "code": "$39156-5",
              "system": "http://loinc.org",
              "display": "Body mass index (BMI) [Ratio]"
            }
          ]
        },
        "subject": {
          "reference": "urn:uuid:b05155a8-6809-4e30-97fd-c38cb107ee70",
          "display": "Timothy Smith"
        },
        "effectiveDateTime": "2025-05-19"
      }
    },
    {
      "fullUrl": "urn:uuid:be1e633d-9269-458c-99e8-8b87a4107509",
      "resource": {
        "resourceType": "Observation",
        "id": "be1e633d-9269-458c-99e8-8b87a4107509",
        "meta": {
          "profile": [
            "http://hl7.org/fhir/StructureDefinition/vitalsigns"
          ]
        },
        "category": [
          {
            "coding": [
              {
                "system": "http://terminology.hl7.org/CodeSystem/observation-category",
                "code": "vital-signs",
                "display": "Vital Signs"
              }
            ]
          }
        ],
        "valueQuantity": {
          "value": 44,
          "code": "mm[Hg]",
          "unit": "mm[Hg]"
        },
        "text": {
          "status": "generated",
          "div": "<div xmlns=\"http://www.w3.org/1999/xhtml\"><table class=\"hl7__ips\"><tr><th>Vital Sign</th><th>Date</th><th>Measurement</th></tr><tr><td>Diastolic Blood Pressure</td><td>19-May-2025</td><td>44 mm[Hg]</td></tr></table></div>"
        },
        "status": "final",
        "code": {
          "coding": [
            {
              "code": "$8462-4",
              "system": "http://loinc.org",
              "display": "Diastolic Blood Pressure"
            }
          ]
        },
        "subject": {
          "reference": "urn:uuid:b05155a8-6809-4e30-97fd-c38cb107ee70",
          "display": "Timothy Smith"
        },
        "effectiveDateTime": "2025-05-19"
      }
    },
    {
      "fullUrl": "urn:uuid:06742f7a-6cb4-45c3-ada2-9d8ed30b3530",
      "resource": {
        "resourceType": "Observation",
        "id": "06742f7a-6cb4-45c3-ada2-9d8ed30b3530",
        "meta": {
          "profile": [
            "http://hl7.org/fhir/StructureDefinition/vitalsigns"
          ]
        },
        "category": [
          {
            "coding": [
              {
                "system": "http://terminology.hl7.org/CodeSystem/observation-category",
                "code": "vital-signs",
                "display": "Vital Signs"
              }
            ]
          }
        ],
        "valueQuantity": {
          "value": 78,
          "code": "mm[Hg]",
          "unit": "mm[Hg]"
        },
        "text": {
          "status": "generated",
          "div": "<div xmlns=\"http://www.w3.org/1999/xhtml\"><table class=\"hl7__ips\"><tr><th>Vital Sign</th><th>Date</th><th>Measurement</th></tr><tr><td>Systolic Blood Pressure</td><td>19-May-2025</td><td>78 mm[Hg]</td></tr></table></div>"
        },
        "status": "final",
        "code": {
          "coding": [
            {
              "code": "$8480-6",
              "system": "http://loinc.org",
              "display": "Systolic Blood Pressure"
            }
          ]
        },
        "subject": {
          "reference": "urn:uuid:b05155a8-6809-4e30-97fd-c38cb107ee70",
          "display": "Timothy Smith"
        },
        "effectiveDateTime": "2025-05-19"
      }
    },
    {
      "fullUrl": "urn:uuid:2ece67f1-88a1-4a5d-b9a8-1ec424712f82",
      "resource": {
        "resourceType": "Observation",
        "id": "2ece67f1-88a1-4a5d-b9a8-1ec424712f82",
        "meta": {
          "profile": [
            "http://hl7.org/fhir/StructureDefinition/vitalsigns"
          ]
        },
        "category": [
          {
            "coding": [
              {
                "system": "http://terminology.hl7.org/CodeSystem/observation-category",
                "code": "vital-signs",
                "display": "Vital Signs"
              }
            ]
          }
        ],
        "valueQuantity": {
          "value": 62,
          "code": "/min",
          "unit": "/min"
        },
        "text": {
          "status": "generated",
          "div": "<div xmlns=\"http://www.w3.org/1999/xhtml\"><table class=\"hl7__ips\"><tr><th>Vital Sign</th><th>Date</th><th>Measurement</th></tr><tr><td>Heart rate</td><td>19-May-2025</td><td>62 /min</td></tr></table></div>"
        },
        "status": "final",
        "code": {
          "coding": [
            {
              "code": "$8867-4",
              "system": "http://loinc.org",
              "display": "Heart rate"
            }
          ]
        },
        "subject": {
          "reference": "urn:uuid:b05155a8-6809-4e30-97fd-c38cb107ee70",
          "display": "Timothy Smith"
        },
        "effectiveDateTime": "2025-05-19"
      }
    },
    {
      "fullUrl": "urn:uuid:7762aea3-1663-4f17-90a0-36eb41f46d7c",
      "resource": {
        "resourceType": "Observation",
        "id": "7762aea3-1663-4f17-90a0-36eb41f46d7c",
        "meta": {
          "profile": [
            "http://hl7.org/fhir/StructureDefinition/vitalsigns"
          ]
        },
        "category": [
          {
            "coding": [
              {
                "system": "http://terminology.hl7.org/CodeSystem/observation-category",
                "code": "vital-signs",
                "display": "Vital Signs"
              }
            ]
          }
        ],
        "valueQuantity": {
          "value": 13,
          "code": "/min",
          "unit": "/min"
        },
        "text": {
          "status": "generated",
          "div": "<div xmlns=\"http://www.w3.org/1999/xhtml\"><table class=\"hl7__ips\"><tr><th>Vital Sign</th><th>Date</th><th>Measurement</th></tr><tr><td>Respiratory rate</td><td>19-May-2025</td><td>13 /min</td></tr></table></div>"
        },
        "status": "final",
        "code": {
          "coding": [
            {
              "code": "$9279-1",
              "system": "http://loinc.org",
              "display": "Respiratory rate"
            }
          ]
        },
        "subject": {
          "reference": "urn:uuid:b05155a8-6809-4e30-97fd-c38cb107ee70",
          "display": "Timothy Smith"
        },
        "effectiveDateTime": "2025-05-19"
      }
    },
    {
      "fullUrl": "urn:uuid:47b33bf1-d1e4-40c9-81bf-9a6393f52350",
      "resource": {
        "resourceType": "Observation",
        "id": "47b33bf1-d1e4-40c9-81bf-9a6393f52350",
        "meta": {
          "profile": [
            "http://hl7.org/fhir/StructureDefinition/vitalsigns"
          ]
        },
        "category": [
          {
            "coding": [
              {
                "system": "http://terminology.hl7.org/CodeSystem/observation-category",
                "code": "vital-signs",
                "display": "Vital Signs"
              }
            ]
          }
        ],
        "valueQuantity": {
          "value": 83.1,
          "code": "kg",
          "unit": "kg"
        },
        "text": {
          "status": "generated",
          "div": "<div xmlns=\"http://www.w3.org/1999/xhtml\"><table class=\"hl7__ips\"><tr><th>Vital Sign</th><th>Date</th><th>Measurement</th></tr><tr><td>Body Weight</td><td>31-Jan-2025</td><td>83.1 kg</td></tr></table></div>"
        },
        "status": "final",
        "code": {
          "coding": [
            {
              "code": "$29463-7",
              "system": "http://loinc.org",
              "display": "Body Weight"
            }
          ]
        },
        "subject": {
          "reference": "urn:uuid:b05155a8-6809-4e30-97fd-c38cb107ee70",
          "display": "Timothy Smith"
        },
        "effectiveDateTime": "2025-01-31"
      }
    },
    {
      "fullUrl": "urn:uuid:75802714-d6ef-43a6-b889-63c022f86950",
      "resource": {
        "resourceType": "Observation",
        "id": "75802714-d6ef-43a6-b889-63c022f86950",
        "meta": {
          "profile": [
            "http://hl7.eu/fhir/laboratory/StructureDefinition/Observation-resultslab-eu-lab"
          ]
        },
        "performer": [
          {
            "display": "The Central European Lab"
          }
        ],
        "category": [
          {
            "coding": [
              {
                "system": "http://terminology.hl7.org/CodeSystem/observation-category",
                "code": "laboratory"
              }
            ]
          }
        ],
        "code": {
          "coding": [
            {
              "code": "4548-4",
              "system": "http://loinc.org",
              "display": "Hemoglobin A1c/Hemoglobin.total in Blood"
            }
          ],
          "text": "Hemoglobin A1c/Hemoglobin.total in Blood"
        },
        "valueQuantity": {
          "system": "http://unitsofmeasure.org",
          "value": 5.5,
          "unit": "%",
          "code": "%"
        },
        "referenceRange": [
          {
            "low": {
              "value": 4.5,
              "code": "%",
              "system": "http://unitsofmeasure.org"
            }
          },
          {
            "high": {
              "value": 6.4,
              "code": "%",
              "system": "http://unitsofmeasure.org"
            }
          }
        ],
        "text": {
          "status": "generated",
          "div": "<div xmlns=\"http://www.w3.org/1999/xhtml\"><table class=\"hl7__eu__lab__report\"><tr><th>Test</th><th>19-May-2025</th><th>Reference&#xA0;Range</th><th>Unit</th></tr><tr><td>Hemoglobin A1c/Hemoglobin.total in Blood</td><td>5.5</td><td>4.5 - 6.4</td><td></td><td>%</td></tr></table></div>"
        },
        "status": "final",
        "subject": {
          "reference": "urn:uuid:b05155a8-6809-4e30-97fd-c38cb107ee70",
          "display": "Timothy Smith"
        },
        "effectiveDateTime": "2025-05-19T15:48:21Z"
      }
    },
    {
      "fullUrl": "urn:uuid:f09c8acf-37c6-4218-8903-53b8bcfcabc6",
      "resource": {
        "resourceType": "Observation",
        "id": "f09c8acf-37c6-4218-8903-53b8bcfcabc6",
        "meta": {
          "profile": [
            "http://hl7.eu/fhir/laboratory/StructureDefinition/Observation-resultslab-eu-lab"
          ]
        },
        "performer": [
          {
            "display": "The Central European Lab"
          }
        ],
        "category": [
          {
            "coding": [
              {
                "system": "http://terminology.hl7.org/CodeSystem/observation-category",
                "code": "laboratory"
              }
            ]
          }
        ],
        "code": {
          "coding": [
            {
              "code": "2339-0",
              "system": "http://loinc.org",
              "display": "Glucose [Mass/volume] in Blood"
            }
          ],
          "text": "Glucose [Mass/volume] in Blood"
        },
        "valueQuantity": {
          "system": "http://unitsofmeasure.org",
          "value": 131.1,
          "unit": "mg/dL",
          "code": "mg/dL"
        },
        "referenceRange": [
          {
            "low": {
              "value": 70,
              "code": "mg/dL",
              "system": "http://unitsofmeasure.org"
            }
          },
          {
            "high": {
              "value": 140,
              "code": "mg/dL",
              "system": "http://unitsofmeasure.org"
            }
          }
        ],
        "text": {
          "status": "generated",
          "div": "<div xmlns=\"http://www.w3.org/1999/xhtml\"><table class=\"hl7__eu__lab__report\"><tr><th>Test</th><th>19-May-2025</th><th>Reference&#xA0;Range</th><th>Unit</th></tr><tr><td>Glucose [Mass/volume] in Blood</td><td>131.1</td><td>70 - 140</td><td></td><td>mg/dL</td></tr></table></div>"
        },
        "status": "final",
        "subject": {
          "reference": "urn:uuid:b05155a8-6809-4e30-97fd-c38cb107ee70",
          "display": "Timothy Smith"
        },
        "effectiveDateTime": "2025-05-19T15:48:21Z"
      }
    },
    {
      "fullUrl": "urn:uuid:b9ad5f75-c208-423a-85e6-64ac2b974cb3",
      "resource": {
        "resourceType": "Observation",
        "id": "b9ad5f75-c208-423a-85e6-64ac2b974cb3",
        "meta": {
          "profile": [
            "http://hl7.eu/fhir/laboratory/StructureDefinition/Observation-resultslab-eu-lab"
          ]
        },
        "performer": [
          {
            "display": "The Central European Lab"
          }
        ],
        "category": [
          {
            "coding": [
              {
                "system": "http://terminology.hl7.org/CodeSystem/observation-category",
                "code": "laboratory"
              }
            ]
          }
        ],
        "code": {
          "coding": [
            {
              "code": "6299-2",
              "system": "http://loinc.org",
              "display": "Urea nitrogen [Mass/volume] in Blood"
            }
          ],
          "text": "Urea nitrogen [Mass/volume] in Blood"
        },
        "valueQuantity": {
          "system": "http://unitsofmeasure.org",
          "value": 19.6,
          "unit": "mg/dL",
          "code": "mg/dL"
        },
        "referenceRange": [
          {
            "low": {
              "value": 7,
              "code": "mg/dL",
              "system": "http://unitsofmeasure.org"
            }
          },
          {
            "high": {
              "value": 25,
              "code": "mg/dL",
              "system": "http://unitsofmeasure.org"
            }
          }
        ],
        "text": {
          "status": "generated",
          "div": "<div xmlns=\"http://www.w3.org/1999/xhtml\"><table class=\"hl7__eu__lab__report\"><tr><th>Test</th><th>19-May-2025</th><th>Reference&#xA0;Range</th><th>Unit</th></tr><tr><td>Urea nitrogen [Mass/volume] in Blood</td><td>19.6</td><td>7 - 25</td><td></td><td>mg/dL</td></tr></table></div>"
        },
        "status": "final",
        "subject": {
          "reference": "urn:uuid:b05155a8-6809-4e30-97fd-c38cb107ee70",
          "display": "Timothy Smith"
        },
        "effectiveDateTime": "2025-05-19T15:48:21Z"
      }
    },
    {
      "fullUrl": "urn:uuid:5949f51e-71c4-419d-a58f-04a5805cb309",
      "resource": {
        "resourceType": "Observation",
        "id": "5949f51e-71c4-419d-a58f-04a5805cb309",
        "meta": {
          "profile": [
            "http://hl7.eu/fhir/laboratory/StructureDefinition/Observation-resultslab-eu-lab"
          ]
        },
        "performer": [
          {
            "display": "The Central European Lab"
          }
        ],
        "category": [
          {
            "coding": [
              {
                "system": "http://terminology.hl7.org/CodeSystem/observation-category",
                "code": "laboratory"
              }
            ]
          }
        ],
        "code": {
          "coding": [
            {
              "code": "38483-4",
              "system": "http://loinc.org",
              "display": "Creatinine [Mass/volume] in Blood"
            }
          ],
          "text": "Creatinine [Mass/volume] in Blood"
        },
        "valueQuantity": {
          "system": "http://unitsofmeasure.org",
          "value": 0.7,
          "unit": "mg/dL",
          "code": "mg/dL"
        },
        "referenceRange": [
          {
            "low": {
              "value": 0.6,
              "code": "mg/dL",
              "system": "http://unitsofmeasure.org"
            }
          },
          {
            "high": {
              "value": 1.3,
              "code": "mg/dL",
              "system": "http://unitsofmeasure.org"
            }
          }
        ],
        "text": {
          "status": "generated",
          "div": "<div xmlns=\"http://www.w3.org/1999/xhtml\"><table class=\"hl7__eu__lab__report\"><tr><th>Test</th><th>19-May-2025</th><th>Reference&#xA0;Range</th><th>Unit</th></tr><tr><td>Creatinine [Mass/volume] in Blood</td><td>0.7</td><td>0.6 - 1.3</td><td></td><td>mg/dL</td></tr></table></div>"
        },
        "status": "final",
        "subject": {
          "reference": "urn:uuid:b05155a8-6809-4e30-97fd-c38cb107ee70",
          "display": "Timothy Smith"
        },
        "effectiveDateTime": "2025-05-19T15:48:21Z"
      }
    },
    {
      "fullUrl": "urn:uuid:1b7edf2e-c814-4069-b6aa-d56f25411958",
      "resource": {
        "resourceType": "Observation",
        "id": "1b7edf2e-c814-4069-b6aa-d56f25411958",
        "meta": {
          "profile": [
            "http://hl7.eu/fhir/laboratory/StructureDefinition/Observation-resultslab-eu-lab"
          ]
        },
        "performer": [
          {
            "display": "The Central European Lab"
          }
        ],
        "category": [
          {
            "coding": [
              {
                "system": "http://terminology.hl7.org/CodeSystem/observation-category",
                "code": "laboratory"
              }
            ]
          }
        ],
        "code": {
          "coding": [
            {
              "code": "49765-1",
              "system": "http://loinc.org",
              "display": "Calcium [Mass/volume] in Blood"
            }
          ],
          "text": "Calcium [Mass/volume] in Blood"
        },
        "valueQuantity": {
          "system": "http://unitsofmeasure.org",
          "value": 9.1,
          "unit": "mg/dL",
          "code": "mg/dL"
        },
        "referenceRange": [
          {
            "low": {
              "value": 8.5,
              "code": "mg/dL",
              "system": "http://unitsofmeasure.org"
            }
          },
          {
            "high": {
              "value": 10.5,
              "code": "mg/dL",
              "system": "http://unitsofmeasure.org"
            }
          }
        ],
        "text": {
          "status": "generated",
          "div": "<div xmlns=\"http://www.w3.org/1999/xhtml\"><table class=\"hl7__eu__lab__report\"><tr><th>Test</th><th>19-May-2025</th><th>Reference&#xA0;Range</th><th>Unit</th></tr><tr><td>Calcium [Mass/volume] in Blood</td><td>9.1</td><td>8.5 - 10.5</td><td></td><td>mg/dL</td></tr></table></div>"
        },
        "status": "final",
        "subject": {
          "reference": "urn:uuid:b05155a8-6809-4e30-97fd-c38cb107ee70",
          "display": "Timothy Smith"
        },
        "effectiveDateTime": "2025-05-19T15:48:21Z"
      }
    },
    {
      "fullUrl": "urn:uuid:ff90ac26-662c-478f-9f64-3a7fb0d73320",
      "resource": {
        "resourceType": "Observation",
        "id": "ff90ac26-662c-478f-9f64-3a7fb0d73320",
        "meta": {
          "profile": [
            "http://hl7.eu/fhir/laboratory/StructureDefinition/Observation-resultslab-eu-lab"
          ]
        },
        "performer": [
          {
            "display": "The Central European Lab"
          }
        ],
        "category": [
          {
            "coding": [
              {
                "system": "http://terminology.hl7.org/CodeSystem/observation-category",
                "code": "laboratory"
              }
            ]
          }
        ],
        "code": {
          "coding": [
            {
              "code": "2947-0",
              "system": "http://loinc.org",
              "display": "Sodium [Moles/volume] in Blood"
            }
          ],
          "text": "Sodium [Moles/volume] in Blood"
        },
        "valueQuantity": {
          "system": "http://unitsofmeasure.org",
          "value": 143.9,
          "unit": "mmol/L",
          "code": "mmol/L"
        },
        "referenceRange": [
          {
            "low": {
              "value": 135,
              "code": "mmol/L",
              "system": "http://unitsofmeasure.org"
            }
          },
          {
            "high": {
              "value": 145,
              "code": "mmol/L",
              "system": "http://unitsofmeasure.org"
            }
          }
        ],
        "text": {
          "status": "generated",
          "div": "<div xmlns=\"http://www.w3.org/1999/xhtml\"><table class=\"hl7__eu__lab__report\"><tr><th>Test</th><th>19-May-2025</th><th>Reference&#xA0;Range</th><th>Unit</th></tr><tr><td>Sodium [Moles/volume] in Blood</td><td>143.9</td><td>135 - 145</td><td></td><td>mmol/L</td></tr></table></div>"
        },
        "status": "final",
        "subject": {
          "reference": "urn:uuid:b05155a8-6809-4e30-97fd-c38cb107ee70",
          "display": "Timothy Smith"
        },
        "effectiveDateTime": "2025-05-19T15:48:21Z"
      }
    },
    {
      "fullUrl": "urn:uuid:1d81ee2c-2658-43fb-bb41-755ffb619270",
      "resource": {
        "resourceType": "Observation",
        "id": "1d81ee2c-2658-43fb-bb41-755ffb619270",
        "meta": {
          "profile": [
            "http://hl7.eu/fhir/laboratory/StructureDefinition/Observation-resultslab-eu-lab"
          ]
        },
        "performer": [
          {
            "display": "The Central European Lab"
          }
        ],
        "category": [
          {
            "coding": [
              {
                "system": "http://terminology.hl7.org/CodeSystem/observation-category",
                "code": "laboratory"
              }
            ]
          }
        ],
        "code": {
          "coding": [
            {
              "code": "6298-4",
              "system": "http://loinc.org",
              "display": "Potassium [Moles/volume] in Blood"
            }
          ],
          "text": "Potassium [Moles/volume] in Blood"
        },
        "valueQuantity": {
          "system": "http://unitsofmeasure.org",
          "value": 4.7,
          "unit": "mmol/L",
          "code": "mmol/L"
        },
        "referenceRange": [
          {
            "low": {
              "value": 3.5,
              "code": "mmol/L",
              "system": "http://unitsofmeasure.org"
            }
          },
          {
            "high": {
              "value": 5.1,
              "code": "mmol/L",
              "system": "http://unitsofmeasure.org"
            }
          }
        ],
        "text": {
          "status": "generated",
          "div": "<div xmlns=\"http://www.w3.org/1999/xhtml\"><table class=\"hl7__eu__lab__report\"><tr><th>Test</th><th>19-May-2025</th><th>Reference&#xA0;Range</th><th>Unit</th></tr><tr><td>Potassium [Moles/volume] in Blood</td><td>4.7</td><td>3.5 - 5.1</td><td></td><td>mmol/L</td></tr></table></div>"
        },
        "status": "final",
        "subject": {
          "reference": "urn:uuid:b05155a8-6809-4e30-97fd-c38cb107ee70",
          "display": "Timothy Smith"
        },
        "effectiveDateTime": "2025-05-19T15:48:21Z"
      }
    },
    {
      "fullUrl": "urn:uuid:0aa5942f-7b61-4bff-b0de-56a6b3f7a733",
      "resource": {
        "resourceType": "Observation",
        "id": "0aa5942f-7b61-4bff-b0de-56a6b3f7a733",
        "meta": {
          "profile": [
            "http://hl7.eu/fhir/laboratory/StructureDefinition/Observation-resultslab-eu-lab"
          ]
        },
        "performer": [
          {
            "display": "The Central European Lab"
          }
        ],
        "category": [
          {
            "coding": [
              {
                "system": "http://terminology.hl7.org/CodeSystem/observation-category",
                "code": "laboratory"
              }
            ]
          }
        ],
        "code": {
          "coding": [
            {
              "code": "2069-3",
              "system": "http://loinc.org",
              "display": "Chloride [Moles/volume] in Blood"
            }
          ],
          "text": "Chloride [Moles/volume] in Blood"
        },
        "valueQuantity": {
          "system": "http://unitsofmeasure.org",
          "value": 102.9,
          "unit": "mmol/L",
          "code": "mmol/L"
        },
        "referenceRange": [
          {
            "low": {
              "value": 98,
              "code": "mmol/L",
              "system": "http://unitsofmeasure.org"
            }
          },
          {
            "high": {
              "value": 107,
              "code": "mmol/L",
              "system": "http://unitsofmeasure.org"
            }
          }
        ],
        "text": {
          "status": "generated",
          "div": "<div xmlns=\"http://www.w3.org/1999/xhtml\"><table class=\"hl7__eu__lab__report\"><tr><th>Test</th><th>19-May-2025</th><th>Reference&#xA0;Range</th><th>Unit</th></tr><tr><td>Chloride [Moles/volume] in Blood</td><td>102.9</td><td>98 - 107</td><td></td><td>mmol/L</td></tr></table></div>"
        },
        "status": "final",
        "subject": {
          "reference": "urn:uuid:b05155a8-6809-4e30-97fd-c38cb107ee70",
          "display": "Timothy Smith"
        },
        "effectiveDateTime": "2025-05-19T15:48:21Z"
      }
    },
    {
      "fullUrl": "urn:uuid:769c0cff-167c-4e6e-a77e-2af2260135fa",
      "resource": {
        "resourceType": "Observation",
        "id": "769c0cff-167c-4e6e-a77e-2af2260135fa",
        "meta": {
          "profile": [
            "http://hl7.eu/fhir/laboratory/StructureDefinition/Observation-resultslab-eu-lab"
          ]
        },
        "performer": [
          {
            "display": "The Central European Lab"
          }
        ],
        "category": [
          {
            "coding": [
              {
                "system": "http://terminology.hl7.org/CodeSystem/observation-category",
                "code": "laboratory"
              }
            ]
          }
        ],
        "code": {
          "coding": [
            {
              "code": "20565-8",
              "system": "http://loinc.org",
              "display": "Carbon dioxide, total [Moles/volume] in Blood"
            }
          ],
          "text": "Carbon dioxide, total [Moles/volume] in Blood"
        },
        "valueQuantity": {
          "system": "http://unitsofmeasure.org",
          "value": 26.5,
          "unit": "mmol/L",
          "code": "mmol/L"
        },
        "referenceRange": [
          {
            "low": {
              "value": 22,
              "code": "mmol/L",
              "system": "http://unitsofmeasure.org"
            }
          },
          {
            "high": {
              "value": 29,
              "code": "mmol/L",
              "system": "http://unitsofmeasure.org"
            }
          }
        ],
        "text": {
          "status": "generated",
          "div": "<div xmlns=\"http://www.w3.org/1999/xhtml\"><table class=\"hl7__eu__lab__report\"><tr><th>Test</th><th>19-May-2025</th><th>Reference&#xA0;Range</th><th>Unit</th></tr><tr><td>Carbon dioxide, total [Moles/volume] in Blood</td><td>26.5</td><td>22 - 29</td><td></td><td>mmol/L</td></tr></table></div>"
        },
        "status": "final",
        "subject": {
          "reference": "urn:uuid:b05155a8-6809-4e30-97fd-c38cb107ee70",
          "display": "Timothy Smith"
        },
        "effectiveDateTime": "2025-05-19T15:48:21Z"
      }
    },
    {
      "fullUrl": "urn:uuid:5054ad0a-5725-40d4-982b-126664ca1896",
      "resource": {
        "resourceType": "Observation",
        "id": "5054ad0a-5725-40d4-982b-126664ca1896",
        "meta": {
          "profile": [
            "http://hl7.eu/fhir/laboratory/StructureDefinition/Observation-resultslab-eu-lab"
          ]
        },
        "performer": [
          {
            "display": "The Central European Lab"
          }
        ],
        "category": [
          {
            "coding": [
              {
                "system": "http://terminology.hl7.org/CodeSystem/observation-category",
                "code": "laboratory"
              }
            ]
          }
        ],
        "code": {
          "coding": [
            {
              "code": "2093-3",
              "system": "http://loinc.org",
              "display": "Cholesterol [Mass/volume] in Serum or Plasma"
            }
          ],
          "text": "Cholesterol [Mass/volume] in Serum or Plasma"
        },
        "valueQuantity": {
          "system": "http://unitsofmeasure.org",
          "value": 244.9,
          "unit": "mg/dL",
          "code": "mg/dL"
        },
        "referenceRange": [
          {
            "low": {
              "value": 0,
              "code": "mg/dL",
              "system": "http://unitsofmeasure.org"
            }
          },
          {
            "high": {
              "value": 200,
              "code": "mg/dL",
              "system": "http://unitsofmeasure.org"
            }
          }
        ],
        "interpretation": [
          {
            "coding": [
              {
                "code": "H",
                "system": "http://terminology.hl7.org/CodeSystem/v3-ObservationInterpretation",
                "display": "High"
              }
            ]
          }
        ],
        "text": {
          "status": "generated",
          "div": "<div xmlns=\"http://www.w3.org/1999/xhtml\"><table class=\"hl7__eu__lab__report\"><tr><th>Test</th><th>19-May-2025</th><th>Reference&#xA0;Range</th><th>Unit</th></tr><tr><td>Cholesterol [Mass/volume] in Serum or Plasma</td><td>244.9</td><td>0 - 200</td><td>H</td><td>mg/dL</td></tr></table></div>"
        },
        "status": "final",
        "subject": {
          "reference": "urn:uuid:b05155a8-6809-4e30-97fd-c38cb107ee70",
          "display": "Timothy Smith"
        },
        "effectiveDateTime": "2025-05-19T15:48:21Z"
      }
    },
    {
      "fullUrl": "urn:uuid:200719ae-ff3f-4eaf-a2cc-a64ce1d31500",
      "resource": {
        "resourceType": "Observation",
        "id": "200719ae-ff3f-4eaf-a2cc-a64ce1d31500",
        "meta": {
          "profile": [
            "http://hl7.eu/fhir/laboratory/StructureDefinition/Observation-resultslab-eu-lab"
          ]
        },
        "performer": [
          {
            "display": "The Central European Lab"
          }
        ],
        "category": [
          {
            "coding": [
              {
                "system": "http://terminology.hl7.org/CodeSystem/observation-category",
                "code": "laboratory"
              }
            ]
          }
        ],
        "code": {
          "coding": [
            {
              "code": "2571-8",
              "system": "http://loinc.org",
              "display": "Triglyceride [Mass/volume] in Serum or Plasma"
            }
          ],
          "text": "Triglyceride [Mass/volume] in Serum or Plasma"
        },
        "valueQuantity": {
          "system": "http://unitsofmeasure.org",
          "value": 490,
          "unit": "mg/dL",
          "code": "mg/dL"
        },
        "referenceRange": [
          {
            "low": {
              "value": 0,
              "code": "mg/dL",
              "system": "http://unitsofmeasure.org"
            }
          },
          {
            "high": {
              "value": 199,
              "code": "mg/dL",
              "system": "http://unitsofmeasure.org"
            }
          }
        ],
        "interpretation": [
          {
            "coding": [
              {
                "code": "H",
                "system": "http://terminology.hl7.org/CodeSystem/v3-ObservationInterpretation",
                "display": "High"
              }
            ]
          }
        ],
        "text": {
          "status": "generated",
          "div": "<div xmlns=\"http://www.w3.org/1999/xhtml\"><table class=\"hl7__eu__lab__report\"><tr><th>Test</th><th>19-May-2025</th><th>Reference&#xA0;Range</th><th>Unit</th></tr><tr><td>Triglyceride [Mass/volume] in Serum or Plasma</td><td>490.0</td><td>0 - 199</td><td>H</td><td>mg/dL</td></tr></table></div>"
        },
        "status": "final",
        "subject": {
          "reference": "urn:uuid:b05155a8-6809-4e30-97fd-c38cb107ee70",
          "display": "Timothy Smith"
        },
        "effectiveDateTime": "2025-05-19T15:48:21Z"
      }
    },
    {
      "fullUrl": "urn:uuid:f7056849-a6dc-4ae8-87d8-45098a7759ce",
      "resource": {
        "resourceType": "Observation",
        "id": "f7056849-a6dc-4ae8-87d8-45098a7759ce",
        "meta": {
          "profile": [
            "http://hl7.eu/fhir/laboratory/StructureDefinition/Observation-resultslab-eu-lab"
          ]
        },
        "performer": [
          {
            "display": "The Central European Lab"
          }
        ],
        "category": [
          {
            "coding": [
              {
                "system": "http://terminology.hl7.org/CodeSystem/observation-category",
                "code": "laboratory"
              }
            ]
          }
        ],
        "code": {
          "coding": [
            {
              "code": "18262-6",
              "system": "http://loinc.org",
              "display": "Cholesterol in LDL [Mass/volume] in Serum or Plasma by Direct assay"
            }
          ],
          "text": "Cholesterol in LDL [Mass/volume] in Serum or Plasma by Direct assay"
        },
        "valueQuantity": {
          "system": "http://unitsofmeasure.org",
          "value": 119.1,
          "unit": "mg/dL",
          "code": "mg/dL"
        },
        "referenceRange": [
          {
            "low": {
              "value": 0,
              "code": "mg/dL",
              "system": "http://unitsofmeasure.org"
            }
          },
          {
            "high": {
              "value": 130,
              "code": "mg/dL",
              "system": "http://unitsofmeasure.org"
            }
          }
        ],
        "text": {
          "status": "generated",
          "div": "<div xmlns=\"http://www.w3.org/1999/xhtml\"><table class=\"hl7__eu__lab__report\"><tr><th>Test</th><th>19-May-2025</th><th>Reference&#xA0;Range</th><th>Unit</th></tr><tr><td>Cholesterol in LDL [Mass/volume] in Serum or Plasma by Direct assay</td><td>119.1</td><td>0 - 130</td><td></td><td>mg/dL</td></tr></table></div>"
        },
        "status": "final",
        "subject": {
          "reference": "urn:uuid:b05155a8-6809-4e30-97fd-c38cb107ee70",
          "display": "Timothy Smith"
        },
        "effectiveDateTime": "2025-05-19T15:48:21Z"
      }
    },
    {
      "fullUrl": "urn:uuid:c479e319-7feb-4633-8440-fa19f7ec8bbd",
      "resource": {
        "resourceType": "Observation",
        "id": "c479e319-7feb-4633-8440-fa19f7ec8bbd",
        "meta": {
          "profile": [
            "http://hl7.eu/fhir/laboratory/StructureDefinition/Observation-resultslab-eu-lab"
          ]
        },
        "performer": [
          {
            "display": "The Central European Lab"
          }
        ],
        "category": [
          {
            "coding": [
              {
                "system": "http://terminology.hl7.org/CodeSystem/observation-category",
                "code": "laboratory"
              }
            ]
          }
        ],
        "code": {
          "coding": [
            {
              "code": "2085-9",
              "system": "http://loinc.org",
              "display": "Cholesterol in HDL [Mass/volume] in Serum or Plasma"
            }
          ],
          "text": "Cholesterol in HDL [Mass/volume] in Serum or Plasma"
        },
        "valueQuantity": {
          "system": "http://unitsofmeasure.org",
          "value": 27.8,
          "unit": "mg/dL",
          "code": "mg/dL"
        },
        "referenceRange": [
          {
            "low": {
              "value": 40,
              "code": "mg/dL",
              "system": "http://unitsofmeasure.org"
            }
          },
          {
            "high": {
              "value": 100,
              "code": "mg/dL",
              "system": "http://unitsofmeasure.org"
            }
          }
        ],
        "interpretation": [
          {
            "coding": [
              {
                "code": "L",
                "system": "http://terminology.hl7.org/CodeSystem/v3-ObservationInterpretation",
                "display": "Low"
              }
            ]
          }
        ],
        "text": {
          "status": "generated",
          "div": "<div xmlns=\"http://www.w3.org/1999/xhtml\"><table class=\"hl7__eu__lab__report\"><tr><th>Test</th><th>19-May-2025</th><th>Reference&#xA0;Range</th><th>Unit</th></tr><tr><td>Cholesterol in HDL [Mass/volume] in Serum or Plasma</td><td>27.8</td><td>40 - 100</td><td>L</td><td>mg/dL</td></tr></table></div>"
        },
        "status": "final",
        "subject": {
          "reference": "urn:uuid:b05155a8-6809-4e30-97fd-c38cb107ee70",
          "display": "Timothy Smith"
        },
        "effectiveDateTime": "2025-05-19T15:48:21Z"
      }
    },
    {
      "fullUrl": "urn:uuid:1d449f4e-1e4b-48b7-873b-580f0088b8fd",
      "resource": {
        "resourceType": "Observation",
        "id": "1d449f4e-1e4b-48b7-873b-580f0088b8fd",
        "meta": {
          "profile": [
            "http://hl7.eu/fhir/laboratory/StructureDefinition/Observation-resultslab-eu-lab"
          ]
        },
        "performer": [
          {
            "display": "The Central European Lab"
          }
        ],
        "category": [
          {
            "coding": [
              {
                "system": "http://terminology.hl7.org/CodeSystem/observation-category",
                "code": "laboratory"
              }
            ]
          }
        ],
        "code": {
          "coding": [
            {
              "code": "14959-1",
              "system": "http://loinc.org",
              "display": "Microalbumin/Creatinine [Mass Ratio] in Urine"
            }
          ],
          "text": "Microalbumin/Creatinine [Mass Ratio] in Urine"
        },
        "valueQuantity": {
          "system": "http://unitsofmeasure.org",
          "value": 14.7,
          "unit": "mg/g",
          "code": "mg/g"
        },
        "referenceRange": [
          {
            "low": {
              "value": 0,
              "code": "mg/g",
              "system": "http://unitsofmeasure.org"
            }
          },
          {
            "high": {
              "value": 30,
              "code": "mg/g",
              "system": "http://unitsofmeasure.org"
            }
          }
        ],
        "text": {
          "status": "generated",
          "div": "<div xmlns=\"http://www.w3.org/1999/xhtml\"><table class=\"hl7__eu__lab__report\"><tr><th>Test</th><th>19-May-2025</th><th>Reference&#xA0;Range</th><th>Unit</th></tr><tr><td>Microalbumin/Creatinine [Mass Ratio] in Urine</td><td>14.7</td><td>0 - 30</td><td></td><td>mg/g</td></tr></table></div>"
        },
        "status": "final",
        "subject": {
          "reference": "urn:uuid:b05155a8-6809-4e30-97fd-c38cb107ee70",
          "display": "Timothy Smith"
        },
        "effectiveDateTime": "2025-05-19T15:48:21Z"
      }
    },
    {
      "fullUrl": "urn:uuid:d2fe4558-4b66-4126-9b6d-1247a12cfc4c",
      "resource": {
        "resourceType": "DeviceUseStatement",
        "id": "d2fe4558-4b66-4126-9b6d-1247a12cfc4c",
        "meta": {
          "profile": [
            "http://hl7.eu/fhir/eps/StructureDefinition/deviceUseStatement-eu-eps"
          ]
        },
        "timingPeriod": {
          "start": "2025-05-19"
        },
        "text": {
          "status": "generated",
          "div": "<div xmlns=\"http://www.w3.org/1999/xhtml\"><table class=\"hl7__ips\"><tr><td>Home continuous positive airway pressure unit (physical object)</td><td><span class=\"nb\">19-May-2025</span></td></tr></table></div>"
        },
        "status": "active",
        "device": {
          "reference": "urn:uuid:b62e52f4-3718-433e-89f1-5f638645174f",
          "display": "Home continuous positive airway pressure unit (physical object)"
        },
        "subject": {
          "reference": "urn:uuid:b05155a8-6809-4e30-97fd-c38cb107ee70",
          "display": "Timothy Smith"
        }
      }
    },
    {
      "fullUrl": "urn:uuid:b62e52f4-3718-433e-89f1-5f638645174f",
      "resource": {
        "resourceType": "Device",
        "id": "b62e52f4-3718-433e-89f1-5f638645174f",
        "meta": {
          "profile": [
            "http://hl7.eu/fhir/eps/StructureDefinition/device-eu-eps"
          ]
        },
        "udiCarrier": [
          {
            "id": "(01)49692364887118(11)250428(17)500513(10)5910398757(21)131743365482"
          }
        ],
        "status": "active",
        "patient": {
          "reference": "urn:uuid:b05155a8-6809-4e30-97fd-c38cb107ee70",
          "display": "Timothy Smith"
        },
        "type": {
          "coding": [
            {
              "code": "702172008",
              "system": "http://snomed.info/sct",
              "display": "Home continuous positive airway pressure unit (physical object)"
            }
          ]
        }
      }
    },
    {
      "fullUrl": "urn:uuid:2480a85b-9006-4810-8b5e-666e625f768e",
      "resource": {
        "resourceType": "DeviceUseStatement",
        "id": "2480a85b-9006-4810-8b5e-666e625f768e",
        "meta": {
          "profile": [
            "http://hl7.eu/fhir/eps/StructureDefinition/deviceUseStatement-eu-eps"
          ]
        },
        "timingPeriod": {
          "start": "2025-05-19"
        },
        "text": {
          "status": "generated",
          "div": "<div xmlns=\"http://www.w3.org/1999/xhtml\"><table class=\"hl7__ips\"><tr><td>Respiratory humidifier (physical object)</td><td><span class=\"nb\">19-May-2025</span></td></tr></table></div>"
        },
        "status": "active",
        "device": {
          "reference": "urn:uuid:3c1f1125-7350-409d-950e-d22d5bc26899",
          "display": "Respiratory humidifier (physical object)"
        },
        "subject": {
          "reference": "urn:uuid:b05155a8-6809-4e30-97fd-c38cb107ee70",
          "display": "Timothy Smith"
        }
      }
    },
    {
      "fullUrl": "urn:uuid:3c1f1125-7350-409d-950e-d22d5bc26899",
      "resource": {
        "resourceType": "Device",
        "id": "3c1f1125-7350-409d-950e-d22d5bc26899",
        "meta": {
          "profile": [
            "http://hl7.eu/fhir/eps/StructureDefinition/device-eu-eps"
          ]
        },
        "udiCarrier": [
          {
            "id": "(01)77439673155938(11)250428(17)500513(10)5252065653468568045(21)22591192224159319"
          }
        ],
        "status": "active",
        "patient": {
          "reference": "urn:uuid:b05155a8-6809-4e30-97fd-c38cb107ee70",
          "display": "Timothy Smith"
        },
        "type": {
          "coding": [
            {
              "code": "706180003",
              "system": "http://snomed.info/sct",
              "display": "Respiratory humidifier (physical object)"
            }
          ]
        }
      }
    },
    {
      "fullUrl": "urn:uuid:de710898-7501-419d-8963-ef1a596408fd",
      "resource": {
        "resourceType": "DeviceUseStatement",
        "id": "de710898-7501-419d-8963-ef1a596408fd",
        "meta": {
          "profile": [
            "http://hl7.eu/fhir/eps/StructureDefinition/deviceUseStatement-eu-eps"
          ]
        },
        "timingPeriod": {
          "start": "1982-06-07"
        },
        "text": {
          "status": "generated",
          "div": "<div xmlns=\"http://www.w3.org/1999/xhtml\"><table class=\"hl7__ips\"><tr><td>Blood glucose meter (physical object)</td><td><span class=\"nb\">07-Jun-1982</span></td></tr></table></div>"
        },
        "status": "active",
        "device": {
          "reference": "urn:uuid:50503b8d-da7b-49df-a503-6b0b612feb1b",
          "display": "Blood glucose meter (physical object)"
        },
        "subject": {
          "reference": "urn:uuid:b05155a8-6809-4e30-97fd-c38cb107ee70",
          "display": "Timothy Smith"
        }
      }
    },
    {
      "fullUrl": "urn:uuid:50503b8d-da7b-49df-a503-6b0b612feb1b",
      "resource": {
        "resourceType": "Device",
        "id": "50503b8d-da7b-49df-a503-6b0b612feb1b",
        "meta": {
          "profile": [
            "http://hl7.eu/fhir/eps/StructureDefinition/device-eu-eps"
          ]
        },
        "udiCarrier": [
          {
            "id": "(01)65075069573801(11)820517(17)070601(10)895335(21)18289318493832571"
          }
        ],
        "status": "active",
        "patient": {
          "reference": "urn:uuid:b05155a8-6809-4e30-97fd-c38cb107ee70",
          "display": "Timothy Smith"
        },
        "type": {
          "coding": [
            {
              "code": "337414009",
              "system": "http://snomed.info/sct",
              "display": "Blood glucose meter (physical object)"
            }
          ]
        }
      }
    },
    {
      "fullUrl": "urn:uuid:3eca8090-041c-4489-995c-c81aa7aba82b",
      "resource": {
        "resourceType": "Device",
        "id": "3eca8090-041c-4489-995c-c81aa7aba82b",
        "deviceName": [
          {
            "name": "SYNDERAI Synthetic Generator",
            "type": "manufacturer-name"
          }
        ],
        "version": [
          {
            "value": "5.0"
          }
        ],
        "text": {
          "status": "generated",
          "div": "<div xmlns=\"http://www.w3.org/1999/xhtml\">SYNDERAI Synthetic Generator v5.0</div>"
        },
        "status": "active\"",
        "distinctIdentifier": "synderai-generator-50",
        "manufacturer": "SYNDERAI Project"
      }
    },
    {
      "fullUrl": "urn:uuid:530ec14a-ce96-4cd5-a288-7a277fa9a42d",
      "resource": {
        "resourceType": "Provenance",
        "id": "530ec14a-ce96-4cd5-a288-7a277fa9a42d",
        "target": [
          {
            "reference": "Patient/b05155a8-6809-4e30-97fd-c38cb107ee70"
          },
          {
            "reference": "Bundle/e8e3ac30-405b-4226-8228-6fbd59f3ea7a"
          },
          {
            "reference": "Composition/1621d699-da37-40c0-9f16-cf856f3144f0"
          },
          {
            "reference": "PractitionerRole/19ad5d7b-a0dc-44d8-9e95-149505ccf4f8"
          },
          {
            "reference": "Organization/443c4355-bcfd-451a-b30e-0c1be5e3c310"
          },
          {
            "reference": "Practitioner/13c2e2c3-6cf9-4df6-9aba-794d49defb62"
          }
        ],
        "activity": {
          "text": "Synthetic Example Data Generation"
        },
        "policy": [
          "https://synderai.net/synderai-synthetic-data-policy"
        ],
        "agent": [
          {
            "type": {
              "text": "author"
            },
            "who": {
              "reference": "Device/3eca8090-041c-4489-995c-c81aa7aba82b"
            }
          }
        ],
        "reason": [
          {
            "text": "Interoperability Testing and Training (non-clinical use)"
          }
        ],
        "text": {
          "status": "generated",
          "div": "<div xmlns=\"http://www.w3.org/1999/xhtml\">Provenance for SYNDERAI Synthetic Example Data Resource</div>"
        },
        "recorded": "2025-05-19T15:48:21Z"
      }
    }
  ],
  "type": "document",
  "timestamp": "2025-05-19T15:48:21Z"
}
