<Bundle xmlns="http://hl7.org/fhir">
   <id value="afc6d4e0-9fe9-495d-b5bb-88ebc9a579e0"/>
   <meta>
      <profile value="http://hl7.eu/fhir/eps/StructureDefinition/bundle-eu-eps"/>
   </meta>
   <identifier>
      <system value="urn:oid:2.16.840.1.113883.2.51.999"/>
      <value value="6aa9098e-0421-4bd6-92f6-35f3e43e9956"/>
      <assigner>
         <display value="HL7 Europe"/>
      </assigner>
   </identifier>
   <type value="document"/>
   <timestamp value="2024-08-24T12:49:06Z"/>
   <entry>
      <fullUrl value="urn:uuid:82dc2661-f15b-49bb-9863-96089f2302ec"/>
      <resource>
         <Composition>
            <id value="82dc2661-f15b-49bb-9863-96089f2302ec"/>
            <meta>
               <profile value="http://hl7.eu/fhir/eps/StructureDefinition/composition-eu-eps"/>
               <security>
                  <system value="http://terminology.hl7.org/CodeSystem/v3-ActReason"/>
                  <code value="HTEST"/>
               </security>
               <security>
                  <system value="http://terminology.hl7.org/CodeSystem/v3-ActReason"/>
                  <code value="TRAIN"/>
               </security>
               <tag>
                  <system value="https://synderai.net/fhir/CodeSystem/tags"/>
                  <code value="synthetic"/>
                  <display value="SYNDERAI Synthetic data"/>
               </tag>
            </meta>
            <identifier>
               <system value="urn:oid:2.16.840.1.113883.2.51.999"/>
               <value value="2540f35a-bf36-4f32-a6f1-c1d6da645b00"/>
               <assigner>
                  <display value="HL7 Europe"/>
               </assigner>
            </identifier>
            <status value="final"/>
            <type>
               <coding>
                  <system value="http://loinc.org"/>
                  <code value="60591-5"/>
                  <display value="Patient summary Document"/>
               </coding>
               <text value="Patient summary Document"/>
            </type>
            <subject>
               <reference value="urn:uuid:a3f8f421-e9aa-4800-b1bb-7539f7761f94"/>
               <display value="Ondrej Machová"/>
            </subject>
            <date value="2024-08-24"/>
            <author>
               <reference value="urn:uuid:c487d159-49f2-4bed-bc00-e7430bd5ad33"/>
            </author>
            <title value="European Patient Summary"/>
            <confidentiality value="N"/>
            <custodian>
               <reference value="urn:uuid:0514afe5-bd5a-4dad-b12f-cca31082372e"/>
            </custodian>
            <section>
               <title value="Problem list"/>
               <code>
                  <coding>
                     <system value="http://loinc.org"/>
                     <code value="11450-4"/>
                     <display value="Problem list - Reported"/>
                  </coding>
               </code>
               <text>
                  <status value="generated"/>
                  <div xmlns="http://www.w3.org/1999/xhtml">
                     <table class="hl7__ips">
                        <tr>
                           <th>Condition</th>
                           <th>Onset Date</th>
                           <th>Status</th>
                        </tr>
                        <tr>
                           <td>Chronic sinusitis</td>
                           <td>
                              <span class="nb">12-Feb-2025</span>
                           </td>
                           <td>active</td>
                        </tr>
                     </table>
                  </div>
               </text>
               <entry>
                  <reference value="urn:uuid:b0d7af2e-fe8a-493b-bae3-e8d51c3c5316"/>
               </entry>
            </section>
            <section>
               <title value="Medication list"/>
               <code>
                  <coding>
                     <system value="http://loinc.org"/>
                     <code value="10160-0"/>
                     <display value="History of Medication use Narrative"/>
                  </coding>
               </code>
               <text>
                  <status value="generated"/>
               </text>
               <entry>
                  <reference value="urn:uuid:4a97bc72-a481-4216-80cf-8c38a515966a"/>
               </entry>
               <entry>
                  <reference value="urn:uuid:4a97bc72-a481-4216-80cf-8c38a515966a"/>
               </entry>
            </section>
            <section>
               <title value="Immunizations list"/>
               <code>
                  <coding>
                     <system value="http://loinc.org"/>
                     <code value="11369-6"/>
                     <display value="History of Immunization note"/>
                  </coding>
               </code>
               <text>
                  <status value="generated"/>
                  <div xmlns="http://www.w3.org/1999/xhtml">
                     <table class="hl7__ips">
                        <tr>
                           <th>Vaccine</th>
                           <th>Date</th>
                        </tr>
                        <tr>
                           <td>Influenza virus antigen only vaccine product</td>
                           <td>
                              <span class="nb">08-Mar-2025</span>
                           </td>
                        </tr>
                        <tr>
                           <td>SARS-CoV-2 mRNA vaccine</td>
                           <td>
                              <span class="nb">10-Apr-2021</span>
                           </td>
                        </tr>
                        <tr>
                           <td>Hepatitis B virus antigen only vaccine product</td>
                           <td>
                              <span class="nb">18-Aug-2018</span>
                           </td>
                        </tr>
                        <tr>
                           <td>Clostridium tetani toxoid antigen adsorbed only vaccine product</td>
                           <td>
                              <span class="nb">18-Aug-2018</span>
                           </td>
                        </tr>
                        <tr>
                           <td>Neisseria meningitidis antigen-containing vaccine product</td>
                           <td>
                              <span class="nb">18-Aug-2018</span>
                           </td>
                        </tr>
                     </table>
                  </div>
               </text>
               <entry>
                  <reference value="urn:uuid:d51999e7-ae48-46e4-9d6c-dc4ec53a56b1"/>
               </entry>
               <entry>
                  <reference value="urn:uuid:c19b40cc-210b-4634-8edd-6149e740d1e8"/>
               </entry>
               <entry>
                  <reference value="urn:uuid:2ff94349-0911-447e-a288-317fc05a191a"/>
               </entry>
               <entry>
                  <reference value="urn:uuid:822db264-581b-436a-aebd-af6521d4ce0b"/>
               </entry>
               <entry>
                  <reference value="urn:uuid:80e32aef-0d8f-4c5f-8faa-fcff773c202c"/>
               </entry>
            </section>
            <section>
               <title value="Allergies and Intolerances"/>
               <code>
                  <coding>
                     <system value="http://loinc.org"/>
                     <code value="48765-2"/>
                     <display value="Allergies and adverse reactions Document"/>
                  </coding>
               </code>
               <text>
                  <status value="generated"/>
                  <div xmlns="http://www.w3.org/1999/xhtml">
                     <table class="hl7__ips">
                        <tr>
                           <th>Allergy/Intolerance</th>
                           <th>Onset Date</th>
                           <th>Status</th>
                           <th>Type</th>
                           <th>Reaction</th>
                        </tr>
                        <tr>
                           <td>Vaccine product containing Neisseria meningitidis antigen</td>
                           <td>?</td>
                           <td>active</td>
                           <td>?</td>
                           <td/>
                        </tr>
                     </table>
                  </div>
               </text>
               <entry>
                  <reference value="urn:uuid:8a06531d-01cc-44f1-836b-edccf0776a0e"/>
               </entry>
            </section>
            <section>
               <title value="Care Plan"/>
               <code>
                  <coding>
                     <system value="http://loinc.org"/>
                     <code value="18776-5"/>
                     <display value="Plan of care note"/>
                  </coding>
               </code>
               <text>
                  <status value="generated"/>
                  <div xmlns="http://www.w3.org/1999/xhtml">
                     <table class="hl7__ips">
                        <tr>
                           <th>Active Planned Care / Goals</th>
                           <th>Start Date</th>
                           <th>Reason</th>
                        </tr>
                        <tr>
                           <td>Respiratory therapy</td>
                           <td>
                              <span class="nb">15-Mar-2025</span>
                           </td>
                           <td>-</td>
                        </tr>
                     </table>
                  </div>
               </text>
               <entry>
                  <reference value="urn:uuid:045d39d5-993c-42c6-b66d-9b6065438445"/>
               </entry>
            </section>
            <section>
               <title value="Vital Signs"/>
               <code>
                  <coding>
                     <system value="http://loinc.org"/>
                     <code value="8716-3"/>
                     <display value="Vital signs note"/>
                  </coding>
               </code>
               <text>
                  <status value="generated"/>
                  <div xmlns="http://www.w3.org/1999/xhtml">
                     <table class="hl7__ips">
                        <tr>
                           <th>Vital Signs</th>
                           <th>2025-03-08</th>
                           <th>2025-02-22</th>
                        </tr>
                        <tr>
                           <td>Body Height</td>
                           <td>187.9 cm</td>
                           <td>187.9 cm</td>
                        </tr>
                        <tr>
                           <td>Pain severity - 0-10 verbal numeric rating [Score] - Reported</td>
                           <td>0 {score}</td>
                           <td>2 {score}</td>
                        </tr>
                        <tr>
                           <td>Body Weight</td>
                           <td>97.2 kg</td>
                           <td>97.2 kg</td>
                        </tr>
                        <tr>
                           <td>Body mass index (BMI) [Ratio]</td>
                           <td>27.5 kg/m2</td>
                           <td>27.5 kg/m2</td>
                        </tr>
                        <tr>
                           <td>Diastolic Blood Pressure</td>
                           <td>73 mm[Hg]</td>
                           <td>70 mm[Hg]</td>
                        </tr>
                        <tr>
                           <td>Systolic Blood Pressure</td>
                           <td>133 mm[Hg]</td>
                           <td>136 mm[Hg]</td>
                        </tr>
                        <tr>
                           <td>Heart rate</td>
                           <td>82 /min</td>
                           <td>96 /min</td>
                        </tr>
                        <tr>
                           <td>Respiratory rate</td>
                           <td>14 /min</td>
                           <td>14 /min</td>
                        </tr>
                     </table>
                  </div>
               </text>
               <entry>
                  <reference value="urn:uuid:94014cf6-369f-44cd-a8f9-901b77100e40"/>
               </entry>
               <entry>
                  <reference value="urn:uuid:cdcc2cf3-33c6-432d-bc10-5cf144654da6"/>
               </entry>
               <entry>
                  <reference value="urn:uuid:4ba495d0-6a10-4e1a-b2f5-45527554d6e7"/>
               </entry>
               <entry>
                  <reference value="urn:uuid:ce28532e-3a72-46ef-856b-f22a930158c9"/>
               </entry>
               <entry>
                  <reference value="urn:uuid:9ce959ab-6e26-4dee-9f06-5a854f53c5d2"/>
               </entry>
               <entry>
                  <reference value="urn:uuid:cf902e70-535c-4664-b11e-7d7df9772ea1"/>
               </entry>
               <entry>
                  <reference value="urn:uuid:d6559d42-563a-4ca4-8099-4fd19c779234"/>
               </entry>
               <entry>
                  <reference value="urn:uuid:77d4b8ef-eed4-40f4-8ab1-280b649120d7"/>
               </entry>
               <entry>
                  <reference value="urn:uuid:354fa679-8f81-4465-9a96-7329747f1a4b"/>
               </entry>
               <entry>
                  <reference value="urn:uuid:02dbc6d3-72da-4caf-9c9d-c8b7a6c9fcf1"/>
               </entry>
               <entry>
                  <reference value="urn:uuid:b936720a-493e-4130-b102-69a69efc3013"/>
               </entry>
               <entry>
                  <reference value="urn:uuid:734bf9d2-3979-472c-a378-2790fbb04705"/>
               </entry>
               <entry>
                  <reference value="urn:uuid:7b853e27-e6c6-42e4-a534-3ec266015df5"/>
               </entry>
               <entry>
                  <reference value="urn:uuid:2b4defbe-97fe-41e0-854f-310cbc3f3858"/>
               </entry>
               <entry>
                  <reference value="urn:uuid:9d73725a-4deb-4dd6-b5ff-82eb823b7d5b"/>
               </entry>
               <entry>
                  <reference value="urn:uuid:0d90295e-8d51-40a3-832c-8e3cbd000a41"/>
               </entry>
            </section>
            <section>
               <title value="Relevant diagnostic tests/laboratory data"/>
               <code>
                  <coding>
                     <system value="http://loinc.org"/>
                     <code value="30954-2"/>
                     <display value="Relevant diagnostic tests/laboratory data note"/>
                  </coding>
               </code>
               <text>
                  <status value="generated"/>
                  <div xmlns="http://www.w3.org/1999/xhtml">
                     <table class="hl7__ips">
                        <table class="hl7__ips">
                           <thead>
                              <tr>
                                 <th>Recent Lab Observations</th>
                                 <th>24-AUG-2024</th>
                                 <th>Reference Range</th>
                                 <th>Unit</th>
                              </tr>
                           </thead>
                           <tbody>
                              <tr>
                                 <td>Leukocytes [#/volume] in Blood by Automated count</td>
                                 <td>4.4</td>
                                 <td>3.5 - 10.5</td>
                                 <td>10*3/uL</td>
                              </tr>
                              <tr>
                                 <td>Erythrocytes [#/volume] in Blood by Automated count</td>
                                 <td>
                                    <strong>3.9 L</strong>
                                 </td>
                                 <td>4.5 - 6.2</td>
                                 <td>10*6/uL</td>
                              </tr>
                              <tr>
                                 <td>Hemoglobin [Mass/volume] in Blood</td>
                                 <td>
                                    <strong>13.3 L</strong>
                                 </td>
                                 <td>14 - 18</td>
                                 <td>g/dL</td>
                              </tr>
                              <tr>
                                 <td>Hematocrit [Volume Fraction] of Blood by Automated count</td>
                                 <td>48.7</td>
                                 <td>42 - 52</td>
                                 <td>%</td>
                              </tr>
                              <tr>
                                 <td>MCV [Entitic volume] by Automated count</td>
                                 <td>87.1</td>
                                 <td>82 - 98</td>
                                 <td>fL</td>
                              </tr>
                              <tr>
                                 <td>MCH [Entitic mass] by Automated count</td>
                                 <td>27.3</td>
                                 <td>27 - 33.4</td>
                                 <td>pg</td>
                              </tr>
                              <tr>
                                 <td>MCHC [Mass/volume] by Automated count</td>
                                 <td>34.0</td>
                                 <td>31 - 37</td>
                                 <td>g/dL</td>
                              </tr>
                              <tr>
                                 <td>Erythrocyte distribution width [Entitic volume] by Automated count</td>
                                 <td>40.2</td>
                                 <td>35 - 55</td>
                                 <td>fL</td>
                              </tr>
                              <tr>
                                 <td>Platelets [#/volume] in Blood by Automated count</td>
                                 <td>419.9</td>
                                 <td>150 - 450</td>
                                 <td>10*3/uL</td>
                              </tr>
                              <tr>
                                 <td>Platelet distribution width [Entitic volume] in Blood by Automated count</td>
                                 <td>
                                    <strong>317.9 H</strong>
                                 </td>
                                 <td>13.4 - 17.4</td>
                                 <td>fL</td>
                              </tr>
                              <tr>
                                 <td>Platelet mean volume [Entitic volume] in Blood by Automated count</td>
                                 <td>11.4</td>
                                 <td>7.2 - 13.8</td>
                                 <td>fL</td>
                              </tr>
                           </tbody>
                        </table>
                     </table>
                  </div>
               </text>
               <entry>
                  <reference value="urn:uuid:9e296960-1a6a-4b71-8fc4-ef4b1cb96b47"/>
               </entry>
               <entry>
                  <reference value="urn:uuid:9b3f2c46-c709-4e3c-83c8-49512001914f"/>
               </entry>
               <entry>
                  <reference value="urn:uuid:9c3643ae-03c3-4cdb-aaad-f7f36e26b97b"/>
               </entry>
               <entry>
                  <reference value="urn:uuid:f30eedaf-4eba-48dc-a8e8-0139d56c456b"/>
               </entry>
               <entry>
                  <reference value="urn:uuid:f18c88d5-e529-4764-b567-316c077e65c2"/>
               </entry>
               <entry>
                  <reference value="urn:uuid:c3aa1a13-62a0-4bfe-8739-646f64817338"/>
               </entry>
               <entry>
                  <reference value="urn:uuid:e2bc8037-1da7-403f-a3c0-c647d89d4b95"/>
               </entry>
               <entry>
                  <reference value="urn:uuid:78581532-7cc4-4726-b651-cc9d0eed2b97"/>
               </entry>
               <entry>
                  <reference value="urn:uuid:fdca4d98-abf1-4d0b-8b87-330e018df492"/>
               </entry>
               <entry>
                  <reference value="urn:uuid:b433bb2c-e64e-414a-9e2c-ff80d2fff912"/>
               </entry>
               <entry>
                  <reference value="urn:uuid:4bea9f6c-3be8-49a0-84f0-af1d641d01fc"/>
               </entry>
            </section>
            <section>
               <title value="Device Use"/>
               <code>
                  <coding>
                     <system value="http://loinc.org"/>
                     <code value="46264-8"/>
                     <display value="History of medical device use"/>
                  </coding>
               </code>
               <text>
                  <status value="generated"/>
                  <div xmlns="http://www.w3.org/1999/xhtml">
                     <table class="hl7__ips">
                        <tr>
                           <th>Device</th>
                           <th>Date (since)</th>
                        </tr>
                        <tr>
                           <td>Home nebulizer (physical object)</td>
                           <td>
                              <span class="nb">12-Feb-2025</span>
                           </td>
                        </tr>
                     </table>
                  </div>
               </text>
               <entry>
                  <reference value="urn:uuid:8e39a3ea-ce93-45f8-9502-7fa09fe2240c"/>
               </entry>
            </section>
         </Composition>
      </resource>
   </entry>
   <entry>
      <fullUrl value="urn:uuid:a3f8f421-e9aa-4800-b1bb-7539f7761f94"/>
      <resource>
         <Patient>
            <id value="a3f8f421-e9aa-4800-b1bb-7539f7761f94"/>
            <meta>
               <profile value="http://hl7.eu/fhir/eps/StructureDefinition/patient-eu-eps"/>
               <security>
                  <system value="http://terminology.hl7.org/CodeSystem/v3-ActReason"/>
                  <code value="HTEST"/>
               </security>
               <security>
                  <system value="http://terminology.hl7.org/CodeSystem/v3-ActReason"/>
                  <code value="TRAIN"/>
               </security>
               <tag>
                  <system value="https://synderai.net/fhir/CodeSystem/tags"/>
                  <code value="synthetic"/>
                  <display value="SYNDERAI Synthetic data"/>
               </tag>
            </meta>
            <text>
               <status value="generated"/>
               <div xmlns="http://www.w3.org/1999/xhtml">
                  <table class="hl7__ips">
                     <tr>
                        <td>Ondrej Machová</td>
                        <td>male</td>
                        <td>31-Jul-1997</td>
                     </tr>
                  </table>
               </div>
            </text>
            <extension url="http://hl7.org/fhir/StructureDefinition/patient-nationality">
               <valueCodeableConcept>
                  <coding>
                     <system value="http://hl7.org/fhir/ValueSet/country"/>
                     <code value="SK"/>
                  </coding>
               </valueCodeableConcept>
            </extension>
            <identifier>
               <type>
                  <coding>
                     <system value="http://terminology.hl7.org/CodeSystem/v2-0203"/>
                     <code value="PT"/>
                  </coding>
               </type>
               <system value="http://ec.europa.eu/identifier/eci"/>
               <value value="8798-429370-1"/>
            </identifier>
            <identifier>
               <type>
                  <coding>
                     <system value="http://terminology.hl7.org/CodeSystem/v2-0203"/>
                     <code value="MR"/>
                  </coding>
               </type>
               <system value="http://local.setting.eu/identifier"/>
               <value value="2b8bf475-e001-39fc-9880-7b5894bf6991"/>
            </identifier>
            <name>
               <family value="Machová"/>
            </name>
            <name>
               <given value="Ondrej"/>
            </name>
            <name>
               <text value="Ondrej Machová"/>
            </name>
            <telecom>
               <system value="phone"/>
               <value value="00421 944 296 102"/>
            </telecom>
            <gender value="male"/>
            <birthDate value="1997-07-31"/>
            <address>
               <use value="home"/>
               <type value="physical"/>
               <line value="Staromestská 5"/>
               <city value="Hrušov"/>
               <postalCode value="95103"/>
               <country value="Slovakia"/>
            </address>
         </Patient>
      </resource>
   </entry>
   <entry>
      <fullUrl value="urn:uuid:c487d159-49f2-4bed-bc00-e7430bd5ad33"/>
      <resource>
         <PractitionerRole>
            <id value="c487d159-49f2-4bed-bc00-e7430bd5ad33"/>
            <meta>
               <profile value="http://hl7.eu/fhir/base/StructureDefinition/practitionerRole-eu"/>
            </meta>
            <text>
               <status value="generated"/>
               <div xmlns="http://www.w3.org/1999/xhtml">
                  <table class="hl7__ips">Provider Role Id c487d159-49f2-4bed-bc00-e7430bd5ad33</table>
               </div>
            </text>
            <practitioner>
               <reference value="urn:uuid:fa84e429-c8d0-4744-8648-0bf3e5f5dc75"/>
            </practitioner>
            <organization>
               <reference value="urn:uuid:0514afe5-bd5a-4dad-b12f-cca31082372e"/>
            </organization>
         </PractitionerRole>
      </resource>
   </entry>
   <entry>
      <fullUrl value="urn:uuid:fa84e429-c8d0-4744-8648-0bf3e5f5dc75"/>
      <resource>
         <Practitioner>
            <id value="fa84e429-c8d0-4744-8648-0bf3e5f5dc75"/>
            <meta>
               <profile value="http://hl7.eu/fhir/base/StructureDefinition/practitioner-eu"/>
            </meta>
            <text>
               <status value="generated"/>
               <div xmlns="http://www.w3.org/1999/xhtml">
                  <table class="hl7__ips">Dr. Hel Ping</table>
               </div>
            </text>
            <name>
               <family value="Ping"/>
               <given value="Hel"/>
               <prefix value="Dr."/>
            </name>
         </Practitioner>
      </resource>
   </entry>
   <entry>
      <fullUrl value="urn:uuid:0514afe5-bd5a-4dad-b12f-cca31082372e"/>
      <resource>
         <Organization>
            <id value="0514afe5-bd5a-4dad-b12f-cca31082372e"/>
            <meta>
               <profile value="http://hl7.eu/fhir/base/StructureDefinition/organization-eu"/>
            </meta>
            <text>
               <status value="generated"/>
               <div xmlns="http://www.w3.org/1999/xhtml">
                  <table class="hl7__ips">Územná poliklinika</table>
               </div>
            </text>
            <identifier>
               <system value="urn:oid:2.16.840.1.113883.2.51.999"/>
               <value value="0ccc2800-4b85-46aa-a9ba-13eb37949e78"/>
               <assigner>
                  <display value="HL7 Europe"/>
               </assigner>
            </identifier>
            <name value="Územná poliklinika"/>
            <address>
               <city value="Kremnica"/>
               <postalCode value="967 01"/>
               <country value="Slovakia"/>
            </address>
         </Organization>
      </resource>
   </entry>
   <entry>
      <fullUrl value="urn:uuid:b0d7af2e-fe8a-493b-bae3-e8d51c3c5316"/>
      <resource>
         <Condition>
            <id value="b0d7af2e-fe8a-493b-bae3-e8d51c3c5316"/>
            <meta>
               <profile value="http://hl7.org/fhir/uv/ips/StructureDefinition/Condition-uv-ips"/>
            </meta>
            <text>
               <status value="generated"/>
               <div xmlns="http://www.w3.org/1999/xhtml">
                  <table class="hl7__ips">
                     <tr>
                        <td>Chronic sinusitis</td>
                        <td>
                           <span class="nb">12-Feb-2025</span>
                        </td>
                        <td>active</td>
                     </tr>
                  </table>
               </div>
            </text>
            <category>
               <coding>
                  <system value="http://terminology.hl7.org/CodeSystem/condition-category"/>
                  <code value="problem-list-item"/>
                  <display value="Problem List Item"/>
               </coding>
            </category>
            <code>
               <coding>
                  <system value="http://snomed.info/sct"/>
                  <code value="40055000"/>
                  <display value="Chronic sinusitis (disorder)"/>
               </coding>
               <text value="Chronic sinusitis"/>
            </code>
            <subject>
               <reference value="urn:uuid:"/>
               <display value="Ondrej Machová"/>
            </subject>
            <onsetDateTime value="2025-02-12"/>
            <asserter>
               <reference value="urn:uuid:"/>
               <display value="Územná poliklinika"/>
            </asserter>
         </Condition>
      </resource>
   </entry>
   <entry>
      <fullUrl value="urn:uuid:39730d48-ae12-49d0-b13f-b0bd32f9111b"/>
      <resource>
         <Condition>
            <id value="39730d48-ae12-49d0-b13f-b0bd32f9111b"/>
            <meta>
               <profile value="http://hl7.org/fhir/uv/ips/StructureDefinition/Condition-uv-ips"/>
            </meta>
            <text>
               <status value="generated"/>
               <div xmlns="http://www.w3.org/1999/xhtml">
                  <table class="hl7__ips">
                     <tr>
                        <td>
                           <span class="grayedout">Acute bronchitis</span>
                        </td>
                        <td>
                           <span class="nb">15-Mar-2025 - 26-Mar-2025</span>
                        </td>
                        <td>
                           <span class="grayedout">inactive</span>
                        </td>
                     </tr>
                  </table>
               </div>
            </text>
            <category>
               <coding>
                  <system value="http://terminology.hl7.org/CodeSystem/condition-category"/>
                  <code value="problem-list-item"/>
                  <display value="Problem List Item"/>
               </coding>
            </category>
            <code>
               <coding>
                  <system value="http://snomed.info/sct"/>
                  <code value="10509002"/>
                  <display value="Acute bronchitis (disorder)"/>
               </coding>
               <text value="Acute bronchitis"/>
            </code>
            <subject>
               <reference value="urn:uuid:"/>
               <display value="Ondrej Machová"/>
            </subject>
            <onsetDateTime value="2025-03-15"/>
            <abatementDateTime value="2025-03-26"/>
            <asserter>
               <reference value="urn:uuid:"/>
               <display value="Územná poliklinika"/>
            </asserter>
         </Condition>
      </resource>
   </entry>
   <entry>
      <fullUrl value="urn:uuid:455b5048-6862-4892-bb40-016bef66319d"/>
      <resource>
         <Condition>
            <id value="455b5048-6862-4892-bb40-016bef66319d"/>
            <meta>
               <profile value="http://hl7.org/fhir/uv/ips/StructureDefinition/Condition-uv-ips"/>
            </meta>
            <text>
               <status value="generated"/>
               <div xmlns="http://www.w3.org/1999/xhtml">
                  <table class="hl7__ips">
                     <tr>
                        <td>
                           <span class="grayedout">Acute bacterial sinusitis</span>
                        </td>
                        <td>
                           <span class="nb">30-Aug-2024 - 26-Feb-2025</span>
                        </td>
                        <td>
                           <span class="grayedout">inactive</span>
                        </td>
                     </tr>
                  </table>
               </div>
            </text>
            <category>
               <coding>
                  <system value="http://terminology.hl7.org/CodeSystem/condition-category"/>
                  <code value="problem-list-item"/>
                  <display value="Problem List Item"/>
               </coding>
            </category>
            <code>
               <coding>
                  <system value="http://snomed.info/sct"/>
                  <code value="75498004"/>
                  <display value="Acute bacterial sinusitis (disorder)"/>
               </coding>
               <text value="Acute bacterial sinusitis"/>
            </code>
            <subject>
               <reference value="urn:uuid:"/>
               <display value="Ondrej Machová"/>
            </subject>
            <onsetDateTime value="2024-08-30"/>
            <abatementDateTime value="2025-02-26"/>
            <asserter>
               <reference value="urn:uuid:"/>
               <display value="Územná poliklinika"/>
            </asserter>
         </Condition>
      </resource>
   </entry>
   <entry>
      <fullUrl value="urn:uuid:4a97bc72-a481-4216-80cf-8c38a515966a"/>
      <resource>
         <MedicationStatement>
            <id value="4a97bc72-a481-4216-80cf-8c38a515966a"/>
            <meta>
               <profile value="http://hl7.eu/fhir/eps/StructureDefinition/MedicationStatement-eu-eps"/>
            </meta>
            <status value="active"/>
            <medicationCodeableConcept>
               <coding>
                  <system value="http://snomed.info/sct"/>
                  <code value="787481004"/>
                  <display value="No known medications (situation)"/>
               </coding>
            </medicationCodeableConcept>
            <subject>
               <reference value="urn:uuid:a3f8f421-e9aa-4800-b1bb-7539f7761f94"/>
               <display value="Ondrej Machová"/>
            </subject>
            <effectivePeriod>
               <extension url="http://hl7.org/fhir/StructureDefinition/data-absent-reason">
                  <valueCode value="unknown"/>
               </extension>
            </effectivePeriod>
         </MedicationStatement>
      </resource>
   </entry>
   <entry>
      <fullUrl value="urn:uuid:4a97bc72-a481-4216-80cf-8c38a515966a"/>
      <resource>
         <MedicationStatement>
            <id value="4a97bc72-a481-4216-80cf-8c38a515966a"/>
            <meta>
               <profile value="http://hl7.eu/fhir/eps/StructureDefinition/MedicationStatement-eu-eps"/>
            </meta>
            <status value="active"/>
            <medicationCodeableConcept>
               <coding>
                  <system value="http://snomed.info/sct"/>
                  <code value="787481004"/>
                  <display value="No known medications (situation)"/>
               </coding>
            </medicationCodeableConcept>
            <subject>
               <reference value="urn:uuid:a3f8f421-e9aa-4800-b1bb-7539f7761f94"/>
               <display value="Ondrej Machová"/>
            </subject>
            <effectivePeriod>
               <extension url="http://hl7.org/fhir/StructureDefinition/data-absent-reason">
                  <valueCode value="unknown"/>
               </extension>
            </effectivePeriod>
         </MedicationStatement>
      </resource>
   </entry>
   <entry>
      <fullUrl value="urn:uuid:d51999e7-ae48-46e4-9d6c-dc4ec53a56b1"/>
      <resource>
         <Immunization>
            <id value="d51999e7-ae48-46e4-9d6c-dc4ec53a56b1"/>
            <meta>
               <profile value="http://hl7.org/fhir/uv/ips/StructureDefinition/Immunization-uv-ips"/>
            </meta>
            <text>
               <status value="generated"/>
               <div xmlns="http://www.w3.org/1999/xhtml">
                  <table class="hl7__ips">
                     <tr>
                        <td>Influenza virus antigen only vaccine product</td>
                        <td>
                           <span class="nb">08-Mar-2025</span>
                        </td>
                     </tr>
                  </table>
               </div>
            </text>
            <status value="completed"/>
            <vaccineCode>
               <coding>
                  <system value="http://snomed.info/sct"/>
                  <code value="1181000221105"/>
                  <display value="Vaccine product containing Influenza virus antigen"/>
               </coding>
               <coding>
                  <system value="http://www.whocc.no/atc"/>
                  <code value="J07BB02"/>
                  <display value="Influenza, inactivated, split virus"/>
               </coding>
               <text value="Influenza virus antigen only vaccine product"/>
            </vaccineCode>
            <patient>
               <reference value="urn:uuid:a3f8f421-e9aa-4800-b1bb-7539f7761f94"/>
               <display value="Ondrej Machová"/>
            </patient>
            <occurrenceDateTime value="2025-03-08"/>
            <lotNumber value="TI-6WxRqIm"/>
            <expirationDate value="2025-12-29"/>
            <site>
               <coding>
                  <system value="http://snomed.info/sct"/>
                  <code value="244979005"/>
                  <display value="Entire muscle of upper arm"/>
               </coding>
               <text value="Entire muscle of upper arm"/>
            </site>
            <route>
               <coding>
                  <system value="http://snomed.info/sct"/>
                  <code value="78421000"/>
                  <display value="Intramuscular route"/>
               </coding>
               <text value="Intramuscular route"/>
            </route>
         </Immunization>
      </resource>
   </entry>
   <entry>
      <fullUrl value="urn:uuid:c19b40cc-210b-4634-8edd-6149e740d1e8"/>
      <resource>
         <Immunization>
            <id value="c19b40cc-210b-4634-8edd-6149e740d1e8"/>
            <meta>
               <profile value="http://hl7.org/fhir/uv/ips/StructureDefinition/Immunization-uv-ips"/>
            </meta>
            <text>
               <status value="generated"/>
               <div xmlns="http://www.w3.org/1999/xhtml">
                  <table class="hl7__ips">
                     <tr>
                        <td>SARS-CoV-2 mRNA vaccine</td>
                        <td>
                           <span class="nb">10-Apr-2021</span>
                        </td>
                     </tr>
                  </table>
               </div>
            </text>
            <status value="completed"/>
            <vaccineCode>
               <coding>
                  <system value="http://snomed.info/sct"/>
                  <code value="1119349007"/>
                  <display value="Vaccine product containing SARS-CoV-2 mRNA"/>
               </coding>
               <coding>
                  <system value="http://www.whocc.no/atc"/>
                  <code value="J07BX03"/>
                  <display value="COVID-19 mRNA vaccines"/>
               </coding>
               <text value="SARS-CoV-2 mRNA vaccine"/>
            </vaccineCode>
            <patient>
               <reference value="urn:uuid:a3f8f421-e9aa-4800-b1bb-7539f7761f94"/>
               <display value="Ondrej Machová"/>
            </patient>
            <occurrenceDateTime value="2021-04-10"/>
            <lotNumber value="AC-hL9c"/>
            <expirationDate value="2021-10-02"/>
            <site>
               <coding>
                  <system value="http://snomed.info/sct"/>
                  <code value="244979005"/>
                  <display value="Entire muscle of upper arm"/>
               </coding>
               <text value="Entire muscle of upper arm"/>
            </site>
            <route>
               <coding>
                  <system value="http://snomed.info/sct"/>
                  <code value="78421000"/>
                  <display value="Intramuscular route"/>
               </coding>
               <text value="Intramuscular route"/>
            </route>
         </Immunization>
      </resource>
   </entry>
   <entry>
      <fullUrl value="urn:uuid:2ff94349-0911-447e-a288-317fc05a191a"/>
      <resource>
         <Immunization>
            <id value="2ff94349-0911-447e-a288-317fc05a191a"/>
            <meta>
               <profile value="http://hl7.org/fhir/uv/ips/StructureDefinition/Immunization-uv-ips"/>
            </meta>
            <text>
               <status value="generated"/>
               <div xmlns="http://www.w3.org/1999/xhtml">
                  <table class="hl7__ips">
                     <tr>
                        <td>Hepatitis B virus antigen only vaccine product</td>
                        <td>
                           <span class="nb">18-Aug-2018</span>
                        </td>
                     </tr>
                  </table>
               </div>
            </text>
            <status value="completed"/>
            <vaccineCode>
               <coding>
                  <system value="http://snomed.info/sct"/>
                  <code value="871822003"/>
                  <display value="Vaccine product containing Hepatitis B virus antigen"/>
               </coding>
               <coding>
                  <system value="http://www.whocc.no/atc"/>
                  <code value="J07BC01"/>
                  <display value="Hepatitis B vaccines"/>
               </coding>
               <text value="Hepatitis B virus antigen only vaccine product"/>
            </vaccineCode>
            <patient>
               <reference value="urn:uuid:a3f8f421-e9aa-4800-b1bb-7539f7761f94"/>
               <display value="Ondrej Machová"/>
            </patient>
            <occurrenceDateTime value="2018-08-18"/>
            <lotNumber value="UL-uaZmjeRlK"/>
            <expirationDate value="2019-02-04"/>
            <site>
               <coding>
                  <system value="http://snomed.info/sct"/>
                  <code value="244979005"/>
                  <display value="Entire muscle of upper arm"/>
               </coding>
               <text value="Entire muscle of upper arm"/>
            </site>
            <route>
               <coding>
                  <system value="http://snomed.info/sct"/>
                  <code value="78421000"/>
                  <display value="Intramuscular route"/>
               </coding>
               <text value="Intramuscular route"/>
            </route>
         </Immunization>
      </resource>
   </entry>
   <entry>
      <fullUrl value="urn:uuid:822db264-581b-436a-aebd-af6521d4ce0b"/>
      <resource>
         <Immunization>
            <id value="822db264-581b-436a-aebd-af6521d4ce0b"/>
            <meta>
               <profile value="http://hl7.org/fhir/uv/ips/StructureDefinition/Immunization-uv-ips"/>
            </meta>
            <text>
               <status value="generated"/>
               <div xmlns="http://www.w3.org/1999/xhtml">
                  <table class="hl7__ips">
                     <tr>
                        <td>Clostridium tetani toxoid antigen adsorbed only vaccine product</td>
                        <td>
                           <span class="nb">18-Aug-2018</span>
                        </td>
                     </tr>
                  </table>
               </div>
            </text>
            <status value="completed"/>
            <vaccineCode>
               <coding>
                  <system value="http://snomed.info/sct"/>
                  <code value="777725002"/>
                  <display value="Vaccine product containing only Clostridium tetani toxoid antigen adsorbed"/>
               </coding>
               <coding>
                  <system value="http://www.whocc.no/atc"/>
                  <code value="J07AM51"/>
                  <display value="Diphtheria-tetanus vaccines, adult type"/>
               </coding>
               <text value="Clostridium tetani toxoid antigen adsorbed only vaccine product"/>
            </vaccineCode>
            <patient>
               <reference value="urn:uuid:a3f8f421-e9aa-4800-b1bb-7539f7761f94"/>
               <display value="Ondrej Machová"/>
            </patient>
            <occurrenceDateTime value="2018-08-18"/>
            <lotNumber value="GR-8WTY"/>
            <expirationDate value="2018-11-13"/>
            <site>
               <coding>
                  <system value="http://snomed.info/sct"/>
                  <code value="244979005"/>
                  <display value="Entire muscle of upper arm"/>
               </coding>
               <text value="Entire muscle of upper arm"/>
            </site>
            <route>
               <coding>
                  <system value="http://snomed.info/sct"/>
                  <code value="78421000"/>
                  <display value="Intramuscular route"/>
               </coding>
               <text value="Intramuscular route"/>
            </route>
         </Immunization>
      </resource>
   </entry>
   <entry>
      <fullUrl value="urn:uuid:80e32aef-0d8f-4c5f-8faa-fcff773c202c"/>
      <resource>
         <Immunization>
            <id value="80e32aef-0d8f-4c5f-8faa-fcff773c202c"/>
            <meta>
               <profile value="http://hl7.org/fhir/uv/ips/StructureDefinition/Immunization-uv-ips"/>
            </meta>
            <text>
               <status value="generated"/>
               <div xmlns="http://www.w3.org/1999/xhtml">
                  <table class="hl7__ips">
                     <tr>
                        <td>Neisseria meningitidis antigen-containing vaccine product</td>
                        <td>
                           <span class="nb">18-Aug-2018</span>
                        </td>
                     </tr>
                  </table>
               </div>
            </text>
            <status value="completed"/>
            <vaccineCode>
               <coding>
                  <system value="http://snomed.info/sct"/>
                  <code value="836401009"/>
                  <display value="Vaccine product containing Neisseria meningitidis antigen"/>
               </coding>
               <coding>
                  <system value="http://www.whocc.no/atc"/>
                  <code value="J07AH08"/>
                  <display value="Meningococcal vaccines, conjugated"/>
               </coding>
               <text value="Neisseria meningitidis antigen-containing vaccine product"/>
            </vaccineCode>
            <patient>
               <reference value="urn:uuid:a3f8f421-e9aa-4800-b1bb-7539f7761f94"/>
               <display value="Ondrej Machová"/>
            </patient>
            <occurrenceDateTime value="2018-08-18"/>
            <lotNumber value="FL-ODWfkb"/>
            <expirationDate value="2018-12-27"/>
            <site>
               <coding>
                  <system value="http://snomed.info/sct"/>
                  <code value="244979005"/>
                  <display value="Entire muscle of upper arm"/>
               </coding>
               <text value="Entire muscle of upper arm"/>
            </site>
            <route>
               <coding>
                  <system value="http://snomed.info/sct"/>
                  <code value="78421000"/>
                  <display value="Intramuscular route"/>
               </coding>
               <text value="Intramuscular route"/>
            </route>
         </Immunization>
      </resource>
   </entry>
   <entry>
      <fullUrl value="urn:uuid:8a06531d-01cc-44f1-836b-edccf0776a0e"/>
      <resource>
         <AllergyIntolerance>
            <id value="8a06531d-01cc-44f1-836b-edccf0776a0e"/>
            <meta>
               <profile value="http://hl7.eu/fhir/eps/StructureDefinition/allergyIntolerance-eu-eps"/>
            </meta>
            <text>
               <status value="generated"/>
               <div xmlns="http://www.w3.org/1999/xhtml">
                  <table class="hl7__ips">
                     <tr>
                        <th>Allergy/Intolerance</th>
                        <th>Onset Date</th>
                        <th>Status</th>
                        <th>Type</th>
                        <th>Reaction</th>
                     </tr>
                     <tr>
                        <td>Vaccine product containing Neisseria meningitidis antigen</td>
                        <td>?</td>
                        <td>active</td>
                        <td>?</td>
                        <td/>
                     </tr>
                  </table>
               </div>
            </text>
            <clinicalStatus>
               <coding>
                  <system value="http://terminology.hl7.org/CodeSystem/allergyintolerance-clinical"/>
                  <code value="active"/>
               </coding>
            </clinicalStatus>
            <verificationStatus>
               <coding>
                  <system value="http://terminology.hl7.org/CodeSystem/allergyintolerance-verification"/>
                  <code value="confirmed"/>
               </coding>
            </verificationStatus>
            <code>
               <coding>
                  <system value="http://snomed.info/sct"/>
                  <code value="836401009"/>
                  <display value="Vaccine product containing Neisseria meningitidis antigen"/>
               </coding>
               <text value="Vaccine product containing Neisseria meningitidis antigen"/>
            </code>
            <patient>
               <reference value="urn:uuid:a3f8f421-e9aa-4800-b1bb-7539f7761f94"/>
               <display value="Ondrej Machová"/>
            </patient>
            <onsetDateTime>
               <extension url="http://hl7.org/fhir/StructureDefinition/data-absent-reason">
                  <valueCode value="unknown"/>
               </extension>
            </onsetDateTime>
         </AllergyIntolerance>
      </resource>
   </entry>
   <entry>
      <fullUrl value="urn:uuid:045d39d5-993c-42c6-b66d-9b6065438445"/>
      <resource>
         <CarePlan>
            <id value="045d39d5-993c-42c6-b66d-9b6065438445"/>
            <text>
               <status value="generated"/>
               <div xmlns="http://www.w3.org/1999/xhtml">
                  <table class="hl7__ips first25">
                     <tr>
                        <th>Active Planned Care / Goals</th>
                        <th>Start Date</th>
                        <th>Reason</th>
                     </tr>
                     <tr>
                        <td>Respiratory therapy</td>
                        <td>
                           <span class="nb">15-Mar-2025</span>
                        </td>
                        <td>-</td>
                     </tr>
                  </table>
               </div>
            </text>
            <status value="active"/>
            <intent value="plan"/>
            <category>
               <coding>
                  <system value="http://terminology.hl7.org/CodeSystem/care-plan-category"/>
                  <code value="assess-plan"/>
                  <display value="Assessment and Plan"/>
               </coding>
            </category>
            <subject>
               <reference value="urn:uuid:a3f8f421-e9aa-4800-b1bb-7539f7761f94"/>
               <display value="Ondrej Machová"/>
            </subject>
            <period>
               <start value="2025-03-15"/>
            </period>
            <activity>
               <detail>
                  <kind value="Appointment"/>
                  <code>
                     <coding>
                        <system value="http://snomed.info/sct"/>
                        <code value="53950000"/>
                        <display value="Respiratory therapy (procedure)"/>
                     </coding>
                  </code>
                  <status value="unknown"/>
                  <description value="Respiratory therapy"/>
               </detail>
            </activity>
         </CarePlan>
      </resource>
   </entry>
   <entry>
      <fullUrl value="urn:uuid:94014cf6-369f-44cd-a8f9-901b77100e40"/>
      <resource>
         <Observation>
            <id value="94014cf6-369f-44cd-a8f9-901b77100e40"/>
            <meta>
               <profile value="http://hl7.org/fhir/StructureDefinition/vitalsigns"/>
            </meta>
            <text>
               <status value="generated"/>
               <div xmlns="http://www.w3.org/1999/xhtml">
                  <table class="hl7__ips">
                     <tr>
                        <th>Vital Sign</th>
                        <th>Date</th>
                        <th>Measurement</th>
                     </tr>
                     <tr>
                        <td>Body Height</td>
                        <td>08-Mar-2025</td>
                        <td>187.9 cm</td>
                     </tr>
                  </table>
               </div>
            </text>
            <status value="final"/>
            <category>
               <coding>
                  <system value="http://terminology.hl7.org/CodeSystem/observation-category"/>
                  <code value="vital-signs"/>
                  <display value="Vital Signs"/>
               </coding>
            </category>
            <code>
               <coding>
                  <system value="http://loinc.org"/>
                  <code value="$8302-2"/>
                  <display value="Body Height"/>
               </coding>
            </code>
            <subject>
               <reference value="urn:uuid:a3f8f421-e9aa-4800-b1bb-7539f7761f94"/>
               <display value="Ondrej Machová"/>
            </subject>
            <effectiveDateTime value="2025-03-08"/>
            <valueQuantity>
               <value value="187.9"/>
               <unit value="cm"/>
               <code value="cm"/>
            </valueQuantity>
         </Observation>
      </resource>
   </entry>
   <entry>
      <fullUrl value="urn:uuid:cdcc2cf3-33c6-432d-bc10-5cf144654da6"/>
      <resource>
         <Observation>
            <id value="cdcc2cf3-33c6-432d-bc10-5cf144654da6"/>
            <meta>
               <profile value="http://hl7.org/fhir/StructureDefinition/vitalsigns"/>
            </meta>
            <text>
               <status value="generated"/>
               <div xmlns="http://www.w3.org/1999/xhtml">
                  <table class="hl7__ips">
                     <tr>
                        <th>Vital Sign</th>
                        <th>Date</th>
                        <th>Measurement</th>
                     </tr>
                     <tr>
                        <td>Pain severity - 0-10 verbal numeric rating [Score] - Reported</td>
                        <td>08-Mar-2025</td>
                        <td>0 {score}</td>
                     </tr>
                  </table>
               </div>
            </text>
            <status value="final"/>
            <category>
               <coding>
                  <system value="http://terminology.hl7.org/CodeSystem/observation-category"/>
                  <code value="vital-signs"/>
                  <display value="Vital Signs"/>
               </coding>
            </category>
            <code>
               <coding>
                  <system value="http://loinc.org"/>
                  <code value="$72514-3"/>
                  <display value="Pain severity - 0-10 verbal numeric rating [Score] - Reported"/>
               </coding>
            </code>
            <subject>
               <reference value="urn:uuid:a3f8f421-e9aa-4800-b1bb-7539f7761f94"/>
               <display value="Ondrej Machová"/>
            </subject>
            <effectiveDateTime value="2025-03-08"/>
            <valueQuantity>
               <value value="0"/>
               <unit value="{score}"/>
               <code value="{score}"/>
            </valueQuantity>
         </Observation>
      </resource>
   </entry>
   <entry>
      <fullUrl value="urn:uuid:4ba495d0-6a10-4e1a-b2f5-45527554d6e7"/>
      <resource>
         <Observation>
            <id value="4ba495d0-6a10-4e1a-b2f5-45527554d6e7"/>
            <meta>
               <profile value="http://hl7.org/fhir/StructureDefinition/vitalsigns"/>
            </meta>
            <text>
               <status value="generated"/>
               <div xmlns="http://www.w3.org/1999/xhtml">
                  <table class="hl7__ips">
                     <tr>
                        <th>Vital Sign</th>
                        <th>Date</th>
                        <th>Measurement</th>
                     </tr>
                     <tr>
                        <td>Body Weight</td>
                        <td>08-Mar-2025</td>
                        <td>97.2 kg</td>
                     </tr>
                  </table>
               </div>
            </text>
            <status value="final"/>
            <category>
               <coding>
                  <system value="http://terminology.hl7.org/CodeSystem/observation-category"/>
                  <code value="vital-signs"/>
                  <display value="Vital Signs"/>
               </coding>
            </category>
            <code>
               <coding>
                  <system value="http://loinc.org"/>
                  <code value="$29463-7"/>
                  <display value="Body Weight"/>
               </coding>
            </code>
            <subject>
               <reference value="urn:uuid:a3f8f421-e9aa-4800-b1bb-7539f7761f94"/>
               <display value="Ondrej Machová"/>
            </subject>
            <effectiveDateTime value="2025-03-08"/>
            <valueQuantity>
               <value value="97.2"/>
               <unit value="kg"/>
               <code value="kg"/>
            </valueQuantity>
         </Observation>
      </resource>
   </entry>
   <entry>
      <fullUrl value="urn:uuid:ce28532e-3a72-46ef-856b-f22a930158c9"/>
      <resource>
         <Observation>
            <id value="ce28532e-3a72-46ef-856b-f22a930158c9"/>
            <meta>
               <profile value="http://hl7.org/fhir/StructureDefinition/vitalsigns"/>
            </meta>
            <text>
               <status value="generated"/>
               <div xmlns="http://www.w3.org/1999/xhtml">
                  <table class="hl7__ips">
                     <tr>
                        <th>Vital Sign</th>
                        <th>Date</th>
                        <th>Measurement</th>
                     </tr>
                     <tr>
                        <td>Body mass index (BMI) [Ratio]</td>
                        <td>08-Mar-2025</td>
                        <td>27.5 kg/m2</td>
                     </tr>
                  </table>
               </div>
            </text>
            <status value="final"/>
            <category>
               <coding>
                  <system value="http://terminology.hl7.org/CodeSystem/observation-category"/>
                  <code value="vital-signs"/>
                  <display value="Vital Signs"/>
               </coding>
            </category>
            <code>
               <coding>
                  <system value="http://loinc.org"/>
                  <code value="$39156-5"/>
                  <display value="Body mass index (BMI) [Ratio]"/>
               </coding>
            </code>
            <subject>
               <reference value="urn:uuid:a3f8f421-e9aa-4800-b1bb-7539f7761f94"/>
               <display value="Ondrej Machová"/>
            </subject>
            <effectiveDateTime value="2025-03-08"/>
            <valueQuantity>
               <value value="27.5"/>
               <unit value="kg/m2"/>
               <code value="kg/m2"/>
            </valueQuantity>
         </Observation>
      </resource>
   </entry>
   <entry>
      <fullUrl value="urn:uuid:9ce959ab-6e26-4dee-9f06-5a854f53c5d2"/>
      <resource>
         <Observation>
            <id value="9ce959ab-6e26-4dee-9f06-5a854f53c5d2"/>
            <meta>
               <profile value="http://hl7.org/fhir/StructureDefinition/vitalsigns"/>
            </meta>
            <text>
               <status value="generated"/>
               <div xmlns="http://www.w3.org/1999/xhtml">
                  <table class="hl7__ips">
                     <tr>
                        <th>Vital Sign</th>
                        <th>Date</th>
                        <th>Measurement</th>
                     </tr>
                     <tr>
                        <td>Diastolic Blood Pressure</td>
                        <td>08-Mar-2025</td>
                        <td>73 mm[Hg]</td>
                     </tr>
                  </table>
               </div>
            </text>
            <status value="final"/>
            <category>
               <coding>
                  <system value="http://terminology.hl7.org/CodeSystem/observation-category"/>
                  <code value="vital-signs"/>
                  <display value="Vital Signs"/>
               </coding>
            </category>
            <code>
               <coding>
                  <system value="http://loinc.org"/>
                  <code value="$8462-4"/>
                  <display value="Diastolic Blood Pressure"/>
               </coding>
            </code>
            <subject>
               <reference value="urn:uuid:a3f8f421-e9aa-4800-b1bb-7539f7761f94"/>
               <display value="Ondrej Machová"/>
            </subject>
            <effectiveDateTime value="2025-03-08"/>
            <valueQuantity>
               <value value="73"/>
               <unit value="mm[Hg]"/>
               <code value="mm[Hg]"/>
            </valueQuantity>
         </Observation>
      </resource>
   </entry>
   <entry>
      <fullUrl value="urn:uuid:cf902e70-535c-4664-b11e-7d7df9772ea1"/>
      <resource>
         <Observation>
            <id value="cf902e70-535c-4664-b11e-7d7df9772ea1"/>
            <meta>
               <profile value="http://hl7.org/fhir/StructureDefinition/vitalsigns"/>
            </meta>
            <text>
               <status value="generated"/>
               <div xmlns="http://www.w3.org/1999/xhtml">
                  <table class="hl7__ips">
                     <tr>
                        <th>Vital Sign</th>
                        <th>Date</th>
                        <th>Measurement</th>
                     </tr>
                     <tr>
                        <td>Systolic Blood Pressure</td>
                        <td>08-Mar-2025</td>
                        <td>133 mm[Hg]</td>
                     </tr>
                  </table>
               </div>
            </text>
            <status value="final"/>
            <category>
               <coding>
                  <system value="http://terminology.hl7.org/CodeSystem/observation-category"/>
                  <code value="vital-signs"/>
                  <display value="Vital Signs"/>
               </coding>
            </category>
            <code>
               <coding>
                  <system value="http://loinc.org"/>
                  <code value="$8480-6"/>
                  <display value="Systolic Blood Pressure"/>
               </coding>
            </code>
            <subject>
               <reference value="urn:uuid:a3f8f421-e9aa-4800-b1bb-7539f7761f94"/>
               <display value="Ondrej Machová"/>
            </subject>
            <effectiveDateTime value="2025-03-08"/>
            <valueQuantity>
               <value value="133"/>
               <unit value="mm[Hg]"/>
               <code value="mm[Hg]"/>
            </valueQuantity>
         </Observation>
      </resource>
   </entry>
   <entry>
      <fullUrl value="urn:uuid:d6559d42-563a-4ca4-8099-4fd19c779234"/>
      <resource>
         <Observation>
            <id value="d6559d42-563a-4ca4-8099-4fd19c779234"/>
            <meta>
               <profile value="http://hl7.org/fhir/StructureDefinition/vitalsigns"/>
            </meta>
            <text>
               <status value="generated"/>
               <div xmlns="http://www.w3.org/1999/xhtml">
                  <table class="hl7__ips">
                     <tr>
                        <th>Vital Sign</th>
                        <th>Date</th>
                        <th>Measurement</th>
                     </tr>
                     <tr>
                        <td>Heart rate</td>
                        <td>08-Mar-2025</td>
                        <td>82 /min</td>
                     </tr>
                  </table>
               </div>
            </text>
            <status value="final"/>
            <category>
               <coding>
                  <system value="http://terminology.hl7.org/CodeSystem/observation-category"/>
                  <code value="vital-signs"/>
                  <display value="Vital Signs"/>
               </coding>
            </category>
            <code>
               <coding>
                  <system value="http://loinc.org"/>
                  <code value="$8867-4"/>
                  <display value="Heart rate"/>
               </coding>
            </code>
            <subject>
               <reference value="urn:uuid:a3f8f421-e9aa-4800-b1bb-7539f7761f94"/>
               <display value="Ondrej Machová"/>
            </subject>
            <effectiveDateTime value="2025-03-08"/>
            <valueQuantity>
               <value value="82"/>
               <unit value="/min"/>
               <code value="/min"/>
            </valueQuantity>
         </Observation>
      </resource>
   </entry>
   <entry>
      <fullUrl value="urn:uuid:77d4b8ef-eed4-40f4-8ab1-280b649120d7"/>
      <resource>
         <Observation>
            <id value="77d4b8ef-eed4-40f4-8ab1-280b649120d7"/>
            <meta>
               <profile value="http://hl7.org/fhir/StructureDefinition/vitalsigns"/>
            </meta>
            <text>
               <status value="generated"/>
               <div xmlns="http://www.w3.org/1999/xhtml">
                  <table class="hl7__ips">
                     <tr>
                        <th>Vital Sign</th>
                        <th>Date</th>
                        <th>Measurement</th>
                     </tr>
                     <tr>
                        <td>Respiratory rate</td>
                        <td>08-Mar-2025</td>
                        <td>14 /min</td>
                     </tr>
                  </table>
               </div>
            </text>
            <status value="final"/>
            <category>
               <coding>
                  <system value="http://terminology.hl7.org/CodeSystem/observation-category"/>
                  <code value="vital-signs"/>
                  <display value="Vital Signs"/>
               </coding>
            </category>
            <code>
               <coding>
                  <system value="http://loinc.org"/>
                  <code value="$9279-1"/>
                  <display value="Respiratory rate"/>
               </coding>
            </code>
            <subject>
               <reference value="urn:uuid:a3f8f421-e9aa-4800-b1bb-7539f7761f94"/>
               <display value="Ondrej Machová"/>
            </subject>
            <effectiveDateTime value="2025-03-08"/>
            <valueQuantity>
               <value value="14"/>
               <unit value="/min"/>
               <code value="/min"/>
            </valueQuantity>
         </Observation>
      </resource>
   </entry>
   <entry>
      <fullUrl value="urn:uuid:354fa679-8f81-4465-9a96-7329747f1a4b"/>
      <resource>
         <Observation>
            <id value="354fa679-8f81-4465-9a96-7329747f1a4b"/>
            <meta>
               <profile value="http://hl7.org/fhir/StructureDefinition/vitalsigns"/>
            </meta>
            <text>
               <status value="generated"/>
               <div xmlns="http://www.w3.org/1999/xhtml">
                  <table class="hl7__ips">
                     <tr>
                        <th>Vital Sign</th>
                        <th>Date</th>
                        <th>Measurement</th>
                     </tr>
                     <tr>
                        <td>Body Height</td>
                        <td>22-Feb-2025</td>
                        <td>187.9 cm</td>
                     </tr>
                  </table>
               </div>
            </text>
            <status value="final"/>
            <category>
               <coding>
                  <system value="http://terminology.hl7.org/CodeSystem/observation-category"/>
                  <code value="vital-signs"/>
                  <display value="Vital Signs"/>
               </coding>
            </category>
            <code>
               <coding>
                  <system value="http://loinc.org"/>
                  <code value="$8302-2"/>
                  <display value="Body Height"/>
               </coding>
            </code>
            <subject>
               <reference value="urn:uuid:a3f8f421-e9aa-4800-b1bb-7539f7761f94"/>
               <display value="Ondrej Machová"/>
            </subject>
            <effectiveDateTime value="2025-02-22"/>
            <valueQuantity>
               <value value="187.9"/>
               <unit value="cm"/>
               <code value="cm"/>
            </valueQuantity>
         </Observation>
      </resource>
   </entry>
   <entry>
      <fullUrl value="urn:uuid:02dbc6d3-72da-4caf-9c9d-c8b7a6c9fcf1"/>
      <resource>
         <Observation>
            <id value="02dbc6d3-72da-4caf-9c9d-c8b7a6c9fcf1"/>
            <meta>
               <profile value="http://hl7.org/fhir/StructureDefinition/vitalsigns"/>
            </meta>
            <text>
               <status value="generated"/>
               <div xmlns="http://www.w3.org/1999/xhtml">
                  <table class="hl7__ips">
                     <tr>
                        <th>Vital Sign</th>
                        <th>Date</th>
                        <th>Measurement</th>
                     </tr>
                     <tr>
                        <td>Pain severity - 0-10 verbal numeric rating [Score] - Reported</td>
                        <td>22-Feb-2025</td>
                        <td>2 {score}</td>
                     </tr>
                  </table>
               </div>
            </text>
            <status value="final"/>
            <category>
               <coding>
                  <system value="http://terminology.hl7.org/CodeSystem/observation-category"/>
                  <code value="vital-signs"/>
                  <display value="Vital Signs"/>
               </coding>
            </category>
            <code>
               <coding>
                  <system value="http://loinc.org"/>
                  <code value="$72514-3"/>
                  <display value="Pain severity - 0-10 verbal numeric rating [Score] - Reported"/>
               </coding>
            </code>
            <subject>
               <reference value="urn:uuid:a3f8f421-e9aa-4800-b1bb-7539f7761f94"/>
               <display value="Ondrej Machová"/>
            </subject>
            <effectiveDateTime value="2025-02-22"/>
            <valueQuantity>
               <value value="2"/>
               <unit value="{score}"/>
               <code value="{score}"/>
            </valueQuantity>
         </Observation>
      </resource>
   </entry>
   <entry>
      <fullUrl value="urn:uuid:b936720a-493e-4130-b102-69a69efc3013"/>
      <resource>
         <Observation>
            <id value="b936720a-493e-4130-b102-69a69efc3013"/>
            <meta>
               <profile value="http://hl7.org/fhir/StructureDefinition/vitalsigns"/>
            </meta>
            <text>
               <status value="generated"/>
               <div xmlns="http://www.w3.org/1999/xhtml">
                  <table class="hl7__ips">
                     <tr>
                        <th>Vital Sign</th>
                        <th>Date</th>
                        <th>Measurement</th>
                     </tr>
                     <tr>
                        <td>Body Weight</td>
                        <td>22-Feb-2025</td>
                        <td>97.2 kg</td>
                     </tr>
                  </table>
               </div>
            </text>
            <status value="final"/>
            <category>
               <coding>
                  <system value="http://terminology.hl7.org/CodeSystem/observation-category"/>
                  <code value="vital-signs"/>
                  <display value="Vital Signs"/>
               </coding>
            </category>
            <code>
               <coding>
                  <system value="http://loinc.org"/>
                  <code value="$29463-7"/>
                  <display value="Body Weight"/>
               </coding>
            </code>
            <subject>
               <reference value="urn:uuid:a3f8f421-e9aa-4800-b1bb-7539f7761f94"/>
               <display value="Ondrej Machová"/>
            </subject>
            <effectiveDateTime value="2025-02-22"/>
            <valueQuantity>
               <value value="97.2"/>
               <unit value="kg"/>
               <code value="kg"/>
            </valueQuantity>
         </Observation>
      </resource>
   </entry>
   <entry>
      <fullUrl value="urn:uuid:734bf9d2-3979-472c-a378-2790fbb04705"/>
      <resource>
         <Observation>
            <id value="734bf9d2-3979-472c-a378-2790fbb04705"/>
            <meta>
               <profile value="http://hl7.org/fhir/StructureDefinition/vitalsigns"/>
            </meta>
            <text>
               <status value="generated"/>
               <div xmlns="http://www.w3.org/1999/xhtml">
                  <table class="hl7__ips">
                     <tr>
                        <th>Vital Sign</th>
                        <th>Date</th>
                        <th>Measurement</th>
                     </tr>
                     <tr>
                        <td>Body mass index (BMI) [Ratio]</td>
                        <td>22-Feb-2025</td>
                        <td>27.5 kg/m2</td>
                     </tr>
                  </table>
               </div>
            </text>
            <status value="final"/>
            <category>
               <coding>
                  <system value="http://terminology.hl7.org/CodeSystem/observation-category"/>
                  <code value="vital-signs"/>
                  <display value="Vital Signs"/>
               </coding>
            </category>
            <code>
               <coding>
                  <system value="http://loinc.org"/>
                  <code value="$39156-5"/>
                  <display value="Body mass index (BMI) [Ratio]"/>
               </coding>
            </code>
            <subject>
               <reference value="urn:uuid:a3f8f421-e9aa-4800-b1bb-7539f7761f94"/>
               <display value="Ondrej Machová"/>
            </subject>
            <effectiveDateTime value="2025-02-22"/>
            <valueQuantity>
               <value value="27.5"/>
               <unit value="kg/m2"/>
               <code value="kg/m2"/>
            </valueQuantity>
         </Observation>
      </resource>
   </entry>
   <entry>
      <fullUrl value="urn:uuid:7b853e27-e6c6-42e4-a534-3ec266015df5"/>
      <resource>
         <Observation>
            <id value="7b853e27-e6c6-42e4-a534-3ec266015df5"/>
            <meta>
               <profile value="http://hl7.org/fhir/StructureDefinition/vitalsigns"/>
            </meta>
            <text>
               <status value="generated"/>
               <div xmlns="http://www.w3.org/1999/xhtml">
                  <table class="hl7__ips">
                     <tr>
                        <th>Vital Sign</th>
                        <th>Date</th>
                        <th>Measurement</th>
                     </tr>
                     <tr>
                        <td>Diastolic Blood Pressure</td>
                        <td>22-Feb-2025</td>
                        <td>70 mm[Hg]</td>
                     </tr>
                  </table>
               </div>
            </text>
            <status value="final"/>
            <category>
               <coding>
                  <system value="http://terminology.hl7.org/CodeSystem/observation-category"/>
                  <code value="vital-signs"/>
                  <display value="Vital Signs"/>
               </coding>
            </category>
            <code>
               <coding>
                  <system value="http://loinc.org"/>
                  <code value="$8462-4"/>
                  <display value="Diastolic Blood Pressure"/>
               </coding>
            </code>
            <subject>
               <reference value="urn:uuid:a3f8f421-e9aa-4800-b1bb-7539f7761f94"/>
               <display value="Ondrej Machová"/>
            </subject>
            <effectiveDateTime value="2025-02-22"/>
            <valueQuantity>
               <value value="70"/>
               <unit value="mm[Hg]"/>
               <code value="mm[Hg]"/>
            </valueQuantity>
         </Observation>
      </resource>
   </entry>
   <entry>
      <fullUrl value="urn:uuid:2b4defbe-97fe-41e0-854f-310cbc3f3858"/>
      <resource>
         <Observation>
            <id value="2b4defbe-97fe-41e0-854f-310cbc3f3858"/>
            <meta>
               <profile value="http://hl7.org/fhir/StructureDefinition/vitalsigns"/>
            </meta>
            <text>
               <status value="generated"/>
               <div xmlns="http://www.w3.org/1999/xhtml">
                  <table class="hl7__ips">
                     <tr>
                        <th>Vital Sign</th>
                        <th>Date</th>
                        <th>Measurement</th>
                     </tr>
                     <tr>
                        <td>Systolic Blood Pressure</td>
                        <td>22-Feb-2025</td>
                        <td>136 mm[Hg]</td>
                     </tr>
                  </table>
               </div>
            </text>
            <status value="final"/>
            <category>
               <coding>
                  <system value="http://terminology.hl7.org/CodeSystem/observation-category"/>
                  <code value="vital-signs"/>
                  <display value="Vital Signs"/>
               </coding>
            </category>
            <code>
               <coding>
                  <system value="http://loinc.org"/>
                  <code value="$8480-6"/>
                  <display value="Systolic Blood Pressure"/>
               </coding>
            </code>
            <subject>
               <reference value="urn:uuid:a3f8f421-e9aa-4800-b1bb-7539f7761f94"/>
               <display value="Ondrej Machová"/>
            </subject>
            <effectiveDateTime value="2025-02-22"/>
            <valueQuantity>
               <value value="136"/>
               <unit value="mm[Hg]"/>
               <code value="mm[Hg]"/>
            </valueQuantity>
         </Observation>
      </resource>
   </entry>
   <entry>
      <fullUrl value="urn:uuid:9d73725a-4deb-4dd6-b5ff-82eb823b7d5b"/>
      <resource>
         <Observation>
            <id value="9d73725a-4deb-4dd6-b5ff-82eb823b7d5b"/>
            <meta>
               <profile value="http://hl7.org/fhir/StructureDefinition/vitalsigns"/>
            </meta>
            <text>
               <status value="generated"/>
               <div xmlns="http://www.w3.org/1999/xhtml">
                  <table class="hl7__ips">
                     <tr>
                        <th>Vital Sign</th>
                        <th>Date</th>
                        <th>Measurement</th>
                     </tr>
                     <tr>
                        <td>Heart rate</td>
                        <td>22-Feb-2025</td>
                        <td>96 /min</td>
                     </tr>
                  </table>
               </div>
            </text>
            <status value="final"/>
            <category>
               <coding>
                  <system value="http://terminology.hl7.org/CodeSystem/observation-category"/>
                  <code value="vital-signs"/>
                  <display value="Vital Signs"/>
               </coding>
            </category>
            <code>
               <coding>
                  <system value="http://loinc.org"/>
                  <code value="$8867-4"/>
                  <display value="Heart rate"/>
               </coding>
            </code>
            <subject>
               <reference value="urn:uuid:a3f8f421-e9aa-4800-b1bb-7539f7761f94"/>
               <display value="Ondrej Machová"/>
            </subject>
            <effectiveDateTime value="2025-02-22"/>
            <valueQuantity>
               <value value="96"/>
               <unit value="/min"/>
               <code value="/min"/>
            </valueQuantity>
         </Observation>
      </resource>
   </entry>
   <entry>
      <fullUrl value="urn:uuid:0d90295e-8d51-40a3-832c-8e3cbd000a41"/>
      <resource>
         <Observation>
            <id value="0d90295e-8d51-40a3-832c-8e3cbd000a41"/>
            <meta>
               <profile value="http://hl7.org/fhir/StructureDefinition/vitalsigns"/>
            </meta>
            <text>
               <status value="generated"/>
               <div xmlns="http://www.w3.org/1999/xhtml">
                  <table class="hl7__ips">
                     <tr>
                        <th>Vital Sign</th>
                        <th>Date</th>
                        <th>Measurement</th>
                     </tr>
                     <tr>
                        <td>Respiratory rate</td>
                        <td>22-Feb-2025</td>
                        <td>14 /min</td>
                     </tr>
                  </table>
               </div>
            </text>
            <status value="final"/>
            <category>
               <coding>
                  <system value="http://terminology.hl7.org/CodeSystem/observation-category"/>
                  <code value="vital-signs"/>
                  <display value="Vital Signs"/>
               </coding>
            </category>
            <code>
               <coding>
                  <system value="http://loinc.org"/>
                  <code value="$9279-1"/>
                  <display value="Respiratory rate"/>
               </coding>
            </code>
            <subject>
               <reference value="urn:uuid:a3f8f421-e9aa-4800-b1bb-7539f7761f94"/>
               <display value="Ondrej Machová"/>
            </subject>
            <effectiveDateTime value="2025-02-22"/>
            <valueQuantity>
               <value value="14"/>
               <unit value="/min"/>
               <code value="/min"/>
            </valueQuantity>
         </Observation>
      </resource>
   </entry>
   <entry>
      <fullUrl value="urn:uuid:9e296960-1a6a-4b71-8fc4-ef4b1cb96b47"/>
      <resource>
         <Observation>
            <id value="9e296960-1a6a-4b71-8fc4-ef4b1cb96b47"/>
            <meta>
               <profile value="http://hl7.eu/fhir/laboratory/StructureDefinition/Observation-resultslab-eu-lab"/>
            </meta>
            <text>
               <status value="generated"/>
               <div xmlns="http://www.w3.org/1999/xhtml">
                  <table class="hl7__eu__lab__report">
                     <tr>
                        <th>Test</th>
                        <th>24-Aug-2024</th>
                        <th>Reference Range</th>
                        <th>Unit</th>
                     </tr>
                     <tr>
                        <td>Leukocytes [#/volume] in Blood by Automated count</td>
                        <td>4.4</td>
                        <td>3.5 - 10.5</td>
                        <td/>
                        <td>10*3/uL</td>
                     </tr>
                  </table>
               </div>
            </text>
            <status value="final"/>
            <category>
               <coding>
                  <system value="http://terminology.hl7.org/CodeSystem/observation-category"/>
                  <code value="laboratory"/>
               </coding>
            </category>
            <code>
               <coding>
                  <system value="http://loinc.org"/>
                  <code value="6690-2"/>
                  <display value="Leukocytes [#/volume] in Blood by Automated count"/>
               </coding>
               <text value="Leukocytes [#/volume] in Blood by Automated count"/>
            </code>
            <subject>
               <reference value="urn:uuid:a3f8f421-e9aa-4800-b1bb-7539f7761f94"/>
               <display value="Ondrej Machová"/>
            </subject>
            <effectiveDateTime value="2024-08-24T12:49:06Z"/>
            <performer>
               <display value="The Central European Lab"/>
            </performer>
            <valueQuantity>
               <value value="4.4"/>
               <unit value="10*3/uL"/>
               <system value="http://unitsofmeasure.org"/>
               <code value="10*3/uL"/>
            </valueQuantity>
            <referenceRange>
               <low>
                  <value value="3.5"/>
                  <system value="http://unitsofmeasure.org"/>
                  <code value="10*3/uL"/>
               </low>
            </referenceRange>
            <referenceRange>
               <high>
                  <value value="10.5"/>
                  <system value="http://unitsofmeasure.org"/>
                  <code value="10*3/uL"/>
               </high>
            </referenceRange>
         </Observation>
      </resource>
   </entry>
   <entry>
      <fullUrl value="urn:uuid:9b3f2c46-c709-4e3c-83c8-49512001914f"/>
      <resource>
         <Observation>
            <id value="9b3f2c46-c709-4e3c-83c8-49512001914f"/>
            <meta>
               <profile value="http://hl7.eu/fhir/laboratory/StructureDefinition/Observation-resultslab-eu-lab"/>
            </meta>
            <text>
               <status value="generated"/>
               <div xmlns="http://www.w3.org/1999/xhtml">
                  <table class="hl7__eu__lab__report">
                     <tr>
                        <th>Test</th>
                        <th>24-Aug-2024</th>
                        <th>Reference Range</th>
                        <th>Unit</th>
                     </tr>
                     <tr>
                        <td>Erythrocytes [#/volume] in Blood by Automated count</td>
                        <td>3.9</td>
                        <td>4.5 - 6.2</td>
                        <td>L</td>
                        <td>10*6/uL</td>
                     </tr>
                  </table>
               </div>
            </text>
            <status value="final"/>
            <category>
               <coding>
                  <system value="http://terminology.hl7.org/CodeSystem/observation-category"/>
                  <code value="laboratory"/>
               </coding>
            </category>
            <code>
               <coding>
                  <system value="http://loinc.org"/>
                  <code value="789-8"/>
                  <display value="Erythrocytes [#/volume] in Blood by Automated count"/>
               </coding>
               <text value="Erythrocytes [#/volume] in Blood by Automated count"/>
            </code>
            <subject>
               <reference value="urn:uuid:a3f8f421-e9aa-4800-b1bb-7539f7761f94"/>
               <display value="Ondrej Machová"/>
            </subject>
            <effectiveDateTime value="2024-08-24T12:49:06Z"/>
            <performer>
               <display value="The Central European Lab"/>
            </performer>
            <valueQuantity>
               <value value="3.9"/>
               <unit value="10*6/uL"/>
               <system value="http://unitsofmeasure.org"/>
               <code value="10*6/uL"/>
            </valueQuantity>
            <interpretation>
               <coding>
                  <system value="http://terminology.hl7.org/CodeSystem/v3-ObservationInterpretation"/>
                  <code value="L"/>
                  <display value="Low"/>
               </coding>
            </interpretation>
            <referenceRange>
               <low>
                  <value value="4.5"/>
                  <system value="http://unitsofmeasure.org"/>
                  <code value="10*6/uL"/>
               </low>
            </referenceRange>
            <referenceRange>
               <high>
                  <value value="6.2"/>
                  <system value="http://unitsofmeasure.org"/>
                  <code value="10*6/uL"/>
               </high>
            </referenceRange>
         </Observation>
      </resource>
   </entry>
   <entry>
      <fullUrl value="urn:uuid:9c3643ae-03c3-4cdb-aaad-f7f36e26b97b"/>
      <resource>
         <Observation>
            <id value="9c3643ae-03c3-4cdb-aaad-f7f36e26b97b"/>
            <meta>
               <profile value="http://hl7.eu/fhir/laboratory/StructureDefinition/Observation-resultslab-eu-lab"/>
            </meta>
            <text>
               <status value="generated"/>
               <div xmlns="http://www.w3.org/1999/xhtml">
                  <table class="hl7__eu__lab__report">
                     <tr>
                        <th>Test</th>
                        <th>24-Aug-2024</th>
                        <th>Reference Range</th>
                        <th>Unit</th>
                     </tr>
                     <tr>
                        <td>Hemoglobin [Mass/volume] in Blood</td>
                        <td>13.3</td>
                        <td>14 - 18</td>
                        <td>L</td>
                        <td>g/dL</td>
                     </tr>
                  </table>
               </div>
            </text>
            <status value="final"/>
            <category>
               <coding>
                  <system value="http://terminology.hl7.org/CodeSystem/observation-category"/>
                  <code value="laboratory"/>
               </coding>
            </category>
            <code>
               <coding>
                  <system value="http://loinc.org"/>
                  <code value="718-7"/>
                  <display value="Hemoglobin [Mass/volume] in Blood"/>
               </coding>
               <text value="Hemoglobin [Mass/volume] in Blood"/>
            </code>
            <subject>
               <reference value="urn:uuid:a3f8f421-e9aa-4800-b1bb-7539f7761f94"/>
               <display value="Ondrej Machová"/>
            </subject>
            <effectiveDateTime value="2024-08-24T12:49:06Z"/>
            <performer>
               <display value="The Central European Lab"/>
            </performer>
            <valueQuantity>
               <value value="13.3"/>
               <unit value="g/dL"/>
               <system value="http://unitsofmeasure.org"/>
               <code value="g/dL"/>
            </valueQuantity>
            <interpretation>
               <coding>
                  <system value="http://terminology.hl7.org/CodeSystem/v3-ObservationInterpretation"/>
                  <code value="L"/>
                  <display value="Low"/>
               </coding>
            </interpretation>
            <referenceRange>
               <low>
                  <value value="14"/>
                  <system value="http://unitsofmeasure.org"/>
                  <code value="g/dL"/>
               </low>
            </referenceRange>
            <referenceRange>
               <high>
                  <value value="18"/>
                  <system value="http://unitsofmeasure.org"/>
                  <code value="g/dL"/>
               </high>
            </referenceRange>
         </Observation>
      </resource>
   </entry>
   <entry>
      <fullUrl value="urn:uuid:f30eedaf-4eba-48dc-a8e8-0139d56c456b"/>
      <resource>
         <Observation>
            <id value="f30eedaf-4eba-48dc-a8e8-0139d56c456b"/>
            <meta>
               <profile value="http://hl7.eu/fhir/laboratory/StructureDefinition/Observation-resultslab-eu-lab"/>
            </meta>
            <text>
               <status value="generated"/>
               <div xmlns="http://www.w3.org/1999/xhtml">
                  <table class="hl7__eu__lab__report">
                     <tr>
                        <th>Test</th>
                        <th>24-Aug-2024</th>
                        <th>Reference Range</th>
                        <th>Unit</th>
                     </tr>
                     <tr>
                        <td>Hematocrit [Volume Fraction] of Blood by Automated count</td>
                        <td>48.7</td>
                        <td>42 - 52</td>
                        <td/>
                        <td>%</td>
                     </tr>
                  </table>
               </div>
            </text>
            <status value="final"/>
            <category>
               <coding>
                  <system value="http://terminology.hl7.org/CodeSystem/observation-category"/>
                  <code value="laboratory"/>
               </coding>
            </category>
            <code>
               <coding>
                  <system value="http://loinc.org"/>
                  <code value="4544-3"/>
                  <display value="Hematocrit [Volume Fraction] of Blood by Automated count"/>
               </coding>
               <text value="Hematocrit [Volume Fraction] of Blood by Automated count"/>
            </code>
            <subject>
               <reference value="urn:uuid:a3f8f421-e9aa-4800-b1bb-7539f7761f94"/>
               <display value="Ondrej Machová"/>
            </subject>
            <effectiveDateTime value="2024-08-24T12:49:06Z"/>
            <performer>
               <display value="The Central European Lab"/>
            </performer>
            <valueQuantity>
               <value value="48.7"/>
               <unit value="%"/>
               <system value="http://unitsofmeasure.org"/>
               <code value="%"/>
            </valueQuantity>
            <referenceRange>
               <low>
                  <value value="42"/>
                  <system value="http://unitsofmeasure.org"/>
                  <code value="%"/>
               </low>
            </referenceRange>
            <referenceRange>
               <high>
                  <value value="52"/>
                  <system value="http://unitsofmeasure.org"/>
                  <code value="%"/>
               </high>
            </referenceRange>
         </Observation>
      </resource>
   </entry>
   <entry>
      <fullUrl value="urn:uuid:f18c88d5-e529-4764-b567-316c077e65c2"/>
      <resource>
         <Observation>
            <id value="f18c88d5-e529-4764-b567-316c077e65c2"/>
            <meta>
               <profile value="http://hl7.eu/fhir/laboratory/StructureDefinition/Observation-resultslab-eu-lab"/>
            </meta>
            <text>
               <status value="generated"/>
               <div xmlns="http://www.w3.org/1999/xhtml">
                  <table class="hl7__eu__lab__report">
                     <tr>
                        <th>Test</th>
                        <th>24-Aug-2024</th>
                        <th>Reference Range</th>
                        <th>Unit</th>
                     </tr>
                     <tr>
                        <td>MCV [Entitic volume] by Automated count</td>
                        <td>87.1</td>
                        <td>82 - 98</td>
                        <td/>
                        <td>fL</td>
                     </tr>
                  </table>
               </div>
            </text>
            <status value="final"/>
            <category>
               <coding>
                  <system value="http://terminology.hl7.org/CodeSystem/observation-category"/>
                  <code value="laboratory"/>
               </coding>
            </category>
            <code>
               <coding>
                  <system value="http://loinc.org"/>
                  <code value="787-2"/>
                  <display value="MCV [Entitic volume] by Automated count"/>
               </coding>
               <text value="MCV [Entitic volume] by Automated count"/>
            </code>
            <subject>
               <reference value="urn:uuid:a3f8f421-e9aa-4800-b1bb-7539f7761f94"/>
               <display value="Ondrej Machová"/>
            </subject>
            <effectiveDateTime value="2024-08-24T12:49:06Z"/>
            <performer>
               <display value="The Central European Lab"/>
            </performer>
            <valueQuantity>
               <value value="87.1"/>
               <unit value="fL"/>
               <system value="http://unitsofmeasure.org"/>
               <code value="fL"/>
            </valueQuantity>
            <referenceRange>
               <low>
                  <value value="82"/>
                  <system value="http://unitsofmeasure.org"/>
                  <code value="fL"/>
               </low>
            </referenceRange>
            <referenceRange>
               <high>
                  <value value="98"/>
                  <system value="http://unitsofmeasure.org"/>
                  <code value="fL"/>
               </high>
            </referenceRange>
         </Observation>
      </resource>
   </entry>
   <entry>
      <fullUrl value="urn:uuid:c3aa1a13-62a0-4bfe-8739-646f64817338"/>
      <resource>
         <Observation>
            <id value="c3aa1a13-62a0-4bfe-8739-646f64817338"/>
            <meta>
               <profile value="http://hl7.eu/fhir/laboratory/StructureDefinition/Observation-resultslab-eu-lab"/>
            </meta>
            <text>
               <status value="generated"/>
               <div xmlns="http://www.w3.org/1999/xhtml">
                  <table class="hl7__eu__lab__report">
                     <tr>
                        <th>Test</th>
                        <th>24-Aug-2024</th>
                        <th>Reference Range</th>
                        <th>Unit</th>
                     </tr>
                     <tr>
                        <td>MCH [Entitic mass] by Automated count</td>
                        <td>27.3</td>
                        <td>27 - 33.4</td>
                        <td/>
                        <td>pg</td>
                     </tr>
                  </table>
               </div>
            </text>
            <status value="final"/>
            <category>
               <coding>
                  <system value="http://terminology.hl7.org/CodeSystem/observation-category"/>
                  <code value="laboratory"/>
               </coding>
            </category>
            <code>
               <coding>
                  <system value="http://loinc.org"/>
                  <code value="785-6"/>
                  <display value="MCH [Entitic mass] by Automated count"/>
               </coding>
               <text value="MCH [Entitic mass] by Automated count"/>
            </code>
            <subject>
               <reference value="urn:uuid:a3f8f421-e9aa-4800-b1bb-7539f7761f94"/>
               <display value="Ondrej Machová"/>
            </subject>
            <effectiveDateTime value="2024-08-24T12:49:06Z"/>
            <performer>
               <display value="The Central European Lab"/>
            </performer>
            <valueQuantity>
               <value value="27.3"/>
               <unit value="pg"/>
               <system value="http://unitsofmeasure.org"/>
               <code value="pg"/>
            </valueQuantity>
            <referenceRange>
               <low>
                  <value value="27"/>
                  <system value="http://unitsofmeasure.org"/>
                  <code value="pg"/>
               </low>
            </referenceRange>
            <referenceRange>
               <high>
                  <value value="33.4"/>
                  <system value="http://unitsofmeasure.org"/>
                  <code value="pg"/>
               </high>
            </referenceRange>
         </Observation>
      </resource>
   </entry>
   <entry>
      <fullUrl value="urn:uuid:e2bc8037-1da7-403f-a3c0-c647d89d4b95"/>
      <resource>
         <Observation>
            <id value="e2bc8037-1da7-403f-a3c0-c647d89d4b95"/>
            <meta>
               <profile value="http://hl7.eu/fhir/laboratory/StructureDefinition/Observation-resultslab-eu-lab"/>
            </meta>
            <text>
               <status value="generated"/>
               <div xmlns="http://www.w3.org/1999/xhtml">
                  <table class="hl7__eu__lab__report">
                     <tr>
                        <th>Test</th>
                        <th>24-Aug-2024</th>
                        <th>Reference Range</th>
                        <th>Unit</th>
                     </tr>
                     <tr>
                        <td>MCHC [Mass/volume] by Automated count</td>
                        <td>34.0</td>
                        <td>31 - 37</td>
                        <td/>
                        <td>g/dL</td>
                     </tr>
                  </table>
               </div>
            </text>
            <status value="final"/>
            <category>
               <coding>
                  <system value="http://terminology.hl7.org/CodeSystem/observation-category"/>
                  <code value="laboratory"/>
               </coding>
            </category>
            <code>
               <coding>
                  <system value="http://loinc.org"/>
                  <code value="786-4"/>
                  <display value="MCHC [Mass/volume] by Automated count"/>
               </coding>
               <text value="MCHC [Mass/volume] by Automated count"/>
            </code>
            <subject>
               <reference value="urn:uuid:a3f8f421-e9aa-4800-b1bb-7539f7761f94"/>
               <display value="Ondrej Machová"/>
            </subject>
            <effectiveDateTime value="2024-08-24T12:49:06Z"/>
            <performer>
               <display value="The Central European Lab"/>
            </performer>
            <valueQuantity>
               <value value="34"/>
               <unit value="g/dL"/>
               <system value="http://unitsofmeasure.org"/>
               <code value="g/dL"/>
            </valueQuantity>
            <referenceRange>
               <low>
                  <value value="31"/>
                  <system value="http://unitsofmeasure.org"/>
                  <code value="g/dL"/>
               </low>
            </referenceRange>
            <referenceRange>
               <high>
                  <value value="37"/>
                  <system value="http://unitsofmeasure.org"/>
                  <code value="g/dL"/>
               </high>
            </referenceRange>
         </Observation>
      </resource>
   </entry>
   <entry>
      <fullUrl value="urn:uuid:78581532-7cc4-4726-b651-cc9d0eed2b97"/>
      <resource>
         <Observation>
            <id value="78581532-7cc4-4726-b651-cc9d0eed2b97"/>
            <meta>
               <profile value="http://hl7.eu/fhir/laboratory/StructureDefinition/Observation-resultslab-eu-lab"/>
            </meta>
            <text>
               <status value="generated"/>
               <div xmlns="http://www.w3.org/1999/xhtml">
                  <table class="hl7__eu__lab__report">
                     <tr>
                        <th>Test</th>
                        <th>24-Aug-2024</th>
                        <th>Reference Range</th>
                        <th>Unit</th>
                     </tr>
                     <tr>
                        <td>Erythrocyte distribution width [Entitic volume] by Automated count</td>
                        <td>40.2</td>
                        <td>35 - 55</td>
                        <td/>
                        <td>fL</td>
                     </tr>
                  </table>
               </div>
            </text>
            <status value="final"/>
            <category>
               <coding>
                  <system value="http://terminology.hl7.org/CodeSystem/observation-category"/>
                  <code value="laboratory"/>
               </coding>
            </category>
            <code>
               <coding>
                  <system value="http://loinc.org"/>
                  <code value="21000-5"/>
                  <display value="Erythrocyte distribution width [Entitic volume] by Automated count"/>
               </coding>
               <text value="Erythrocyte distribution width [Entitic volume] by Automated count"/>
            </code>
            <subject>
               <reference value="urn:uuid:a3f8f421-e9aa-4800-b1bb-7539f7761f94"/>
               <display value="Ondrej Machová"/>
            </subject>
            <effectiveDateTime value="2024-08-24T12:49:06Z"/>
            <performer>
               <display value="The Central European Lab"/>
            </performer>
            <valueQuantity>
               <value value="40.2"/>
               <unit value="fL"/>
               <system value="http://unitsofmeasure.org"/>
               <code value="fL"/>
            </valueQuantity>
            <referenceRange>
               <low>
                  <value value="35"/>
                  <system value="http://unitsofmeasure.org"/>
                  <code value="fL"/>
               </low>
            </referenceRange>
            <referenceRange>
               <high>
                  <value value="55"/>
                  <system value="http://unitsofmeasure.org"/>
                  <code value="fL"/>
               </high>
            </referenceRange>
         </Observation>
      </resource>
   </entry>
   <entry>
      <fullUrl value="urn:uuid:fdca4d98-abf1-4d0b-8b87-330e018df492"/>
      <resource>
         <Observation>
            <id value="fdca4d98-abf1-4d0b-8b87-330e018df492"/>
            <meta>
               <profile value="http://hl7.eu/fhir/laboratory/StructureDefinition/Observation-resultslab-eu-lab"/>
            </meta>
            <text>
               <status value="generated"/>
               <div xmlns="http://www.w3.org/1999/xhtml">
                  <table class="hl7__eu__lab__report">
                     <tr>
                        <th>Test</th>
                        <th>24-Aug-2024</th>
                        <th>Reference Range</th>
                        <th>Unit</th>
                     </tr>
                     <tr>
                        <td>Platelets [#/volume] in Blood by Automated count</td>
                        <td>419.9</td>
                        <td>150 - 450</td>
                        <td/>
                        <td>10*3/uL</td>
                     </tr>
                  </table>
               </div>
            </text>
            <status value="final"/>
            <category>
               <coding>
                  <system value="http://terminology.hl7.org/CodeSystem/observation-category"/>
                  <code value="laboratory"/>
               </coding>
            </category>
            <code>
               <coding>
                  <system value="http://loinc.org"/>
                  <code value="777-3"/>
                  <display value="Platelets [#/volume] in Blood by Automated count"/>
               </coding>
               <text value="Platelets [#/volume] in Blood by Automated count"/>
            </code>
            <subject>
               <reference value="urn:uuid:a3f8f421-e9aa-4800-b1bb-7539f7761f94"/>
               <display value="Ondrej Machová"/>
            </subject>
            <effectiveDateTime value="2024-08-24T12:49:06Z"/>
            <performer>
               <display value="The Central European Lab"/>
            </performer>
            <valueQuantity>
               <value value="419.9"/>
               <unit value="10*3/uL"/>
               <system value="http://unitsofmeasure.org"/>
               <code value="10*3/uL"/>
            </valueQuantity>
            <referenceRange>
               <low>
                  <value value="150"/>
                  <system value="http://unitsofmeasure.org"/>
                  <code value="10*3/uL"/>
               </low>
            </referenceRange>
            <referenceRange>
               <high>
                  <value value="450"/>
                  <system value="http://unitsofmeasure.org"/>
                  <code value="10*3/uL"/>
               </high>
            </referenceRange>
         </Observation>
      </resource>
   </entry>
   <entry>
      <fullUrl value="urn:uuid:b433bb2c-e64e-414a-9e2c-ff80d2fff912"/>
      <resource>
         <Observation>
            <id value="b433bb2c-e64e-414a-9e2c-ff80d2fff912"/>
            <meta>
               <profile value="http://hl7.eu/fhir/laboratory/StructureDefinition/Observation-resultslab-eu-lab"/>
            </meta>
            <text>
               <status value="generated"/>
               <div xmlns="http://www.w3.org/1999/xhtml">
                  <table class="hl7__eu__lab__report">
                     <tr>
                        <th>Test</th>
                        <th>24-Aug-2024</th>
                        <th>Reference Range</th>
                        <th>Unit</th>
                     </tr>
                     <tr>
                        <td>Platelet distribution width [Entitic volume] in Blood by Automated count</td>
                        <td>317.9</td>
                        <td>13.4 - 17.4</td>
                        <td>H</td>
                        <td>fL</td>
                     </tr>
                  </table>
               </div>
            </text>
            <status value="final"/>
            <category>
               <coding>
                  <system value="http://terminology.hl7.org/CodeSystem/observation-category"/>
                  <code value="laboratory"/>
               </coding>
            </category>
            <code>
               <coding>
                  <system value="http://loinc.org"/>
                  <code value="32207-3"/>
                  <display value="Platelet distribution width [Entitic volume] in Blood by Automated count"/>
               </coding>
               <text value="Platelet distribution width [Entitic volume] in Blood by Automated count"/>
            </code>
            <subject>
               <reference value="urn:uuid:a3f8f421-e9aa-4800-b1bb-7539f7761f94"/>
               <display value="Ondrej Machová"/>
            </subject>
            <effectiveDateTime value="2024-08-24T12:49:06Z"/>
            <performer>
               <display value="The Central European Lab"/>
            </performer>
            <valueQuantity>
               <value value="317.9"/>
               <unit value="fL"/>
               <system value="http://unitsofmeasure.org"/>
               <code value="fL"/>
            </valueQuantity>
            <interpretation>
               <coding>
                  <system value="http://terminology.hl7.org/CodeSystem/v3-ObservationInterpretation"/>
                  <code value="H"/>
                  <display value="High"/>
               </coding>
            </interpretation>
            <referenceRange>
               <low>
                  <value value="13.4"/>
                  <system value="http://unitsofmeasure.org"/>
                  <code value="fL"/>
               </low>
            </referenceRange>
            <referenceRange>
               <high>
                  <value value="17.4"/>
                  <system value="http://unitsofmeasure.org"/>
                  <code value="fL"/>
               </high>
            </referenceRange>
         </Observation>
      </resource>
   </entry>
   <entry>
      <fullUrl value="urn:uuid:4bea9f6c-3be8-49a0-84f0-af1d641d01fc"/>
      <resource>
         <Observation>
            <id value="4bea9f6c-3be8-49a0-84f0-af1d641d01fc"/>
            <meta>
               <profile value="http://hl7.eu/fhir/laboratory/StructureDefinition/Observation-resultslab-eu-lab"/>
            </meta>
            <text>
               <status value="generated"/>
               <div xmlns="http://www.w3.org/1999/xhtml">
                  <table class="hl7__eu__lab__report">
                     <tr>
                        <th>Test</th>
                        <th>24-Aug-2024</th>
                        <th>Reference Range</th>
                        <th>Unit</th>
                     </tr>
                     <tr>
                        <td>Platelet mean volume [Entitic volume] in Blood by Automated count</td>
                        <td>11.4</td>
                        <td>7.2 - 13.8</td>
                        <td/>
                        <td>fL</td>
                     </tr>
                  </table>
               </div>
            </text>
            <status value="final"/>
            <category>
               <coding>
                  <system value="http://terminology.hl7.org/CodeSystem/observation-category"/>
                  <code value="laboratory"/>
               </coding>
            </category>
            <code>
               <coding>
                  <system value="http://loinc.org"/>
                  <code value="32623-1"/>
                  <display value="Platelet mean volume [Entitic volume] in Blood by Automated count"/>
               </coding>
               <text value="Platelet mean volume [Entitic volume] in Blood by Automated count"/>
            </code>
            <subject>
               <reference value="urn:uuid:a3f8f421-e9aa-4800-b1bb-7539f7761f94"/>
               <display value="Ondrej Machová"/>
            </subject>
            <effectiveDateTime value="2024-08-24T12:49:06Z"/>
            <performer>
               <display value="The Central European Lab"/>
            </performer>
            <valueQuantity>
               <value value="11.4"/>
               <unit value="fL"/>
               <system value="http://unitsofmeasure.org"/>
               <code value="fL"/>
            </valueQuantity>
            <referenceRange>
               <low>
                  <value value="7.2"/>
                  <system value="http://unitsofmeasure.org"/>
                  <code value="fL"/>
               </low>
            </referenceRange>
            <referenceRange>
               <high>
                  <value value="13.8"/>
                  <system value="http://unitsofmeasure.org"/>
                  <code value="fL"/>
               </high>
            </referenceRange>
         </Observation>
      </resource>
   </entry>
   <entry>
      <fullUrl value="urn:uuid:8e39a3ea-ce93-45f8-9502-7fa09fe2240c"/>
      <resource>
         <DeviceUseStatement>
            <id value="8e39a3ea-ce93-45f8-9502-7fa09fe2240c"/>
            <meta>
               <profile value="http://hl7.eu/fhir/eps/StructureDefinition/deviceUseStatement-eu-eps"/>
            </meta>
            <text>
               <status value="generated"/>
               <div xmlns="http://www.w3.org/1999/xhtml">
                  <table class="hl7__ips">
                     <tr>
                        <td>Home nebulizer (physical object)</td>
                        <td>
                           <span class="nb">12-Feb-2025</span>
                        </td>
                     </tr>
                  </table>
               </div>
            </text>
            <status value="active"/>
            <subject>
               <reference value="urn:uuid:a3f8f421-e9aa-4800-b1bb-7539f7761f94"/>
               <display value="Ondrej Machová"/>
            </subject>
            <timingPeriod>
               <start value="2025-02-12"/>
            </timingPeriod>
            <device>
               <reference value="urn:uuid:414c32b7-a4c3-4d3b-9e64-8a4a0b6cfec6"/>
               <display value="Home nebulizer (physical object)"/>
            </device>
         </DeviceUseStatement>
      </resource>
   </entry>
   <entry>
      <fullUrl value="urn:uuid:414c32b7-a4c3-4d3b-9e64-8a4a0b6cfec6"/>
      <resource>
         <Device>
            <id value="414c32b7-a4c3-4d3b-9e64-8a4a0b6cfec6"/>
            <meta>
               <profile value="http://hl7.eu/fhir/eps/StructureDefinition/device-eu-eps"/>
            </meta>
            <udiCarrier id="(01)36551361185434(11)250122(17)500206(10)656479986609(21)2051173036292"/>
            <status value="active"/>
            <type>
               <coding>
                  <system value="http://snomed.info/sct"/>
                  <code value="170615005"/>
                  <display value="Home nebulizer (physical object)"/>
               </coding>
            </type>
            <patient>
               <reference value="urn:uuid:a3f8f421-e9aa-4800-b1bb-7539f7761f94"/>
               <display value="Ondrej Machová"/>
            </patient>
         </Device>
      </resource>
   </entry>
   <entry>
      <fullUrl value="urn:uuid:b6754efc-54b9-4989-9865-9745ab248057"/>
      <resource>
         <Device>
            <id value="b6754efc-54b9-4989-9865-9745ab248057"/>
            <text>
               <status value="generated"/>
               <div xmlns="http://www.w3.org/1999/xhtml">SYNDERAI Synthetic Generator v5.0</div>
            </text>
            <status value="active&#34;"/>
            <distinctIdentifier value="synderai-generator-50"/>
            <manufacturer value="SYNDERAI Project"/>
            <deviceName>
               <name value="SYNDERAI Synthetic Generator"/>
               <type value="manufacturer-name"/>
            </deviceName>
            <version>
               <value value="5.0"/>
            </version>
         </Device>
      </resource>
   </entry>
   <entry>
      <fullUrl value="urn:uuid:71d57143-7c33-47d8-82a2-1af75cedd27b"/>
      <resource>
         <Provenance>
            <id value="71d57143-7c33-47d8-82a2-1af75cedd27b"/>
            <text>
               <status value="generated"/>
               <div xmlns="http://www.w3.org/1999/xhtml">Provenance for SYNDERAI Synthetic Example Data Resource</div>
            </text>
            <target>
               <reference value="Patient/a3f8f421-e9aa-4800-b1bb-7539f7761f94"/>
            </target>
            <target>
               <reference value="Bundle/afc6d4e0-9fe9-495d-b5bb-88ebc9a579e0"/>
            </target>
            <target>
               <reference value="Composition/82dc2661-f15b-49bb-9863-96089f2302ec"/>
            </target>
            <target>
               <reference value="PractitionerRole/c487d159-49f2-4bed-bc00-e7430bd5ad33"/>
            </target>
            <target>
               <reference value="Organization/0514afe5-bd5a-4dad-b12f-cca31082372e"/>
            </target>
            <target>
               <reference value="Practitioner/fa84e429-c8d0-4744-8648-0bf3e5f5dc75"/>
            </target>
            <recorded value="2024-08-24T12:49:06Z"/>
            <policy value="https://synderai.net/synderai-synthetic-data-policy"/>
            <reason>
               <text value="Interoperability Testing and Training (non-clinical use)"/>
            </reason>
            <activity>
               <text value="Synthetic Example Data Generation"/>
            </activity>
            <agent>
               <type>
                  <text value="author"/>
               </type>
               <who>
                  <reference value="Device/b6754efc-54b9-4989-9865-9745ab248057"/>
               </who>
            </agent>
         </Provenance>
      </resource>
   </entry>
</Bundle>