{
  "resourceType": "Bundle",
  "id": "2b753596-f833-423d-a0cb-c704fe9ad419",
  "meta": {
    "profile": [
      "http://hl7.eu/fhir/eps/StructureDefinition/bundle-eu-eps"
    ]
  },
  "identifier": {
    "assigner": {
      "display": "HL7 Europe"
    },
    "system": "urn:oid:2.16.840.1.113883.2.51.999",
    "value": "02453b9e-0cd9-48cd-a559-829ebd124921"
  },
  "entry": [
    {
      "fullUrl": "urn:uuid:7da58d2e-ed2e-4596-96e7-fdca727c7bee",
      "resource": {
        "resourceType": "Composition",
        "id": "7da58d2e-ed2e-4596-96e7-fdca727c7bee",
        "meta": {
          "security": [
            {
              "system": "http://terminology.hl7.org/CodeSystem/v3-ActReason",
              "code": "HTEST"
            },
            {
              "system": "http://terminology.hl7.org/CodeSystem/v3-ActReason",
              "code": "TRAIN"
            }
          ],
          "tag": [
            {
              "system": "https://synderai.net/fhir/CodeSystem/tags",
              "code": "synthetic",
              "display": "SYNDERAI Synthetic data"
            }
          ],
          "profile": [
            "http://hl7.eu/fhir/eps/StructureDefinition/composition-eu-eps"
          ]
        },
        "identifier": {
          "assigner": {
            "display": "HL7 Europe"
          },
          "system": "urn:oid:2.16.840.1.113883.2.51.999",
          "value": "b2b59518-5271-4638-9262-ff6a69dc7ecc"
        },
        "type": {
          "coding": [
            {
              "system": "http://loinc.org",
              "code": "60591-5",
              "display": "Patient summary Document"
            }
          ],
          "text": "Patient summary Document"
        },
        "author": [
          {
            "reference": "urn:uuid:bff23355-7f40-4dd5-8bcd-9d71ccb50188"
          }
        ],
        "section": [
          {
            "text": {
              "status": "generated",
              "div": "<div xmlns=\"http://www.w3.org/1999/xhtml\"><table class=\"hl7__ips\"><tr><th>Condition</th><th>Onset Date</th><th>Status</th></tr><tr><td>Ischemic heart disease</td><td><span class=\"nb\">10-Nov-2013</span></td><td>active</td></tr></table></div>"
            },
            "entry": [
              {
                "reference": "urn:uuid:41cdbb42-8587-468c-9b39-cc588cb22cb3"
              }
            ],
            "code": {
              "coding": [
                {
                  "system": "http://loinc.org",
                  "code": "11450-4",
                  "display": "Problem list - Reported"
                }
              ]
            },
            "title": "Problem list"
          },
          {
            "text": {
              "status": "generated",
              "div": "<div xmlns=\"http://www.w3.org/1999/xhtml\"><table class=\"hl7__ips\"><tr><th>Medication</th><th>Since</th><th>Form</th><th>Dosage</th><th>Reason</th></tr><tr><td>Clopidogrel (as clopidogrel bisulfate) 75 mg oral tablet</td><td><span class=\"nb\">2013-11-16</span></td><td>-</td><td>1 tablet (75 mg) once daily</td><td>-</td></tr><tr><td>Simvastatin 20 mg oral tablet</td><td><span class=\"nb\">2013-11-16</span></td><td>-</td><td>1 tablet (20 mg) by mouth once daily</td><td>-</td></tr><tr><td>Nitroglycerin 400 microgram/actuation sublingual spray</td><td><span class=\"nb\">2013-11-16</span></td><td>-</td><td>400 micrograms (1 spray) sublingually as needed for chest pain, may repeat every 5 minutes as needed, up to 3 sprays in 15 minutes</td><td>-</td></tr><tr><td>Metoprolol tartrate (as metoprolol succinate) 100 mg prolonged-release oral tablet</td><td><span class=\"nb\">2013-11-16</span></td><td>-</td><td>1 tablet (100 mg) once daily</td><td>-</td></tr></table></div>"
            },
            "entry": [
              {
                "reference": "urn:uuid:abb709bd-31c7-48e1-af71-3063620194fc"
              },
              {
                "reference": "urn:uuid:1df88fd1-247e-48f2-adfd-c269faf47647"
              },
              {
                "reference": "urn:uuid:e6810db0-f0f7-4b43-abc1-4de31b1bf688"
              },
              {
                "reference": "urn:uuid:39b93cdb-ef45-4c47-8c9b-9729ba624267"
              }
            ],
            "code": {
              "coding": [
                {
                  "system": "http://loinc.org",
                  "code": "10160-0",
                  "display": "History of Medication use Narrative"
                }
              ]
            },
            "title": "Medication list"
          },
          {
            "text": {
              "status": "generated",
              "div": "<div xmlns=\"http://www.w3.org/1999/xhtml\"><table class=\"hl7__ips\"><tr><th>Vaccine</th><th>Date</th></tr><tr><td>Influenza virus antigen only vaccine product</td><td><span class=\"nb\">11-Jan-2025</span></td></tr><tr><td>SARS-CoV-2 mRNA vaccine</td><td><span class=\"nb\">10-Apr-2021</span></td></tr><tr><td>Clostridium tetani toxoid antigen adsorbed only vaccine product</td><td><span class=\"nb\">02-Dec-2017</span></td></tr></table></div>"
            },
            "entry": [
              {
                "reference": "urn:uuid:cf896eed-2341-481f-94a9-7c935a125ce5"
              },
              {
                "reference": "urn:uuid:96a5090a-d814-41a9-81b9-661cfbd69406"
              },
              {
                "reference": "urn:uuid:e0ebfc7b-62ce-4575-aa63-17d98be0f96b"
              }
            ],
            "code": {
              "coding": [
                {
                  "system": "http://loinc.org",
                  "code": "11369-6",
                  "display": "History of Immunization note"
                }
              ]
            },
            "title": "Immunizations list"
          },
          {
            "text": {
              "status": "generated",
              "div": "<div xmlns=\"http://www.w3.org/1999/xhtml\"><table class=\"hl7__ips\"><tr><th>Allergy/Intolerance</th><th>Onset Date</th><th>Status</th><th>Type</th><th>Reaction</th></tr><tr><td>Vaccine product containing only Clostridium tetani toxoid antigen adsorbed</td><td>?</td><td>active</td><td>?</td><td></td></tr></table></div>"
            },
            "entry": [
              {
                "reference": "urn:uuid:e8720237-06c5-44ce-bee9-c40302fd71b2"
              }
            ],
            "code": {
              "coding": [
                {
                  "system": "http://loinc.org",
                  "code": "48765-2",
                  "display": "Allergies and adverse reactions Document"
                }
              ]
            },
            "title": "Allergies and Intolerances"
          },
          {
            "text": {
              "status": "generated",
              "div": "<div xmlns=\"http://www.w3.org/1999/xhtml\"><table class=\"hl7__ips\"><tr><th>Active Planned Care / Goals</th><th>Start Date</th><th>Reason</th></tr><tr><td>Weight management program</td><td><span class=\"nb\">15-Jul-1951</span></td><td>-</td></tr><tr><th>Immunization Recommendation</th><th>Due Date</th><th>Reason</th></tr><tr><td>Vaccine product containing only Influenza virus antigen (medicinal product)</td><td><span class=\"nb\">01-Oct-2025</span></td><td>Annual seasonal influenza vaccination</td></tr></table></div>"
            },
            "entry": [
              {
                "reference": "urn:uuid:29c129c6-20f1-43b8-b849-22eda362ae2e"
              },
              {
                "reference": "urn:uuid:27cca9b4-a2a0-499f-a415-c1f0d332d991"
              }
            ],
            "code": {
              "coding": [
                {
                  "system": "http://loinc.org",
                  "code": "18776-5",
                  "display": "Plan of care note"
                }
              ]
            },
            "title": "Care Plan"
          },
          {
            "text": {
              "status": "generated",
              "div": "<div xmlns=\"http://www.w3.org/1999/xhtml\"><table class=\"hl7__ips\"><tr><th>Vital Signs</th><th>2025-01-11</th><th>2024-05-07</th></tr><tr><td>Body Height</td><td>172.9 cm</td><td>-</td></tr><tr><td>Pain severity - 0-10 verbal numeric rating [Score] - Reported</td><td>1 {score}</td><td>-</td></tr><tr><td>Body Weight</td><td>98.8 kg</td><td>-</td></tr><tr><td>Body mass index (BMI) [Ratio]</td><td>33.1 kg/m2</td><td>-</td></tr><tr><td>Diastolic Blood Pressure</td><td>59 mm[Hg]</td><td>-</td></tr><tr><td>Systolic Blood Pressure</td><td>84 mm[Hg]</td><td>-</td></tr><tr><td>Heart rate</td><td>91 /min</td><td>-</td></tr><tr><td>Respiratory rate</td><td>14 /min</td><td>-</td></tr><tr><td>Body temperature</td><td>-</td><td>37.2 Cel</td></tr></table></div>"
            },
            "entry": [
              {
                "reference": "urn:uuid:baa0ff04-89f0-45b7-8dd4-5d57d3a1b525"
              },
              {
                "reference": "urn:uuid:3e5ebd82-ffc6-4854-aa59-38430b35028b"
              },
              {
                "reference": "urn:uuid:a30fb9bd-442a-40bf-8cd5-91ce519a663f"
              },
              {
                "reference": "urn:uuid:59a2648c-8419-4884-bb12-3b415a04ff0d"
              },
              {
                "reference": "urn:uuid:e1e16812-8a80-41e4-a5ba-2b9884466eb6"
              },
              {
                "reference": "urn:uuid:649a9a36-2149-49ba-ac54-df9666b0dd7c"
              },
              {
                "reference": "urn:uuid:0d7aaccf-b265-4109-9136-322c382dd774"
              },
              {
                "reference": "urn:uuid:8308c8f3-6bf3-4165-b4a2-fb43340b5adb"
              },
              {
                "reference": "urn:uuid:639c57fa-1fdd-4f38-9621-32b4e0f07768"
              }
            ],
            "code": {
              "coding": [
                {
                  "system": "http://loinc.org",
                  "code": "8716-3",
                  "display": "Vital signs note"
                }
              ]
            },
            "title": "Vital Signs"
          },
          {
            "text": {
              "status": "generated",
              "div": "<div xmlns=\"http://www.w3.org/1999/xhtml\"><table class=\"hl7__ips\"><table class=\"hl7__ips\"><thead><tr><th>Recent Lab Observations</th><th>07-JAN-2024</th><th>Reference&#xA0;Range</th><th>Unit</th></tr></thead><tbody><tr><td>Leukocytes [#/volume] in Blood by Automated count</td><td>3.6</td><td>3.4 - 10.6</td><td>10*3/uL</td></tr><tr><td>Erythrocytes [#/volume] in Blood by Automated count</td><td>4.5</td><td>4.2 - 6.2</td><td>10*6/uL</td></tr><tr><td>Hemoglobin [Mass/volume] in Blood</td><td><strong>13.1 L</strong></td><td>13.8 - 17.5</td><td>g/dL</td></tr><tr><td>Hematocrit [Volume Fraction] of Blood by Automated count</td><td>47.7</td><td>38 - 50</td><td>%</td></tr><tr><td>MCV [Entitic volume] by Automated count</td><td>94.3</td><td>76 - 98</td><td>fL</td></tr><tr><td>MCH [Entitic mass] by Automated count</td><td>27.5</td><td>27 - 34</td><td>pg</td></tr><tr><td>MCHC [Mass/volume] by Automated count</td><td>35.4</td><td>31 - 37</td><td>g/dL</td></tr><tr><td>Erythrocyte distribution width [Entitic volume] by Automated count</td><td>44.5</td><td>36 - 56</td><td>fL</td></tr><tr><td>Platelets [#/volume] in Blood by Automated count</td><td>293.3</td><td>150 - 363</td><td>10*3/uL</td></tr><tr><td>Platelet distribution width [Entitic volume] in Blood by Automated count</td><td><strong>366.9 H</strong></td><td>13.4 - 17.4</td><td>fL</td></tr><tr><td>Platelet mean volume [Entitic volume] in Blood by Automated count</td><td>9.7</td><td>7.2 - 13.5</td><td>fL</td></tr></tbody></table></table></div>"
            },
            "entry": [
              {
                "reference": "urn:uuid:fdd9a7e2-1b50-4e92-a339-2737f95fc676"
              },
              {
                "reference": "urn:uuid:97a9202a-f950-450c-a6ad-b854b564cbf5"
              },
              {
                "reference": "urn:uuid:1b4cc75b-e875-4836-a2e4-113dbe5a2526"
              },
              {
                "reference": "urn:uuid:c70ba671-dc02-4012-8d0d-8d1e462dbe6a"
              },
              {
                "reference": "urn:uuid:76985d94-dead-4135-8422-94a68fff03a0"
              },
              {
                "reference": "urn:uuid:3990efd0-05cf-45c3-a820-4d495dec268a"
              },
              {
                "reference": "urn:uuid:6f65c168-dc80-48ae-97a8-9002d77e92bc"
              },
              {
                "reference": "urn:uuid:f5fa61a1-23a8-46ae-ba39-8a08f60e2967"
              },
              {
                "reference": "urn:uuid:80bc7e94-04a2-4936-8726-b6b01851bc77"
              },
              {
                "reference": "urn:uuid:450de69d-fcf1-4ad4-a11a-92df6f03f852"
              },
              {
                "reference": "urn:uuid:da4f5d93-daaa-4241-b993-5069a69758b0"
              }
            ],
            "code": {
              "coding": [
                {
                  "system": "http://loinc.org",
                  "code": "30954-2",
                  "display": "Relevant diagnostic tests/laboratory data note"
                }
              ]
            },
            "title": "Relevant diagnostic tests/laboratory data"
          }
        ],
        "title": "European Patient Summary",
        "status": "final",
        "subject": {
          "reference": "urn:uuid:96c4723f-1c51-44af-a4c5-76b8e6962d45",
          "display": "Gastone Farnese"
        },
        "custodian": {
          "reference": "urn:uuid:7241233a-36b8-40cc-b1d7-f977bef71a8a"
        },
        "date": "2024-01-07",
        "confidentiality": "N"
      }
    },
    {
      "fullUrl": "urn:uuid:96c4723f-1c51-44af-a4c5-76b8e6962d45",
      "resource": {
        "resourceType": "Patient",
        "id": "96c4723f-1c51-44af-a4c5-76b8e6962d45",
        "meta": {
          "security": [
            {
              "system": "http://terminology.hl7.org/CodeSystem/v3-ActReason",
              "code": "HTEST"
            },
            {
              "system": "http://terminology.hl7.org/CodeSystem/v3-ActReason",
              "code": "TRAIN"
            }
          ],
          "tag": [
            {
              "system": "https://synderai.net/fhir/CodeSystem/tags",
              "code": "synthetic",
              "display": "SYNDERAI Synthetic data"
            }
          ],
          "profile": [
            "http://hl7.eu/fhir/eps/StructureDefinition/patient-eu-eps"
          ]
        },
        "identifier": [
          {
            "type": {
              "coding": [
                {
                  "code": "PT",
                  "system": "http://terminology.hl7.org/CodeSystem/v2-0203"
                }
              ]
            },
            "system": "http://ec.europa.eu/identifier/eci",
            "value": "9783-008691-0"
          },
          {
            "type": {
              "coding": [
                {
                  "code": "MR",
                  "system": "http://terminology.hl7.org/CodeSystem/v2-0203"
                }
              ]
            },
            "system": "http://local.setting.eu/identifier",
            "value": "3a83b0c2-9162-b4ed-57ec-07c0d12b05d8"
          }
        ],
        "name": [
          {
            "family": "Farnese"
          },
          {
            "given": [
              "Gastone"
            ]
          },
          {
            "text": "Gastone Farnese"
          }
        ],
        "address": [
          {
            "line": [
              "Rotonda Verdone, 9 Appartamento 6"
            ],
            "use": "home",
            "type": "physical",
            "postalCode": "35030",
            "city": "Galzignano Terme",
            "country": "Italy"
          }
        ],
        "telecom": [
          {
            "system": "phone",
            "value": "+39 350079040"
          }
        ],
        "extension": [
          {
            "url": "http://hl7.org/fhir/StructureDefinition/patient-nationality",
            "valueCodeableConcept": {
              "coding": [
                {
                  "code": "IT",
                  "system": "http://hl7.org/fhir/ValueSet/country"
                }
              ]
            }
          }
        ],
        "text": {
          "status": "generated",
          "div": "<div xmlns=\"http://www.w3.org/1999/xhtml\"><table class=\"hl7__ips\"><tr><td>Gastone Farnese</td><td>male</td><td>16-Apr-1939</td></tr></table></div>"
        },
        "gender": "male",
        "birthDate": "1939-04-16"
      }
    },
    {
      "fullUrl": "urn:uuid:bff23355-7f40-4dd5-8bcd-9d71ccb50188",
      "resource": {
        "resourceType": "PractitionerRole",
        "id": "bff23355-7f40-4dd5-8bcd-9d71ccb50188",
        "meta": {
          "profile": [
            "http://hl7.eu/fhir/base/StructureDefinition/practitionerRole-eu"
          ]
        },
        "text": {
          "status": "generated",
          "div": "<div xmlns=\"http://www.w3.org/1999/xhtml\"><table class=\"hl7__ips\">Provider Role Id bff23355-7f40-4dd5-8bcd-9d71ccb50188</table></div>"
        },
        "practitioner": {
          "reference": "urn:uuid:658fe808-e041-463e-97f3-ae66ce6bc075"
        },
        "organization": {
          "reference": "urn:uuid:7241233a-36b8-40cc-b1d7-f977bef71a8a"
        }
      }
    },
    {
      "fullUrl": "urn:uuid:658fe808-e041-463e-97f3-ae66ce6bc075",
      "resource": {
        "resourceType": "Practitioner",
        "id": "658fe808-e041-463e-97f3-ae66ce6bc075",
        "meta": {
          "profile": [
            "http://hl7.eu/fhir/base/StructureDefinition/practitioner-eu"
          ]
        },
        "name": [
          {
            "prefix": [
              "Dr."
            ],
            "given": [
              "Hel"
            ],
            "family": "Ping"
          }
        ],
        "text": {
          "status": "generated",
          "div": "<div xmlns=\"http://www.w3.org/1999/xhtml\"><table class=\"hl7__ips\">Dr. Hel Ping</table></div>"
        }
      }
    },
    {
      "fullUrl": "urn:uuid:7241233a-36b8-40cc-b1d7-f977bef71a8a",
      "resource": {
        "resourceType": "Organization",
        "id": "7241233a-36b8-40cc-b1d7-f977bef71a8a",
        "meta": {
          "profile": [
            "http://hl7.eu/fhir/base/StructureDefinition/organization-eu"
          ]
        },
        "identifier": [
          {
            "assigner": {
              "display": "HL7 Europe"
            },
            "system": "urn:oid:2.16.840.1.113883.2.51.999",
            "value": "51b8d7ee-d5ca-4d76-9f06-2a3781bea7b7"
          }
        ],
        "address": [
          {
            "line": [
              "Via Albere nan"
            ],
            "city": "Este",
            "postalCode": "35042",
            "country": "Italy"
          }
        ],
        "text": {
          "status": "generated",
          "div": "<div xmlns=\"http://www.w3.org/1999/xhtml\"><table class=\"hl7__ips\">Ospedali Riuniti Padova Sud &quot;Madre Teresa di Calcutta&quot;</table></div>"
        },
        "name": "Ospedali Riuniti Padova Sud &quot;Madre Teresa di Calcutta&quot;"
      }
    },
    {
      "fullUrl": "urn:uuid:41cdbb42-8587-468c-9b39-cc588cb22cb3",
      "resource": {
        "resourceType": "Condition",
        "id": "41cdbb42-8587-468c-9b39-cc588cb22cb3",
        "meta": {
          "profile": [
            "http://hl7.org/fhir/uv/ips/StructureDefinition/Condition-uv-ips"
          ]
        },
        "category": [
          {
            "coding": [
              {
                "code": "problem-list-item",
                "system": "http://terminology.hl7.org/CodeSystem/condition-category",
                "display": "Problem List Item"
              }
            ]
          }
        ],
        "code": {
          "coding": [
            {
              "code": "414545008",
              "system": "http://snomed.info/sct",
              "display": "Ischemic heart disease (disorder)"
            }
          ],
          "text": "Ischemic heart disease"
        },
        "text": {
          "status": "generated",
          "div": "<div xmlns=\"http://www.w3.org/1999/xhtml\"><table class=\"hl7__ips\"><tr><td>Ischemic heart disease</td><td><span class=\"nb\">10-Nov-2013</span></td><td>active</td></tr></table></div>"
        },
        "onsetDateTime": "2013-11-10",
        "subject": {
          "reference": "urn:uuid:",
          "display": "Gastone Farnese"
        },
        "asserter": {
          "reference": "urn:uuid:",
          "display": "Ospedali Riuniti Padova Sud &quot;Madre Teresa di Calcutta&quot;"
        }
      }
    },
    {
      "fullUrl": "urn:uuid:a9ad3acb-075c-4ef0-95cc-d0ea78814986",
      "resource": {
        "resourceType": "Condition",
        "id": "a9ad3acb-075c-4ef0-95cc-d0ea78814986",
        "meta": {
          "profile": [
            "http://hl7.org/fhir/uv/ips/StructureDefinition/Condition-uv-ips"
          ]
        },
        "category": [
          {
            "coding": [
              {
                "code": "problem-list-item",
                "system": "http://terminology.hl7.org/CodeSystem/condition-category",
                "display": "Problem List Item"
              }
            ]
          }
        ],
        "code": {
          "coding": [
            {
              "code": "195662009",
              "system": "http://snomed.info/sct",
              "display": "Acute viral pharyngitis (disorder)"
            }
          ],
          "text": "Acute viral pharyngitis"
        },
        "text": {
          "status": "generated",
          "div": "<div xmlns=\"http://www.w3.org/1999/xhtml\"><table class=\"hl7__ips\"><tr><td><span class=\"grayedout\">Acute viral pharyngitis</span></td><td><span class=\"nb\">07-May-2024 - 16-May-2024</span></td><td><span class=\"grayedout\">inactive</span></td></tr></table></div>"
        },
        "onsetDateTime": "2024-05-07",
        "abatementDateTime": "2024-05-16",
        "subject": {
          "reference": "urn:uuid:",
          "display": "Gastone Farnese"
        },
        "asserter": {
          "reference": "urn:uuid:",
          "display": "Ospedali Riuniti Padova Sud &quot;Madre Teresa di Calcutta&quot;"
        }
      }
    },
    {
      "fullUrl": "urn:uuid:4c8387fa-2800-4de1-b7cb-068ab26b0f4e",
      "resource": {
        "resourceType": "Condition",
        "id": "4c8387fa-2800-4de1-b7cb-068ab26b0f4e",
        "meta": {
          "profile": [
            "http://hl7.org/fhir/uv/ips/StructureDefinition/Condition-uv-ips"
          ]
        },
        "category": [
          {
            "coding": [
              {
                "code": "problem-list-item",
                "system": "http://terminology.hl7.org/CodeSystem/condition-category",
                "display": "Problem List Item"
              }
            ]
          }
        ],
        "code": {
          "coding": [
            {
              "code": "10509002",
              "system": "http://snomed.info/sct",
              "display": "Acute bronchitis (disorder)"
            }
          ],
          "text": "Acute bronchitis"
        },
        "text": {
          "status": "generated",
          "div": "<div xmlns=\"http://www.w3.org/1999/xhtml\"><table class=\"hl7__ips\"><tr><td><span class=\"grayedout\">Acute bronchitis</span></td><td><span class=\"nb\">20-Oct-2019 - 09-Nov-2019</span></td><td><span class=\"grayedout\">inactive</span></td></tr></table></div>"
        },
        "onsetDateTime": "2019-10-20",
        "abatementDateTime": "2019-11-09",
        "subject": {
          "reference": "urn:uuid:",
          "display": "Gastone Farnese"
        },
        "asserter": {
          "reference": "urn:uuid:",
          "display": "Ospedali Riuniti Padova Sud &quot;Madre Teresa di Calcutta&quot;"
        }
      }
    },
    {
      "fullUrl": "urn:uuid:a54018f8-95e1-442a-8389-0a571299dfc9",
      "resource": {
        "resourceType": "Condition",
        "id": "a54018f8-95e1-442a-8389-0a571299dfc9",
        "meta": {
          "profile": [
            "http://hl7.org/fhir/uv/ips/StructureDefinition/Condition-uv-ips"
          ]
        },
        "category": [
          {
            "coding": [
              {
                "code": "problem-list-item",
                "system": "http://terminology.hl7.org/CodeSystem/condition-category",
                "display": "Problem List Item"
              }
            ]
          }
        ],
        "code": {
          "coding": [
            {
              "code": "10509002",
              "system": "http://snomed.info/sct",
              "display": "Acute bronchitis (disorder)"
            }
          ],
          "text": "Acute bronchitis"
        },
        "text": {
          "status": "generated",
          "div": "<div xmlns=\"http://www.w3.org/1999/xhtml\"><table class=\"hl7__ips\"><tr><td><span class=\"grayedout\">Acute bronchitis</span></td><td><span class=\"nb\">29-Apr-2018 - 14-May-2018</span></td><td><span class=\"grayedout\">inactive</span></td></tr></table></div>"
        },
        "onsetDateTime": "2018-04-29",
        "abatementDateTime": "2018-05-14",
        "subject": {
          "reference": "urn:uuid:",
          "display": "Gastone Farnese"
        },
        "asserter": {
          "reference": "urn:uuid:",
          "display": "Ospedali Riuniti Padova Sud &quot;Madre Teresa di Calcutta&quot;"
        }
      }
    },
    {
      "fullUrl": "urn:uuid:ef622fad-dd3f-4b0c-8bc5-14ba3fe93e7d",
      "resource": {
        "resourceType": "Condition",
        "id": "ef622fad-dd3f-4b0c-8bc5-14ba3fe93e7d",
        "meta": {
          "profile": [
            "http://hl7.org/fhir/uv/ips/StructureDefinition/Condition-uv-ips"
          ]
        },
        "category": [
          {
            "coding": [
              {
                "code": "problem-list-item",
                "system": "http://terminology.hl7.org/CodeSystem/condition-category",
                "display": "Problem List Item"
              }
            ]
          }
        ],
        "code": {
          "coding": [
            {
              "code": "195662009",
              "system": "http://snomed.info/sct",
              "display": "Acute viral pharyngitis (disorder)"
            }
          ],
          "text": "Acute viral pharyngitis"
        },
        "text": {
          "status": "generated",
          "div": "<div xmlns=\"http://www.w3.org/1999/xhtml\"><table class=\"hl7__ips\"><tr><td><span class=\"grayedout\">Acute viral pharyngitis</span></td><td><span class=\"nb\">07-Jul-2016 - 14-Jul-2016</span></td><td><span class=\"grayedout\">inactive</span></td></tr></table></div>"
        },
        "onsetDateTime": "2016-07-07",
        "abatementDateTime": "2016-07-14",
        "subject": {
          "reference": "urn:uuid:",
          "display": "Gastone Farnese"
        },
        "asserter": {
          "reference": "urn:uuid:",
          "display": "Ospedali Riuniti Padova Sud &quot;Madre Teresa di Calcutta&quot;"
        }
      }
    },
    {
      "fullUrl": "urn:uuid:cfd3ee26-5b67-4ba2-b832-7bdbd33af474",
      "resource": {
        "resourceType": "Medication",
        "id": "cfd3ee26-5b67-4ba2-b832-7bdbd33af474",
        "meta": {
          "profile": [
            "http://hl7.eu/fhir/eps/StructureDefinition/Medication-eu-eps"
          ]
        },
        "code": {
          "coding": [
            {
              "code": "783586007",
              "system": "http://snomed.info/sct",
              "display": "Clopidogrel (as clopidogrel bisulfate) 75 mg oral tablet"
            }
          ],
          "text": "Clopidogrel (as clopidogrel bisulfate) 75 mg oral tablet"
        },
        "text": {
          "status": "generated",
          "div": "<div xmlns=\"http://www.w3.org/1999/xhtml\">Clopidogrel (as clopidogrel bisulfate) 75 mg oral tablet</div>"
        }
      }
    },
    {
      "fullUrl": "urn:uuid:abb709bd-31c7-48e1-af71-3063620194fc",
      "resource": {
        "resourceType": "MedicationStatement",
        "id": "abb709bd-31c7-48e1-af71-3063620194fc",
        "meta": {
          "profile": [
            "http://hl7.eu/fhir/eps/StructureDefinition/MedicationStatement-eu-eps"
          ]
        },
        "effectivePeriod": {
          "start": "2013-11-16"
        },
        "dosage": [
          {
            "doseAndRate": [
              {
                "doseQuantity": {
                  "value": 1,
                  "unit": "{tbl} (75 mg)",
                  "system": "$ucum",
                  "code": "{tbl}"
                }
              }
            ],
            "timing": {
              "repeat": {
                "frequency": 1,
                "period": 1,
                "periodUnit": "d"
              }
            },
            "text": "1 tablet (75 mg) once daily",
            "asNeededBoolean": false
          }
        ],
        "text": {
          "status": "generated",
          "div": "<div xmlns=\"http://www.w3.org/1999/xhtml\"><table class=\"hl7__ips first25\"><tr><th>Medication</th><th>Since</th><th>Form</th><th>Dosage</th><th>Reason</th></tr><tr><td>Clopidogrel (as clopidogrel bisulfate) 75 mg oral tablet</td><td><span class=\"nb\">2013-11-16</span></td><td>-</td><td>1 tablet (75 mg) once daily</td><td>-</td></tr></table></div>"
        },
        "status": "active",
        "medicationReference": {
          "reference": "urn:uuid:cfd3ee26-5b67-4ba2-b832-7bdbd33af474",
          "display": "Clopidogrel (as clopidogrel bisulfate) 75 mg oral tablet"
        },
        "subject": {
          "reference": "urn:uuid:96c4723f-1c51-44af-a4c5-76b8e6962d45",
          "display": "Gastone Farnese"
        }
      }
    },
    {
      "fullUrl": "urn:uuid:6e581b5b-914c-48b4-a8f9-d47d04f5c06f",
      "resource": {
        "resourceType": "Medication",
        "id": "6e581b5b-914c-48b4-a8f9-d47d04f5c06f",
        "meta": {
          "profile": [
            "http://hl7.eu/fhir/eps/StructureDefinition/Medication-eu-eps"
          ]
        },
        "code": {
          "coding": [
            {
              "code": "319997009",
              "system": "http://snomed.info/sct",
              "display": "Simvastatin 20 mg oral tablet"
            }
          ],
          "text": "Simvastatin 20 mg oral tablet"
        },
        "text": {
          "status": "generated",
          "div": "<div xmlns=\"http://www.w3.org/1999/xhtml\">Simvastatin 20 mg oral tablet</div>"
        }
      }
    },
    {
      "fullUrl": "urn:uuid:1df88fd1-247e-48f2-adfd-c269faf47647",
      "resource": {
        "resourceType": "MedicationStatement",
        "id": "1df88fd1-247e-48f2-adfd-c269faf47647",
        "meta": {
          "profile": [
            "http://hl7.eu/fhir/eps/StructureDefinition/MedicationStatement-eu-eps"
          ]
        },
        "effectivePeriod": {
          "start": "2013-11-16"
        },
        "dosage": [
          {
            "doseAndRate": [
              {
                "doseQuantity": {
                  "value": 1,
                  "unit": "{tbl} (20 mg)",
                  "system": "$ucum",
                  "code": "{tbl}"
                }
              }
            ],
            "timing": {
              "repeat": {
                "frequency": 1,
                "period": 1,
                "periodUnit": "d"
              }
            },
            "text": "1 tablet (20 mg) by mouth once daily",
            "asNeededBoolean": false
          }
        ],
        "text": {
          "status": "generated",
          "div": "<div xmlns=\"http://www.w3.org/1999/xhtml\"><table class=\"hl7__ips first25\"><tr><th>Medication</th><th>Since</th><th>Form</th><th>Dosage</th><th>Reason</th></tr><tr><td>Simvastatin 20 mg oral tablet</td><td><span class=\"nb\">2013-11-16</span></td><td>-</td><td>1 tablet (20 mg) by mouth once daily</td><td>-</td></tr></table></div>"
        },
        "status": "active",
        "medicationReference": {
          "reference": "urn:uuid:6e581b5b-914c-48b4-a8f9-d47d04f5c06f",
          "display": "Simvastatin 20 mg oral tablet"
        },
        "subject": {
          "reference": "urn:uuid:96c4723f-1c51-44af-a4c5-76b8e6962d45",
          "display": "Gastone Farnese"
        }
      }
    },
    {
      "fullUrl": "urn:uuid:af1df292-5cda-4b8a-b4f6-c2234be70132",
      "resource": {
        "resourceType": "Medication",
        "id": "af1df292-5cda-4b8a-b4f6-c2234be70132",
        "meta": {
          "profile": [
            "http://hl7.eu/fhir/eps/StructureDefinition/Medication-eu-eps"
          ]
        },
        "code": {
          "coding": [
            {
              "code": "425176000",
              "system": "http://snomed.info/sct",
              "display": "Nitroglycerin 400 microgram/actuation sublingual spray"
            }
          ],
          "text": "Nitroglycerin 400 microgram/actuation sublingual spray"
        },
        "text": {
          "status": "generated",
          "div": "<div xmlns=\"http://www.w3.org/1999/xhtml\">Nitroglycerin 400 microgram/actuation sublingual spray</div>"
        }
      }
    },
    {
      "fullUrl": "urn:uuid:e6810db0-f0f7-4b43-abc1-4de31b1bf688",
      "resource": {
        "resourceType": "MedicationStatement",
        "id": "e6810db0-f0f7-4b43-abc1-4de31b1bf688",
        "meta": {
          "profile": [
            "http://hl7.eu/fhir/eps/StructureDefinition/MedicationStatement-eu-eps"
          ]
        },
        "effectivePeriod": {
          "start": "2013-11-16"
        },
        "dosage": [
          {
            "doseAndRate": [
              {
                "doseQuantity": {
                  "value": 400,
                  "unit": "mcg",
                  "system": "$ucum",
                  "code": "mcg"
                }
              }
            ],
            "timing": {
              "repeat": {
                "frequency": 1,
                "period": 5,
                "periodUnit": "min"
              }
            },
            "text": "400 micrograms (1 spray) sublingually as needed for chest pain, may repeat every 5 minutes as needed, up to 3 sprays in 15 minutes",
            "asNeededBoolean": true
          }
        ],
        "text": {
          "status": "generated",
          "div": "<div xmlns=\"http://www.w3.org/1999/xhtml\"><table class=\"hl7__ips first25\"><tr><th>Medication</th><th>Since</th><th>Form</th><th>Dosage</th><th>Reason</th></tr><tr><td>Nitroglycerin 400 microgram/actuation sublingual spray</td><td><span class=\"nb\">2013-11-16</span></td><td>-</td><td>400 micrograms (1 spray) sublingually as needed for chest pain, may repeat every 5 minutes as needed, up to 3 sprays in 15 minutes</td><td>-</td></tr></table></div>"
        },
        "status": "active",
        "medicationReference": {
          "reference": "urn:uuid:af1df292-5cda-4b8a-b4f6-c2234be70132",
          "display": "Nitroglycerin 400 microgram/actuation sublingual spray"
        },
        "subject": {
          "reference": "urn:uuid:96c4723f-1c51-44af-a4c5-76b8e6962d45",
          "display": "Gastone Farnese"
        }
      }
    },
    {
      "fullUrl": "urn:uuid:29349b59-67e2-4bcb-8d42-2c11c201b635",
      "resource": {
        "resourceType": "Medication",
        "id": "29349b59-67e2-4bcb-8d42-2c11c201b635",
        "meta": {
          "profile": [
            "http://hl7.eu/fhir/eps/StructureDefinition/Medication-eu-eps"
          ]
        },
        "code": {
          "coding": [
            {
              "code": "879980009",
              "system": "http://snomed.info/sct",
              "display": "Metoprolol tartrate (as metoprolol succinate) 100 mg prolonged-release oral tablet"
            }
          ],
          "text": "Metoprolol tartrate (as metoprolol succinate) 100 mg prolonged-release oral tablet"
        },
        "text": {
          "status": "generated",
          "div": "<div xmlns=\"http://www.w3.org/1999/xhtml\">Metoprolol tartrate (as metoprolol succinate) 100 mg prolonged-release oral tablet</div>"
        }
      }
    },
    {
      "fullUrl": "urn:uuid:39b93cdb-ef45-4c47-8c9b-9729ba624267",
      "resource": {
        "resourceType": "MedicationStatement",
        "id": "39b93cdb-ef45-4c47-8c9b-9729ba624267",
        "meta": {
          "profile": [
            "http://hl7.eu/fhir/eps/StructureDefinition/MedicationStatement-eu-eps"
          ]
        },
        "effectivePeriod": {
          "start": "2013-11-16"
        },
        "dosage": [
          {
            "doseAndRate": [
              {
                "doseQuantity": {
                  "value": 1,
                  "unit": "{tbl} (100 mg)",
                  "system": "$ucum",
                  "code": "{tbl}"
                }
              }
            ],
            "timing": {
              "repeat": {
                "frequency": 1,
                "period": 1,
                "periodUnit": "d"
              }
            },
            "text": "1 tablet (100 mg) once daily",
            "asNeededBoolean": false
          }
        ],
        "text": {
          "status": "generated",
          "div": "<div xmlns=\"http://www.w3.org/1999/xhtml\"><table class=\"hl7__ips first25\"><tr><th>Medication</th><th>Since</th><th>Form</th><th>Dosage</th><th>Reason</th></tr><tr><td>Metoprolol tartrate (as metoprolol succinate) 100 mg prolonged-release oral tablet</td><td><span class=\"nb\">2013-11-16</span></td><td>-</td><td>1 tablet (100 mg) once daily</td><td>-</td></tr></table></div>"
        },
        "status": "active",
        "medicationReference": {
          "reference": "urn:uuid:29349b59-67e2-4bcb-8d42-2c11c201b635",
          "display": "Metoprolol tartrate (as metoprolol succinate) 100 mg prolonged-release oral tablet"
        },
        "subject": {
          "reference": "urn:uuid:96c4723f-1c51-44af-a4c5-76b8e6962d45",
          "display": "Gastone Farnese"
        }
      }
    },
    {
      "fullUrl": "urn:uuid:cf896eed-2341-481f-94a9-7c935a125ce5",
      "resource": {
        "resourceType": "Immunization",
        "id": "cf896eed-2341-481f-94a9-7c935a125ce5",
        "meta": {
          "profile": [
            "http://hl7.org/fhir/uv/ips/StructureDefinition/Immunization-uv-ips"
          ]
        },
        "vaccineCode": {
          "coding": [
            {
              "code": "1181000221105",
              "system": "http://snomed.info/sct",
              "display": "Vaccine product containing Influenza virus antigen"
            },
            {
              "code": "J07BB02",
              "system": "http://www.whocc.no/atc",
              "display": "Influenza, inactivated, split virus"
            }
          ],
          "text": "Influenza virus antigen only vaccine product"
        },
        "site": {
          "coding": [
            {
              "code": "244979005",
              "system": "http://snomed.info/sct",
              "display": "Entire muscle of upper arm"
            }
          ],
          "text": "Entire muscle of upper arm"
        },
        "route": {
          "coding": [
            {
              "code": "78421000",
              "system": "http://snomed.info/sct",
              "display": "Intramuscular route"
            }
          ],
          "text": "Intramuscular route"
        },
        "text": {
          "status": "generated",
          "div": "<div xmlns=\"http://www.w3.org/1999/xhtml\"><table class=\"hl7__ips\"><tr><td>Influenza virus antigen only vaccine product</td><td><span class=\"nb\">11-Jan-2025</span></td></tr></table></div>"
        },
        "status": "completed",
        "patient": {
          "reference": "urn:uuid:96c4723f-1c51-44af-a4c5-76b8e6962d45",
          "display": "Gastone Farnese"
        },
        "occurrenceDateTime": "2025-01-11",
        "lotNumber": "OF-CVuGp4X",
        "expirationDate": "2025-11-29"
      }
    },
    {
      "fullUrl": "urn:uuid:96a5090a-d814-41a9-81b9-661cfbd69406",
      "resource": {
        "resourceType": "Immunization",
        "id": "96a5090a-d814-41a9-81b9-661cfbd69406",
        "meta": {
          "profile": [
            "http://hl7.org/fhir/uv/ips/StructureDefinition/Immunization-uv-ips"
          ]
        },
        "vaccineCode": {
          "coding": [
            {
              "code": "1119349007",
              "system": "http://snomed.info/sct",
              "display": "Vaccine product containing SARS-CoV-2 mRNA"
            },
            {
              "code": "J07BX03",
              "system": "http://www.whocc.no/atc",
              "display": "COVID-19 mRNA vaccines"
            }
          ],
          "text": "SARS-CoV-2 mRNA vaccine"
        },
        "site": {
          "coding": [
            {
              "code": "244979005",
              "system": "http://snomed.info/sct",
              "display": "Entire muscle of upper arm"
            }
          ],
          "text": "Entire muscle of upper arm"
        },
        "route": {
          "coding": [
            {
              "code": "78421000",
              "system": "http://snomed.info/sct",
              "display": "Intramuscular route"
            }
          ],
          "text": "Intramuscular route"
        },
        "text": {
          "status": "generated",
          "div": "<div xmlns=\"http://www.w3.org/1999/xhtml\"><table class=\"hl7__ips\"><tr><td>SARS-CoV-2 mRNA vaccine</td><td><span class=\"nb\">10-Apr-2021</span></td></tr></table></div>"
        },
        "status": "completed",
        "patient": {
          "reference": "urn:uuid:96c4723f-1c51-44af-a4c5-76b8e6962d45",
          "display": "Gastone Farnese"
        },
        "occurrenceDateTime": "2021-04-10",
        "lotNumber": "EZ-kjrnd0Ma3",
        "expirationDate": "2022-01-03"
      }
    },
    {
      "fullUrl": "urn:uuid:e0ebfc7b-62ce-4575-aa63-17d98be0f96b",
      "resource": {
        "resourceType": "Immunization",
        "id": "e0ebfc7b-62ce-4575-aa63-17d98be0f96b",
        "meta": {
          "profile": [
            "http://hl7.org/fhir/uv/ips/StructureDefinition/Immunization-uv-ips"
          ]
        },
        "vaccineCode": {
          "coding": [
            {
              "code": "777725002",
              "system": "http://snomed.info/sct",
              "display": "Vaccine product containing only Clostridium tetani toxoid antigen adsorbed"
            },
            {
              "code": "J07AM51",
              "system": "http://www.whocc.no/atc",
              "display": "Diphtheria-tetanus vaccines, adult type"
            }
          ],
          "text": "Clostridium tetani toxoid antigen adsorbed only vaccine product"
        },
        "site": {
          "coding": [
            {
              "code": "244979005",
              "system": "http://snomed.info/sct",
              "display": "Entire muscle of upper arm"
            }
          ],
          "text": "Entire muscle of upper arm"
        },
        "route": {
          "coding": [
            {
              "code": "78421000",
              "system": "http://snomed.info/sct",
              "display": "Intramuscular route"
            }
          ],
          "text": "Intramuscular route"
        },
        "text": {
          "status": "generated",
          "div": "<div xmlns=\"http://www.w3.org/1999/xhtml\"><table class=\"hl7__ips\"><tr><td>Clostridium tetani toxoid antigen adsorbed only vaccine product</td><td><span class=\"nb\">02-Dec-2017</span></td></tr></table></div>"
        },
        "status": "completed",
        "patient": {
          "reference": "urn:uuid:96c4723f-1c51-44af-a4c5-76b8e6962d45",
          "display": "Gastone Farnese"
        },
        "occurrenceDateTime": "2017-12-02",
        "lotNumber": "YN-WdDJSIWPJ",
        "expirationDate": "2018-04-28"
      }
    },
    {
      "fullUrl": "urn:uuid:e8720237-06c5-44ce-bee9-c40302fd71b2",
      "resource": {
        "resourceType": "AllergyIntolerance",
        "id": "e8720237-06c5-44ce-bee9-c40302fd71b2",
        "meta": {
          "profile": [
            "http://hl7.eu/fhir/eps/StructureDefinition/allergyIntolerance-eu-eps"
          ]
        },
        "code": {
          "coding": [
            {
              "code": "777725002",
              "system": "http://snomed.info/sct",
              "display": "Vaccine product containing only Clostridium tetani toxoid antigen adsorbed"
            }
          ],
          "text": "Vaccine product containing only Clostridium tetani toxoid antigen adsorbed"
        },
        "clinicalStatus": {
          "coding": [
            {
              "code": "active",
              "system": "http://terminology.hl7.org/CodeSystem/allergyintolerance-clinical"
            }
          ]
        },
        "text": {
          "status": "generated",
          "div": "<div xmlns=\"http://www.w3.org/1999/xhtml\"><table class=\"hl7__ips\"><tr><th>Allergy/Intolerance</th><th>Onset Date</th><th>Status</th><th>Type</th><th>Reaction</th></tr><tr><td>Vaccine product containing only Clostridium tetani toxoid antigen adsorbed</td><td>?</td><td>active</td><td>?</td><td></td></tr></table></div>"
        },
        "verificationStatus": {
          "coding": [
            {
              "code": "confirmed",
              "system": "http://terminology.hl7.org/CodeSystem/allergyintolerance-verification"
            }
          ]
        },
        "patient": {
          "reference": "urn:uuid:96c4723f-1c51-44af-a4c5-76b8e6962d45",
          "display": "Gastone Farnese"
        },
        "_onsetDateTime": {
          "extension": [
            {
              "url": "http://hl7.org/fhir/StructureDefinition/data-absent-reason",
              "valueCode": "unknown"
            }
          ]
        }
      }
    },
    {
      "fullUrl": "urn:uuid:29c129c6-20f1-43b8-b849-22eda362ae2e",
      "resource": {
        "resourceType": "CarePlan",
        "id": "29c129c6-20f1-43b8-b849-22eda362ae2e",
        "category": [
          {
            "coding": [
              {
                "code": "assess-plan",
                "system": "http://terminology.hl7.org/CodeSystem/care-plan-category",
                "display": "Assessment and Plan"
              }
            ]
          }
        ],
        "activity": [
          {
            "detail": {
              "code": {
                "coding": [
                  {
                    "code": "718361005",
                    "system": "http://snomed.info/sct",
                    "display": "Weight management program (regime/therapy)"
                  }
                ]
              },
              "status": "unknown",
              "description": "Weight management program",
              "kind": "Appointment"
            }
          }
        ],
        "period": {
          "start": "1951-07-15"
        },
        "text": {
          "status": "generated",
          "div": "<div xmlns=\"http://www.w3.org/1999/xhtml\"><table class=\"hl7__ips first25\"><tr><th>Active Planned Care / Goals</th><th>Start Date</th><th>Reason</th></tr><tr><td>Weight management program</td><td><span class=\"nb\">15-Jul-1951</span></td><td>-</td></tr></table></div>"
        },
        "status": "active",
        "intent": "plan",
        "subject": {
          "reference": "urn:uuid:96c4723f-1c51-44af-a4c5-76b8e6962d45",
          "display": "Gastone Farnese"
        }
      }
    },
    {
      "fullUrl": "urn:uuid:27cca9b4-a2a0-499f-a415-c1f0d332d991",
      "resource": {
        "resourceType": "ImmunizationRecommendation",
        "id": "27cca9b4-a2a0-499f-a415-c1f0d332d991",
        "recommendation": [
          {
            "vaccineCode": [
              {
                "coding": [
                  {
                    "code": "1181000221105",
                    "system": "http://snomed.info/sct",
                    "display": "Vaccine product containing only Influenza virus antigen (medicinal product)"
                  }
                ]
              }
            ],
            "dateCriterion": [
              {
                "code": {
                  "coding": [
                    {
                      "code": "30980-7",
                      "system": "http://loinc.org",
                      "display": "Date vaccine due"
                    }
                  ]
                },
                "value": "2025-10-01"
              }
            ],
            "targetDisease": {
              "coding": [
                {
                  "code": "6142004",
                  "system": "http://snomed.info/sct",
                  "display": "Influenza (disorder)"
                }
              ]
            },
            "series": "Annual seasonal influenza vaccination",
            "forecastStatus": {
              "coding": [
                {
                  "code": "due",
                  "system": "http://terminology.hl7.org/CodeSystem/immunization-recommendation-status",
                  "display": "Due"
                }
              ]
            }
          }
        ],
        "text": {
          "status": "generated",
          "div": "<div xmlns=\"http://www.w3.org/1999/xhtml\"><table class=\"hl7__ips\"><tr><td>Vaccine product containing only Influenza virus antigen (medicinal product)</td><td><span class=\"nb\">01-Oct-2025</span></td><td>Annual seasonal influenza vaccination</td></tr></table></div>"
        },
        "date": "2025-10-22",
        "patient": {
          "reference": "urn:uuid:96c4723f-1c51-44af-a4c5-76b8e6962d45",
          "display": "Gastone Farnese"
        }
      }
    },
    {
      "fullUrl": "urn:uuid:baa0ff04-89f0-45b7-8dd4-5d57d3a1b525",
      "resource": {
        "resourceType": "Observation",
        "id": "baa0ff04-89f0-45b7-8dd4-5d57d3a1b525",
        "meta": {
          "profile": [
            "http://hl7.org/fhir/StructureDefinition/vitalsigns"
          ]
        },
        "category": [
          {
            "coding": [
              {
                "system": "http://terminology.hl7.org/CodeSystem/observation-category",
                "code": "vital-signs",
                "display": "Vital Signs"
              }
            ]
          }
        ],
        "valueQuantity": {
          "value": 172.9,
          "code": "cm",
          "unit": "cm"
        },
        "text": {
          "status": "generated",
          "div": "<div xmlns=\"http://www.w3.org/1999/xhtml\"><table class=\"hl7__ips\"><tr><th>Vital Sign</th><th>Date</th><th>Measurement</th></tr><tr><td>Body Height</td><td>11-Jan-2025</td><td>172.9 cm</td></tr></table></div>"
        },
        "status": "final",
        "code": {
          "coding": [
            {
              "code": "$8302-2",
              "system": "http://loinc.org",
              "display": "Body Height"
            }
          ]
        },
        "subject": {
          "reference": "urn:uuid:96c4723f-1c51-44af-a4c5-76b8e6962d45",
          "display": "Gastone Farnese"
        },
        "effectiveDateTime": "2025-01-11"
      }
    },
    {
      "fullUrl": "urn:uuid:3e5ebd82-ffc6-4854-aa59-38430b35028b",
      "resource": {
        "resourceType": "Observation",
        "id": "3e5ebd82-ffc6-4854-aa59-38430b35028b",
        "meta": {
          "profile": [
            "http://hl7.org/fhir/StructureDefinition/vitalsigns"
          ]
        },
        "category": [
          {
            "coding": [
              {
                "system": "http://terminology.hl7.org/CodeSystem/observation-category",
                "code": "vital-signs",
                "display": "Vital Signs"
              }
            ]
          }
        ],
        "valueQuantity": {
          "value": 1,
          "code": "{score}",
          "unit": "{score}"
        },
        "text": {
          "status": "generated",
          "div": "<div xmlns=\"http://www.w3.org/1999/xhtml\"><table class=\"hl7__ips\"><tr><th>Vital Sign</th><th>Date</th><th>Measurement</th></tr><tr><td>Pain severity - 0-10 verbal numeric rating [Score] - Reported</td><td>11-Jan-2025</td><td>1 {score}</td></tr></table></div>"
        },
        "status": "final",
        "code": {
          "coding": [
            {
              "code": "$72514-3",
              "system": "http://loinc.org",
              "display": "Pain severity - 0-10 verbal numeric rating [Score] - Reported"
            }
          ]
        },
        "subject": {
          "reference": "urn:uuid:96c4723f-1c51-44af-a4c5-76b8e6962d45",
          "display": "Gastone Farnese"
        },
        "effectiveDateTime": "2025-01-11"
      }
    },
    {
      "fullUrl": "urn:uuid:a30fb9bd-442a-40bf-8cd5-91ce519a663f",
      "resource": {
        "resourceType": "Observation",
        "id": "a30fb9bd-442a-40bf-8cd5-91ce519a663f",
        "meta": {
          "profile": [
            "http://hl7.org/fhir/StructureDefinition/vitalsigns"
          ]
        },
        "category": [
          {
            "coding": [
              {
                "system": "http://terminology.hl7.org/CodeSystem/observation-category",
                "code": "vital-signs",
                "display": "Vital Signs"
              }
            ]
          }
        ],
        "valueQuantity": {
          "value": 98.8,
          "code": "kg",
          "unit": "kg"
        },
        "text": {
          "status": "generated",
          "div": "<div xmlns=\"http://www.w3.org/1999/xhtml\"><table class=\"hl7__ips\"><tr><th>Vital Sign</th><th>Date</th><th>Measurement</th></tr><tr><td>Body Weight</td><td>11-Jan-2025</td><td>98.8 kg</td></tr></table></div>"
        },
        "status": "final",
        "code": {
          "coding": [
            {
              "code": "$29463-7",
              "system": "http://loinc.org",
              "display": "Body Weight"
            }
          ]
        },
        "subject": {
          "reference": "urn:uuid:96c4723f-1c51-44af-a4c5-76b8e6962d45",
          "display": "Gastone Farnese"
        },
        "effectiveDateTime": "2025-01-11"
      }
    },
    {
      "fullUrl": "urn:uuid:59a2648c-8419-4884-bb12-3b415a04ff0d",
      "resource": {
        "resourceType": "Observation",
        "id": "59a2648c-8419-4884-bb12-3b415a04ff0d",
        "meta": {
          "profile": [
            "http://hl7.org/fhir/StructureDefinition/vitalsigns"
          ]
        },
        "category": [
          {
            "coding": [
              {
                "system": "http://terminology.hl7.org/CodeSystem/observation-category",
                "code": "vital-signs",
                "display": "Vital Signs"
              }
            ]
          }
        ],
        "valueQuantity": {
          "value": 33.1,
          "code": "kg/m2",
          "unit": "kg/m2"
        },
        "text": {
          "status": "generated",
          "div": "<div xmlns=\"http://www.w3.org/1999/xhtml\"><table class=\"hl7__ips\"><tr><th>Vital Sign</th><th>Date</th><th>Measurement</th></tr><tr><td>Body mass index (BMI) [Ratio]</td><td>11-Jan-2025</td><td>33.1 kg/m2</td></tr></table></div>"
        },
        "status": "final",
        "code": {
          "coding": [
            {
              "code": "$39156-5",
              "system": "http://loinc.org",
              "display": "Body mass index (BMI) [Ratio]"
            }
          ]
        },
        "subject": {
          "reference": "urn:uuid:96c4723f-1c51-44af-a4c5-76b8e6962d45",
          "display": "Gastone Farnese"
        },
        "effectiveDateTime": "2025-01-11"
      }
    },
    {
      "fullUrl": "urn:uuid:e1e16812-8a80-41e4-a5ba-2b9884466eb6",
      "resource": {
        "resourceType": "Observation",
        "id": "e1e16812-8a80-41e4-a5ba-2b9884466eb6",
        "meta": {
          "profile": [
            "http://hl7.org/fhir/StructureDefinition/vitalsigns"
          ]
        },
        "category": [
          {
            "coding": [
              {
                "system": "http://terminology.hl7.org/CodeSystem/observation-category",
                "code": "vital-signs",
                "display": "Vital Signs"
              }
            ]
          }
        ],
        "valueQuantity": {
          "value": 59,
          "code": "mm[Hg]",
          "unit": "mm[Hg]"
        },
        "text": {
          "status": "generated",
          "div": "<div xmlns=\"http://www.w3.org/1999/xhtml\"><table class=\"hl7__ips\"><tr><th>Vital Sign</th><th>Date</th><th>Measurement</th></tr><tr><td>Diastolic Blood Pressure</td><td>11-Jan-2025</td><td>59 mm[Hg]</td></tr></table></div>"
        },
        "status": "final",
        "code": {
          "coding": [
            {
              "code": "$8462-4",
              "system": "http://loinc.org",
              "display": "Diastolic Blood Pressure"
            }
          ]
        },
        "subject": {
          "reference": "urn:uuid:96c4723f-1c51-44af-a4c5-76b8e6962d45",
          "display": "Gastone Farnese"
        },
        "effectiveDateTime": "2025-01-11"
      }
    },
    {
      "fullUrl": "urn:uuid:649a9a36-2149-49ba-ac54-df9666b0dd7c",
      "resource": {
        "resourceType": "Observation",
        "id": "649a9a36-2149-49ba-ac54-df9666b0dd7c",
        "meta": {
          "profile": [
            "http://hl7.org/fhir/StructureDefinition/vitalsigns"
          ]
        },
        "category": [
          {
            "coding": [
              {
                "system": "http://terminology.hl7.org/CodeSystem/observation-category",
                "code": "vital-signs",
                "display": "Vital Signs"
              }
            ]
          }
        ],
        "valueQuantity": {
          "value": 84,
          "code": "mm[Hg]",
          "unit": "mm[Hg]"
        },
        "text": {
          "status": "generated",
          "div": "<div xmlns=\"http://www.w3.org/1999/xhtml\"><table class=\"hl7__ips\"><tr><th>Vital Sign</th><th>Date</th><th>Measurement</th></tr><tr><td>Systolic Blood Pressure</td><td>11-Jan-2025</td><td>84 mm[Hg]</td></tr></table></div>"
        },
        "status": "final",
        "code": {
          "coding": [
            {
              "code": "$8480-6",
              "system": "http://loinc.org",
              "display": "Systolic Blood Pressure"
            }
          ]
        },
        "subject": {
          "reference": "urn:uuid:96c4723f-1c51-44af-a4c5-76b8e6962d45",
          "display": "Gastone Farnese"
        },
        "effectiveDateTime": "2025-01-11"
      }
    },
    {
      "fullUrl": "urn:uuid:0d7aaccf-b265-4109-9136-322c382dd774",
      "resource": {
        "resourceType": "Observation",
        "id": "0d7aaccf-b265-4109-9136-322c382dd774",
        "meta": {
          "profile": [
            "http://hl7.org/fhir/StructureDefinition/vitalsigns"
          ]
        },
        "category": [
          {
            "coding": [
              {
                "system": "http://terminology.hl7.org/CodeSystem/observation-category",
                "code": "vital-signs",
                "display": "Vital Signs"
              }
            ]
          }
        ],
        "valueQuantity": {
          "value": 91,
          "code": "/min",
          "unit": "/min"
        },
        "text": {
          "status": "generated",
          "div": "<div xmlns=\"http://www.w3.org/1999/xhtml\"><table class=\"hl7__ips\"><tr><th>Vital Sign</th><th>Date</th><th>Measurement</th></tr><tr><td>Heart rate</td><td>11-Jan-2025</td><td>91 /min</td></tr></table></div>"
        },
        "status": "final",
        "code": {
          "coding": [
            {
              "code": "$8867-4",
              "system": "http://loinc.org",
              "display": "Heart rate"
            }
          ]
        },
        "subject": {
          "reference": "urn:uuid:96c4723f-1c51-44af-a4c5-76b8e6962d45",
          "display": "Gastone Farnese"
        },
        "effectiveDateTime": "2025-01-11"
      }
    },
    {
      "fullUrl": "urn:uuid:8308c8f3-6bf3-4165-b4a2-fb43340b5adb",
      "resource": {
        "resourceType": "Observation",
        "id": "8308c8f3-6bf3-4165-b4a2-fb43340b5adb",
        "meta": {
          "profile": [
            "http://hl7.org/fhir/StructureDefinition/vitalsigns"
          ]
        },
        "category": [
          {
            "coding": [
              {
                "system": "http://terminology.hl7.org/CodeSystem/observation-category",
                "code": "vital-signs",
                "display": "Vital Signs"
              }
            ]
          }
        ],
        "valueQuantity": {
          "value": 14,
          "code": "/min",
          "unit": "/min"
        },
        "text": {
          "status": "generated",
          "div": "<div xmlns=\"http://www.w3.org/1999/xhtml\"><table class=\"hl7__ips\"><tr><th>Vital Sign</th><th>Date</th><th>Measurement</th></tr><tr><td>Respiratory rate</td><td>11-Jan-2025</td><td>14 /min</td></tr></table></div>"
        },
        "status": "final",
        "code": {
          "coding": [
            {
              "code": "$9279-1",
              "system": "http://loinc.org",
              "display": "Respiratory rate"
            }
          ]
        },
        "subject": {
          "reference": "urn:uuid:96c4723f-1c51-44af-a4c5-76b8e6962d45",
          "display": "Gastone Farnese"
        },
        "effectiveDateTime": "2025-01-11"
      }
    },
    {
      "fullUrl": "urn:uuid:639c57fa-1fdd-4f38-9621-32b4e0f07768",
      "resource": {
        "resourceType": "Observation",
        "id": "639c57fa-1fdd-4f38-9621-32b4e0f07768",
        "meta": {
          "profile": [
            "http://hl7.org/fhir/StructureDefinition/vitalsigns"
          ]
        },
        "category": [
          {
            "coding": [
              {
                "system": "http://terminology.hl7.org/CodeSystem/observation-category",
                "code": "vital-signs",
                "display": "Vital Signs"
              }
            ]
          }
        ],
        "valueQuantity": {
          "value": 37.2,
          "code": "Cel",
          "unit": "Cel"
        },
        "text": {
          "status": "generated",
          "div": "<div xmlns=\"http://www.w3.org/1999/xhtml\"><table class=\"hl7__ips\"><tr><th>Vital Sign</th><th>Date</th><th>Measurement</th></tr><tr><td>Body temperature</td><td>07-May-2024</td><td>37.2 Cel</td></tr></table></div>"
        },
        "status": "final",
        "code": {
          "coding": [
            {
              "code": "$8310-5",
              "system": "http://loinc.org",
              "display": "Body temperature"
            }
          ]
        },
        "subject": {
          "reference": "urn:uuid:96c4723f-1c51-44af-a4c5-76b8e6962d45",
          "display": "Gastone Farnese"
        },
        "effectiveDateTime": "2024-05-07"
      }
    },
    {
      "fullUrl": "urn:uuid:fdd9a7e2-1b50-4e92-a339-2737f95fc676",
      "resource": {
        "resourceType": "Observation",
        "id": "fdd9a7e2-1b50-4e92-a339-2737f95fc676",
        "meta": {
          "profile": [
            "http://hl7.eu/fhir/laboratory/StructureDefinition/Observation-resultslab-eu-lab"
          ]
        },
        "performer": [
          {
            "display": "The Central European Lab"
          }
        ],
        "category": [
          {
            "coding": [
              {
                "system": "http://terminology.hl7.org/CodeSystem/observation-category",
                "code": "laboratory"
              }
            ]
          }
        ],
        "code": {
          "coding": [
            {
              "code": "6690-2",
              "system": "http://loinc.org",
              "display": "Leukocytes [#/volume] in Blood by Automated count"
            }
          ],
          "text": "Leukocytes [#/volume] in Blood by Automated count"
        },
        "valueQuantity": {
          "system": "http://unitsofmeasure.org",
          "value": 3.6,
          "unit": "10*3/uL",
          "code": "10*3/uL"
        },
        "referenceRange": [
          {
            "low": {
              "value": 3.4,
              "code": "10*3/uL",
              "system": "http://unitsofmeasure.org"
            }
          },
          {
            "high": {
              "value": 10.6,
              "code": "10*3/uL",
              "system": "http://unitsofmeasure.org"
            }
          }
        ],
        "text": {
          "status": "generated",
          "div": "<div xmlns=\"http://www.w3.org/1999/xhtml\"><table class=\"hl7__eu__lab__report\"><tr><th>Test</th><th>07-Jan-2024</th><th>Reference&#xA0;Range</th><th>Unit</th></tr><tr><td>Leukocytes [#/volume] in Blood by Automated count</td><td>3.6</td><td>3.4 - 10.6</td><td></td><td>10*3/uL</td></tr></table></div>"
        },
        "status": "final",
        "subject": {
          "reference": "urn:uuid:96c4723f-1c51-44af-a4c5-76b8e6962d45",
          "display": "Gastone Farnese"
        },
        "effectiveDateTime": "2024-01-06T23:10:08Z"
      }
    },
    {
      "fullUrl": "urn:uuid:97a9202a-f950-450c-a6ad-b854b564cbf5",
      "resource": {
        "resourceType": "Observation",
        "id": "97a9202a-f950-450c-a6ad-b854b564cbf5",
        "meta": {
          "profile": [
            "http://hl7.eu/fhir/laboratory/StructureDefinition/Observation-resultslab-eu-lab"
          ]
        },
        "performer": [
          {
            "display": "The Central European Lab"
          }
        ],
        "category": [
          {
            "coding": [
              {
                "system": "http://terminology.hl7.org/CodeSystem/observation-category",
                "code": "laboratory"
              }
            ]
          }
        ],
        "code": {
          "coding": [
            {
              "code": "789-8",
              "system": "http://loinc.org",
              "display": "Erythrocytes [#/volume] in Blood by Automated count"
            }
          ],
          "text": "Erythrocytes [#/volume] in Blood by Automated count"
        },
        "valueQuantity": {
          "system": "http://unitsofmeasure.org",
          "value": 4.5,
          "unit": "10*6/uL",
          "code": "10*6/uL"
        },
        "referenceRange": [
          {
            "low": {
              "value": 4.2,
              "code": "10*6/uL",
              "system": "http://unitsofmeasure.org"
            }
          },
          {
            "high": {
              "value": 6.2,
              "code": "10*6/uL",
              "system": "http://unitsofmeasure.org"
            }
          }
        ],
        "text": {
          "status": "generated",
          "div": "<div xmlns=\"http://www.w3.org/1999/xhtml\"><table class=\"hl7__eu__lab__report\"><tr><th>Test</th><th>07-Jan-2024</th><th>Reference&#xA0;Range</th><th>Unit</th></tr><tr><td>Erythrocytes [#/volume] in Blood by Automated count</td><td>4.5</td><td>4.2 - 6.2</td><td></td><td>10*6/uL</td></tr></table></div>"
        },
        "status": "final",
        "subject": {
          "reference": "urn:uuid:96c4723f-1c51-44af-a4c5-76b8e6962d45",
          "display": "Gastone Farnese"
        },
        "effectiveDateTime": "2024-01-06T23:10:08Z"
      }
    },
    {
      "fullUrl": "urn:uuid:1b4cc75b-e875-4836-a2e4-113dbe5a2526",
      "resource": {
        "resourceType": "Observation",
        "id": "1b4cc75b-e875-4836-a2e4-113dbe5a2526",
        "meta": {
          "profile": [
            "http://hl7.eu/fhir/laboratory/StructureDefinition/Observation-resultslab-eu-lab"
          ]
        },
        "performer": [
          {
            "display": "The Central European Lab"
          }
        ],
        "category": [
          {
            "coding": [
              {
                "system": "http://terminology.hl7.org/CodeSystem/observation-category",
                "code": "laboratory"
              }
            ]
          }
        ],
        "code": {
          "coding": [
            {
              "code": "718-7",
              "system": "http://loinc.org",
              "display": "Hemoglobin [Mass/volume] in Blood"
            }
          ],
          "text": "Hemoglobin [Mass/volume] in Blood"
        },
        "valueQuantity": {
          "system": "http://unitsofmeasure.org",
          "value": 13.1,
          "unit": "g/dL",
          "code": "g/dL"
        },
        "referenceRange": [
          {
            "low": {
              "value": 13.8,
              "code": "g/dL",
              "system": "http://unitsofmeasure.org"
            }
          },
          {
            "high": {
              "value": 17.5,
              "code": "g/dL",
              "system": "http://unitsofmeasure.org"
            }
          }
        ],
        "interpretation": [
          {
            "coding": [
              {
                "code": "L",
                "system": "http://terminology.hl7.org/CodeSystem/v3-ObservationInterpretation",
                "display": "Low"
              }
            ]
          }
        ],
        "text": {
          "status": "generated",
          "div": "<div xmlns=\"http://www.w3.org/1999/xhtml\"><table class=\"hl7__eu__lab__report\"><tr><th>Test</th><th>07-Jan-2024</th><th>Reference&#xA0;Range</th><th>Unit</th></tr><tr><td>Hemoglobin [Mass/volume] in Blood</td><td>13.1</td><td>13.8 - 17.5</td><td>L</td><td>g/dL</td></tr></table></div>"
        },
        "status": "final",
        "subject": {
          "reference": "urn:uuid:96c4723f-1c51-44af-a4c5-76b8e6962d45",
          "display": "Gastone Farnese"
        },
        "effectiveDateTime": "2024-01-06T23:10:08Z"
      }
    },
    {
      "fullUrl": "urn:uuid:c70ba671-dc02-4012-8d0d-8d1e462dbe6a",
      "resource": {
        "resourceType": "Observation",
        "id": "c70ba671-dc02-4012-8d0d-8d1e462dbe6a",
        "meta": {
          "profile": [
            "http://hl7.eu/fhir/laboratory/StructureDefinition/Observation-resultslab-eu-lab"
          ]
        },
        "performer": [
          {
            "display": "The Central European Lab"
          }
        ],
        "category": [
          {
            "coding": [
              {
                "system": "http://terminology.hl7.org/CodeSystem/observation-category",
                "code": "laboratory"
              }
            ]
          }
        ],
        "code": {
          "coding": [
            {
              "code": "4544-3",
              "system": "http://loinc.org",
              "display": "Hematocrit [Volume Fraction] of Blood by Automated count"
            }
          ],
          "text": "Hematocrit [Volume Fraction] of Blood by Automated count"
        },
        "valueQuantity": {
          "system": "http://unitsofmeasure.org",
          "value": 47.7,
          "unit": "%",
          "code": "%"
        },
        "referenceRange": [
          {
            "low": {
              "value": 38,
              "code": "%",
              "system": "http://unitsofmeasure.org"
            }
          },
          {
            "high": {
              "value": 50,
              "code": "%",
              "system": "http://unitsofmeasure.org"
            }
          }
        ],
        "text": {
          "status": "generated",
          "div": "<div xmlns=\"http://www.w3.org/1999/xhtml\"><table class=\"hl7__eu__lab__report\"><tr><th>Test</th><th>07-Jan-2024</th><th>Reference&#xA0;Range</th><th>Unit</th></tr><tr><td>Hematocrit [Volume Fraction] of Blood by Automated count</td><td>47.7</td><td>38 - 50</td><td></td><td>%</td></tr></table></div>"
        },
        "status": "final",
        "subject": {
          "reference": "urn:uuid:96c4723f-1c51-44af-a4c5-76b8e6962d45",
          "display": "Gastone Farnese"
        },
        "effectiveDateTime": "2024-01-06T23:10:08Z"
      }
    },
    {
      "fullUrl": "urn:uuid:76985d94-dead-4135-8422-94a68fff03a0",
      "resource": {
        "resourceType": "Observation",
        "id": "76985d94-dead-4135-8422-94a68fff03a0",
        "meta": {
          "profile": [
            "http://hl7.eu/fhir/laboratory/StructureDefinition/Observation-resultslab-eu-lab"
          ]
        },
        "performer": [
          {
            "display": "The Central European Lab"
          }
        ],
        "category": [
          {
            "coding": [
              {
                "system": "http://terminology.hl7.org/CodeSystem/observation-category",
                "code": "laboratory"
              }
            ]
          }
        ],
        "code": {
          "coding": [
            {
              "code": "787-2",
              "system": "http://loinc.org",
              "display": "MCV [Entitic volume] by Automated count"
            }
          ],
          "text": "MCV [Entitic volume] by Automated count"
        },
        "valueQuantity": {
          "system": "http://unitsofmeasure.org",
          "value": 94.3,
          "unit": "fL",
          "code": "fL"
        },
        "referenceRange": [
          {
            "low": {
              "value": 76,
              "code": "fL",
              "system": "http://unitsofmeasure.org"
            }
          },
          {
            "high": {
              "value": 98,
              "code": "fL",
              "system": "http://unitsofmeasure.org"
            }
          }
        ],
        "text": {
          "status": "generated",
          "div": "<div xmlns=\"http://www.w3.org/1999/xhtml\"><table class=\"hl7__eu__lab__report\"><tr><th>Test</th><th>07-Jan-2024</th><th>Reference&#xA0;Range</th><th>Unit</th></tr><tr><td>MCV [Entitic volume] by Automated count</td><td>94.3</td><td>76 - 98</td><td></td><td>fL</td></tr></table></div>"
        },
        "status": "final",
        "subject": {
          "reference": "urn:uuid:96c4723f-1c51-44af-a4c5-76b8e6962d45",
          "display": "Gastone Farnese"
        },
        "effectiveDateTime": "2024-01-06T23:10:08Z"
      }
    },
    {
      "fullUrl": "urn:uuid:3990efd0-05cf-45c3-a820-4d495dec268a",
      "resource": {
        "resourceType": "Observation",
        "id": "3990efd0-05cf-45c3-a820-4d495dec268a",
        "meta": {
          "profile": [
            "http://hl7.eu/fhir/laboratory/StructureDefinition/Observation-resultslab-eu-lab"
          ]
        },
        "performer": [
          {
            "display": "The Central European Lab"
          }
        ],
        "category": [
          {
            "coding": [
              {
                "system": "http://terminology.hl7.org/CodeSystem/observation-category",
                "code": "laboratory"
              }
            ]
          }
        ],
        "code": {
          "coding": [
            {
              "code": "785-6",
              "system": "http://loinc.org",
              "display": "MCH [Entitic mass] by Automated count"
            }
          ],
          "text": "MCH [Entitic mass] by Automated count"
        },
        "valueQuantity": {
          "system": "http://unitsofmeasure.org",
          "value": 27.5,
          "unit": "pg",
          "code": "pg"
        },
        "referenceRange": [
          {
            "low": {
              "value": 27,
              "code": "pg",
              "system": "http://unitsofmeasure.org"
            }
          },
          {
            "high": {
              "value": 34,
              "code": "pg",
              "system": "http://unitsofmeasure.org"
            }
          }
        ],
        "text": {
          "status": "generated",
          "div": "<div xmlns=\"http://www.w3.org/1999/xhtml\"><table class=\"hl7__eu__lab__report\"><tr><th>Test</th><th>07-Jan-2024</th><th>Reference&#xA0;Range</th><th>Unit</th></tr><tr><td>MCH [Entitic mass] by Automated count</td><td>27.5</td><td>27 - 34</td><td></td><td>pg</td></tr></table></div>"
        },
        "status": "final",
        "subject": {
          "reference": "urn:uuid:96c4723f-1c51-44af-a4c5-76b8e6962d45",
          "display": "Gastone Farnese"
        },
        "effectiveDateTime": "2024-01-06T23:10:08Z"
      }
    },
    {
      "fullUrl": "urn:uuid:6f65c168-dc80-48ae-97a8-9002d77e92bc",
      "resource": {
        "resourceType": "Observation",
        "id": "6f65c168-dc80-48ae-97a8-9002d77e92bc",
        "meta": {
          "profile": [
            "http://hl7.eu/fhir/laboratory/StructureDefinition/Observation-resultslab-eu-lab"
          ]
        },
        "performer": [
          {
            "display": "The Central European Lab"
          }
        ],
        "category": [
          {
            "coding": [
              {
                "system": "http://terminology.hl7.org/CodeSystem/observation-category",
                "code": "laboratory"
              }
            ]
          }
        ],
        "code": {
          "coding": [
            {
              "code": "786-4",
              "system": "http://loinc.org",
              "display": "MCHC [Mass/volume] by Automated count"
            }
          ],
          "text": "MCHC [Mass/volume] by Automated count"
        },
        "valueQuantity": {
          "system": "http://unitsofmeasure.org",
          "value": 35.4,
          "unit": "g/dL",
          "code": "g/dL"
        },
        "referenceRange": [
          {
            "low": {
              "value": 31,
              "code": "g/dL",
              "system": "http://unitsofmeasure.org"
            }
          },
          {
            "high": {
              "value": 37,
              "code": "g/dL",
              "system": "http://unitsofmeasure.org"
            }
          }
        ],
        "text": {
          "status": "generated",
          "div": "<div xmlns=\"http://www.w3.org/1999/xhtml\"><table class=\"hl7__eu__lab__report\"><tr><th>Test</th><th>07-Jan-2024</th><th>Reference&#xA0;Range</th><th>Unit</th></tr><tr><td>MCHC [Mass/volume] by Automated count</td><td>35.4</td><td>31 - 37</td><td></td><td>g/dL</td></tr></table></div>"
        },
        "status": "final",
        "subject": {
          "reference": "urn:uuid:96c4723f-1c51-44af-a4c5-76b8e6962d45",
          "display": "Gastone Farnese"
        },
        "effectiveDateTime": "2024-01-06T23:10:08Z"
      }
    },
    {
      "fullUrl": "urn:uuid:f5fa61a1-23a8-46ae-ba39-8a08f60e2967",
      "resource": {
        "resourceType": "Observation",
        "id": "f5fa61a1-23a8-46ae-ba39-8a08f60e2967",
        "meta": {
          "profile": [
            "http://hl7.eu/fhir/laboratory/StructureDefinition/Observation-resultslab-eu-lab"
          ]
        },
        "performer": [
          {
            "display": "The Central European Lab"
          }
        ],
        "category": [
          {
            "coding": [
              {
                "system": "http://terminology.hl7.org/CodeSystem/observation-category",
                "code": "laboratory"
              }
            ]
          }
        ],
        "code": {
          "coding": [
            {
              "code": "21000-5",
              "system": "http://loinc.org",
              "display": "Erythrocyte distribution width [Entitic volume] by Automated count"
            }
          ],
          "text": "Erythrocyte distribution width [Entitic volume] by Automated count"
        },
        "valueQuantity": {
          "system": "http://unitsofmeasure.org",
          "value": 44.5,
          "unit": "fL",
          "code": "fL"
        },
        "referenceRange": [
          {
            "low": {
              "value": 36,
              "code": "fL",
              "system": "http://unitsofmeasure.org"
            }
          },
          {
            "high": {
              "value": 56,
              "code": "fL",
              "system": "http://unitsofmeasure.org"
            }
          }
        ],
        "text": {
          "status": "generated",
          "div": "<div xmlns=\"http://www.w3.org/1999/xhtml\"><table class=\"hl7__eu__lab__report\"><tr><th>Test</th><th>07-Jan-2024</th><th>Reference&#xA0;Range</th><th>Unit</th></tr><tr><td>Erythrocyte distribution width [Entitic volume] by Automated count</td><td>44.5</td><td>36 - 56</td><td></td><td>fL</td></tr></table></div>"
        },
        "status": "final",
        "subject": {
          "reference": "urn:uuid:96c4723f-1c51-44af-a4c5-76b8e6962d45",
          "display": "Gastone Farnese"
        },
        "effectiveDateTime": "2024-01-06T23:10:08Z"
      }
    },
    {
      "fullUrl": "urn:uuid:80bc7e94-04a2-4936-8726-b6b01851bc77",
      "resource": {
        "resourceType": "Observation",
        "id": "80bc7e94-04a2-4936-8726-b6b01851bc77",
        "meta": {
          "profile": [
            "http://hl7.eu/fhir/laboratory/StructureDefinition/Observation-resultslab-eu-lab"
          ]
        },
        "performer": [
          {
            "display": "The Central European Lab"
          }
        ],
        "category": [
          {
            "coding": [
              {
                "system": "http://terminology.hl7.org/CodeSystem/observation-category",
                "code": "laboratory"
              }
            ]
          }
        ],
        "code": {
          "coding": [
            {
              "code": "777-3",
              "system": "http://loinc.org",
              "display": "Platelets [#/volume] in Blood by Automated count"
            }
          ],
          "text": "Platelets [#/volume] in Blood by Automated count"
        },
        "valueQuantity": {
          "system": "http://unitsofmeasure.org",
          "value": 293.3,
          "unit": "10*3/uL",
          "code": "10*3/uL"
        },
        "referenceRange": [
          {
            "low": {
              "value": 150,
              "code": "10*3/uL",
              "system": "http://unitsofmeasure.org"
            }
          },
          {
            "high": {
              "value": 363,
              "code": "10*3/uL",
              "system": "http://unitsofmeasure.org"
            }
          }
        ],
        "text": {
          "status": "generated",
          "div": "<div xmlns=\"http://www.w3.org/1999/xhtml\"><table class=\"hl7__eu__lab__report\"><tr><th>Test</th><th>07-Jan-2024</th><th>Reference&#xA0;Range</th><th>Unit</th></tr><tr><td>Platelets [#/volume] in Blood by Automated count</td><td>293.3</td><td>150 - 363</td><td></td><td>10*3/uL</td></tr></table></div>"
        },
        "status": "final",
        "subject": {
          "reference": "urn:uuid:96c4723f-1c51-44af-a4c5-76b8e6962d45",
          "display": "Gastone Farnese"
        },
        "effectiveDateTime": "2024-01-06T23:10:08Z"
      }
    },
    {
      "fullUrl": "urn:uuid:450de69d-fcf1-4ad4-a11a-92df6f03f852",
      "resource": {
        "resourceType": "Observation",
        "id": "450de69d-fcf1-4ad4-a11a-92df6f03f852",
        "meta": {
          "profile": [
            "http://hl7.eu/fhir/laboratory/StructureDefinition/Observation-resultslab-eu-lab"
          ]
        },
        "performer": [
          {
            "display": "The Central European Lab"
          }
        ],
        "category": [
          {
            "coding": [
              {
                "system": "http://terminology.hl7.org/CodeSystem/observation-category",
                "code": "laboratory"
              }
            ]
          }
        ],
        "code": {
          "coding": [
            {
              "code": "32207-3",
              "system": "http://loinc.org",
              "display": "Platelet distribution width [Entitic volume] in Blood by Automated count"
            }
          ],
          "text": "Platelet distribution width [Entitic volume] in Blood by Automated count"
        },
        "valueQuantity": {
          "system": "http://unitsofmeasure.org",
          "value": 366.9,
          "unit": "fL",
          "code": "fL"
        },
        "referenceRange": [
          {
            "low": {
              "value": 13.4,
              "code": "fL",
              "system": "http://unitsofmeasure.org"
            }
          },
          {
            "high": {
              "value": 17.4,
              "code": "fL",
              "system": "http://unitsofmeasure.org"
            }
          }
        ],
        "interpretation": [
          {
            "coding": [
              {
                "code": "H",
                "system": "http://terminology.hl7.org/CodeSystem/v3-ObservationInterpretation",
                "display": "High"
              }
            ]
          }
        ],
        "text": {
          "status": "generated",
          "div": "<div xmlns=\"http://www.w3.org/1999/xhtml\"><table class=\"hl7__eu__lab__report\"><tr><th>Test</th><th>07-Jan-2024</th><th>Reference&#xA0;Range</th><th>Unit</th></tr><tr><td>Platelet distribution width [Entitic volume] in Blood by Automated count</td><td>366.9</td><td>13.4 - 17.4</td><td>H</td><td>fL</td></tr></table></div>"
        },
        "status": "final",
        "subject": {
          "reference": "urn:uuid:96c4723f-1c51-44af-a4c5-76b8e6962d45",
          "display": "Gastone Farnese"
        },
        "effectiveDateTime": "2024-01-06T23:10:08Z"
      }
    },
    {
      "fullUrl": "urn:uuid:da4f5d93-daaa-4241-b993-5069a69758b0",
      "resource": {
        "resourceType": "Observation",
        "id": "da4f5d93-daaa-4241-b993-5069a69758b0",
        "meta": {
          "profile": [
            "http://hl7.eu/fhir/laboratory/StructureDefinition/Observation-resultslab-eu-lab"
          ]
        },
        "performer": [
          {
            "display": "The Central European Lab"
          }
        ],
        "category": [
          {
            "coding": [
              {
                "system": "http://terminology.hl7.org/CodeSystem/observation-category",
                "code": "laboratory"
              }
            ]
          }
        ],
        "code": {
          "coding": [
            {
              "code": "32623-1",
              "system": "http://loinc.org",
              "display": "Platelet mean volume [Entitic volume] in Blood by Automated count"
            }
          ],
          "text": "Platelet mean volume [Entitic volume] in Blood by Automated count"
        },
        "valueQuantity": {
          "system": "http://unitsofmeasure.org",
          "value": 9.7,
          "unit": "fL",
          "code": "fL"
        },
        "referenceRange": [
          {
            "low": {
              "value": 7.2,
              "code": "fL",
              "system": "http://unitsofmeasure.org"
            }
          },
          {
            "high": {
              "value": 13.5,
              "code": "fL",
              "system": "http://unitsofmeasure.org"
            }
          }
        ],
        "text": {
          "status": "generated",
          "div": "<div xmlns=\"http://www.w3.org/1999/xhtml\"><table class=\"hl7__eu__lab__report\"><tr><th>Test</th><th>07-Jan-2024</th><th>Reference&#xA0;Range</th><th>Unit</th></tr><tr><td>Platelet mean volume [Entitic volume] in Blood by Automated count</td><td>9.7</td><td>7.2 - 13.5</td><td></td><td>fL</td></tr></table></div>"
        },
        "status": "final",
        "subject": {
          "reference": "urn:uuid:96c4723f-1c51-44af-a4c5-76b8e6962d45",
          "display": "Gastone Farnese"
        },
        "effectiveDateTime": "2024-01-06T23:10:08Z"
      }
    },
    {
      "fullUrl": "urn:uuid:90231252-eb6b-4b08-bacf-df47faa61c33",
      "resource": {
        "resourceType": "Device",
        "id": "90231252-eb6b-4b08-bacf-df47faa61c33",
        "deviceName": [
          {
            "name": "SYNDERAI Synthetic Generator",
            "type": "manufacturer-name"
          }
        ],
        "version": [
          {
            "value": "5.0"
          }
        ],
        "text": {
          "status": "generated",
          "div": "<div xmlns=\"http://www.w3.org/1999/xhtml\">SYNDERAI Synthetic Generator v5.0</div>"
        },
        "status": "active\"",
        "distinctIdentifier": "synderai-generator-50",
        "manufacturer": "SYNDERAI Project"
      }
    },
    {
      "fullUrl": "urn:uuid:0bc2f883-221b-4667-8237-f9e53f29ec80",
      "resource": {
        "resourceType": "Provenance",
        "id": "0bc2f883-221b-4667-8237-f9e53f29ec80",
        "target": [
          {
            "reference": "Patient/96c4723f-1c51-44af-a4c5-76b8e6962d45"
          },
          {
            "reference": "Bundle/2b753596-f833-423d-a0cb-c704fe9ad419"
          },
          {
            "reference": "Composition/7da58d2e-ed2e-4596-96e7-fdca727c7bee"
          },
          {
            "reference": "PractitionerRole/bff23355-7f40-4dd5-8bcd-9d71ccb50188"
          },
          {
            "reference": "Organization/7241233a-36b8-40cc-b1d7-f977bef71a8a"
          },
          {
            "reference": "Practitioner/658fe808-e041-463e-97f3-ae66ce6bc075"
          }
        ],
        "activity": {
          "text": "Synthetic Example Data Generation"
        },
        "policy": [
          "https://synderai.net/synderai-synthetic-data-policy"
        ],
        "agent": [
          {
            "type": {
              "text": "author"
            },
            "who": {
              "reference": "Device/90231252-eb6b-4b08-bacf-df47faa61c33"
            }
          }
        ],
        "reason": [
          {
            "text": "Interoperability Testing and Training (non-clinical use)"
          }
        ],
        "text": {
          "status": "generated",
          "div": "<div xmlns=\"http://www.w3.org/1999/xhtml\">Provenance for SYNDERAI Synthetic Example Data Resource</div>"
        },
        "recorded": "2024-01-06T23:10:08Z"
      }
    }
  ],
  "type": "document",
  "timestamp": "2024-01-06T23:10:08Z"
}
