{
  "resourceType": "Bundle",
  "id": "84506b67-f168-4353-8edc-d76795564467",
  "meta": {
    "profile": [
      "http://hl7.eu/fhir/eps/StructureDefinition/bundle-eu-eps"
    ]
  },
  "identifier": {
    "assigner": {
      "display": "HL7 Europe"
    },
    "system": "urn:oid:2.16.840.1.113883.2.51.999",
    "value": "59c2887e-d2a5-4bd4-88da-21287004aafa"
  },
  "entry": [
    {
      "fullUrl": "urn:uuid:5c912b11-dbc9-44b1-a27c-508c2ef18634",
      "resource": {
        "resourceType": "Composition",
        "id": "5c912b11-dbc9-44b1-a27c-508c2ef18634",
        "meta": {
          "security": [
            {
              "system": "http://terminology.hl7.org/CodeSystem/v3-ActReason",
              "code": "HTEST"
            },
            {
              "system": "http://terminology.hl7.org/CodeSystem/v3-ActReason",
              "code": "TRAIN"
            }
          ],
          "tag": [
            {
              "system": "https://synderai.net/fhir/CodeSystem/tags",
              "code": "synthetic",
              "display": "SYNDERAI Synthetic data"
            }
          ],
          "profile": [
            "http://hl7.eu/fhir/eps/StructureDefinition/composition-eu-eps"
          ]
        },
        "identifier": {
          "assigner": {
            "display": "HL7 Europe"
          },
          "system": "urn:oid:2.16.840.1.113883.2.51.999",
          "value": "17eb5a65-3a57-46f9-b414-8b6f22e9eed8"
        },
        "type": {
          "coding": [
            {
              "system": "http://loinc.org",
              "code": "60591-5",
              "display": "Patient summary Document"
            }
          ],
          "text": "Patient summary Document"
        },
        "author": [
          {
            "reference": "urn:uuid:6702cff5-8631-4a92-bd87-a3fb49433715"
          }
        ],
        "section": [
          {
            "text": {
              "status": "generated",
              "div": "<div xmlns=\"http://www.w3.org/1999/xhtml\"><table class=\"hl7__ips\"><tr><th>Condition</th><th>Onset Date</th><th>Status</th></tr><tr><td>Recurrent urinary tract infection</td><td><span class=\"nb\">11-Nov-2020</span></td><td>active</td></tr><tr><td>Ischemic heart disease</td><td><span class=\"nb\">31-Mar-2010</span></td><td>active</td></tr><tr><td>Metabolic syndrome X</td><td><span class=\"nb\">15-Jan-1997</span></td><td>active</td></tr><tr><td>Anemia</td><td><span class=\"nb\">04-Jan-1995</span></td><td>active</td></tr><tr><td>Prediabetes</td><td><span class=\"nb\">29-Dec-1993</span></td><td>active</td></tr><tr><td>Essential hypertension</td><td><span class=\"nb\">20-Jul-1966</span></td><td>active</td></tr><tr><td>Chronic sinusitis</td><td><span class=\"nb\">10-Jul-1966</span></td><td>active</td></tr></table></div>"
            },
            "entry": [
              {
                "reference": "urn:uuid:3b463501-5d49-4b63-a440-00c4f757d280"
              },
              {
                "reference": "urn:uuid:0f4e836c-8d75-44dd-b852-6a3a23a8f81a"
              },
              {
                "reference": "urn:uuid:ebb7e7f8-4683-481c-a163-c8d038fcc6e0"
              },
              {
                "reference": "urn:uuid:97bc61d0-2e75-4656-9037-d423b783f274"
              },
              {
                "reference": "urn:uuid:2c426ea6-3bde-4148-8692-9248adc2a5be"
              },
              {
                "reference": "urn:uuid:b5c4f10b-7ee6-4b48-868b-b851c2857e38"
              },
              {
                "reference": "urn:uuid:ef0b7c5e-8a99-4968-8f23-e00caa962d3a"
              }
            ],
            "code": {
              "coding": [
                {
                  "system": "http://loinc.org",
                  "code": "11450-4",
                  "display": "Problem list - Reported"
                }
              ]
            },
            "title": "Problem list"
          },
          {
            "text": {
              "status": "generated",
              "div": "<div xmlns=\"http://www.w3.org/1999/xhtml\"><table class=\"hl7__ips\"><tr><th>Medication</th><th>Since</th><th>Form</th><th>Dosage</th><th>Reason</th></tr><tr><td>Hydrochlorothiazide 25 mg oral tablet</td><td><span class=\"nb\">2025-06-25</span></td><td>-</td><td>1 tablet (25 mg) by mouth once daily</td><td>Essential hypertension (disorder)</td></tr><tr><td>Lisinopril 10 mg oral tablet</td><td><span class=\"nb\">2025-06-25</span></td><td>-</td><td>1 tablet (10 mg) by mouth once daily</td><td>Essential hypertension (disorder)</td></tr><tr><td>Acetaminophen 300 mg and hydrocodone bitartrate 5 mg oral tablet</td><td><span class=\"nb\">2025-06-25</span></td><td>-</td><td>1 tablet (300 mg/5 mg) by mouth every 4 to 6 hours as needed for pain</td><td>-</td></tr><tr><td>Clopidogrel (as clopidogrel bisulfate) 75 mg oral tablet</td><td><span class=\"nb\">2010-04-07</span></td><td>-</td><td>1 tablet (75 mg) once daily</td><td>-</td></tr><tr><td>Simvastatin 20 mg oral tablet</td><td><span class=\"nb\">2010-04-07</span></td><td>-</td><td>1 tablet (20 mg) by mouth once daily</td><td>-</td></tr><tr><td>Nitroglycerin 400 microgram/actuation sublingual spray</td><td><span class=\"nb\">2010-04-07</span></td><td>-</td><td>400 micrograms (1 spray) sublingually as needed for chest pain, may repeat every 5 minutes as needed, up to 3 sprays in 15 minutes</td><td>-</td></tr><tr><td>Metoprolol tartrate (as metoprolol succinate) 100 mg prolonged-release oral tablet</td><td><span class=\"nb\">2010-04-07</span></td><td>-</td><td>1 tablet (100 mg) once daily</td><td>-</td></tr></table></div>"
            },
            "entry": [
              {
                "reference": "urn:uuid:636136df-cb39-4d8d-88b0-db566ecc0939"
              },
              {
                "reference": "urn:uuid:0678985e-ab14-4c42-822c-9682502dbb37"
              },
              {
                "reference": "urn:uuid:a194d640-5623-4c7f-816a-0467b042a69c"
              },
              {
                "reference": "urn:uuid:bccbb423-4c41-4982-b7b3-592a6e0a4de5"
              },
              {
                "reference": "urn:uuid:f3f3ddfa-7d8f-41ee-96bf-d4f8c5e93c8e"
              },
              {
                "reference": "urn:uuid:3dd0a662-6bcd-4eb8-9c0a-d8103d817f7a"
              },
              {
                "reference": "urn:uuid:df0173e5-d31b-483f-8f64-7973952e0aff"
              }
            ],
            "code": {
              "coding": [
                {
                  "system": "http://loinc.org",
                  "code": "10160-0",
                  "display": "History of Medication use Narrative"
                }
              ]
            },
            "title": "Medication list"
          },
          {
            "text": {
              "status": "generated",
              "div": "<div xmlns=\"http://www.w3.org/1999/xhtml\"><table class=\"hl7__ips\"><tr><th>Vaccine</th><th>Date</th></tr><tr><td>Influenza virus antigen only vaccine product</td><td><span class=\"nb\">25-Jun-2025</span></td></tr><tr><td>Clostridium tetani toxoid antigen adsorbed only vaccine product</td><td><span class=\"nb\">14-Jun-2023</span></td></tr><tr><td>SARS-CoV-2 mRNA vaccine</td><td><span class=\"nb\">30-Jun-2021</span></td></tr></table></div>"
            },
            "entry": [
              {
                "reference": "urn:uuid:3736e6b4-999f-4973-90af-03ee7f37d94f"
              },
              {
                "reference": "urn:uuid:9cb2338f-67db-4404-aef7-f3e68b4ad594"
              },
              {
                "reference": "urn:uuid:6c800036-d1ed-4a78-a37b-78053be706da"
              }
            ],
            "code": {
              "coding": [
                {
                  "system": "http://loinc.org",
                  "code": "11369-6",
                  "display": "History of Immunization note"
                }
              ]
            },
            "title": "Immunizations list"
          },
          {
            "text": {
              "status": "generated",
              "div": "<div xmlns=\"http://www.w3.org/1999/xhtml\"><table class=\"hl7__ips\"><tr><th>Procedure</th><th>Date</th><th>Reason</th></tr><tr><td>Patient evaluation and management</td><td><span class=\"nb\">11-Nov-2020</span></td><td>-</td></tr><tr><td>Complete blood count</td><td><span class=\"nb\">11-Nov-2020</span></td><td>-</td></tr><tr><td>Blood culture</td><td><span class=\"nb\">11-Nov-2020</span></td><td>-</td></tr><tr><td>Urine specimen collection</td><td><span class=\"nb\">11-Nov-2020</span></td><td>-</td></tr><tr><td>Patient discharge</td><td><span class=\"nb\">11-Nov-2020</span></td><td>-</td></tr><tr><td>Taking patient vital signs</td><td><span class=\"nb\">11-Nov-2020</span></td><td>-</td></tr><tr><td>History taking</td><td><span class=\"nb\">11-Nov-2020</span></td><td>-</td></tr><tr><td>Discussion about signs and symptoms</td><td><span class=\"nb\">11-Nov-2020</span></td><td>-</td></tr><tr><td>Antibiotic therapy</td><td><span class=\"nb\">11-Nov-2020</span></td><td>-</td></tr><tr><td>Triage: emergency center</td><td><span class=\"nb\">11-Nov-2020</span></td><td>-</td></tr><tr><td>Urinalysis with reflex to microscopy and culture</td><td><span class=\"nb\">11-Nov-2020</span></td><td>-</td></tr><tr><td>Comprehensive metabolic panel</td><td><span class=\"nb\">11-Nov-2020</span></td><td>-</td></tr><tr><td>Radiography of wrist</td><td><span class=\"nb\">19-Jun-2020</span></td><td>-</td></tr><tr><td>Bone immobilization</td><td><span class=\"nb\">19-Jun-2020</span></td><td>Fracture subluxation of wrist</td></tr><tr><td>Bone density scan</td><td><span class=\"nb\">19-Jun-2020</span></td><td>Fracture subluxation of wrist</td></tr><tr><td>Medication reconciliation</td><td><span class=\"nb\">20-Mar-2019</span></td><td>-</td></tr><tr><td>Assessment of health and social care needs</td><td><span class=\"nb\">20-Mar-2019</span></td><td>-</td></tr><tr><td>Assessment using Morse Fall Scale</td><td><span class=\"nb\">20-Mar-2019</span></td><td>-</td></tr><tr><td>Screening for domestic abuse</td><td><span class=\"nb\">20-Mar-2019</span></td><td>-</td></tr><tr><td>Pre-discharge assessment</td><td><span class=\"nb\">20-Nov-2016</span></td><td>-</td></tr><tr><td>Discharge from skilled nursing facility (procedure)</td><td><span class=\"nb\">20-Nov-2016</span></td><td>-</td></tr><tr><td>Nursing care/supplementary surveillance</td><td><span class=\"nb\">19-Nov-2016</span></td><td>-</td></tr><tr><td>Professional / ancillary services care</td><td><span class=\"nb\">17-Nov-2016</span></td><td>-</td></tr><tr><td>Physical therapy procedure</td><td><span class=\"nb\">15-Nov-2016</span></td><td>-</td></tr><tr><td>Speech and language therapy regime</td><td><span class=\"nb\">02-Nov-2016</span></td><td>-</td></tr><tr><td>Occupational therapy</td><td><span class=\"nb\">23-Oct-2016</span></td><td>-</td></tr><tr><td>History AND physical examination</td><td><span class=\"nb\">19-Oct-2016</span></td><td>-</td></tr><tr><td>Initial patient assessment</td><td><span class=\"nb\">19-Oct-2016</span></td><td>-</td></tr><tr><td>Development of individualized plan of care</td><td><span class=\"nb\">19-Oct-2016</span></td><td>-</td></tr></table></div>"
            },
            "entry": [
              {
                "reference": "urn:uuid:18a19f25-bb8c-45b8-81c0-9639fed1e438"
              },
              {
                "reference": "urn:uuid:66da12a2-b532-4dd4-befc-a6efe31520f4"
              },
              {
                "reference": "urn:uuid:43d07c85-c4fb-46de-9652-7e566a80501d"
              },
              {
                "reference": "urn:uuid:634366eb-f50e-410e-a661-39a661b91644"
              },
              {
                "reference": "urn:uuid:6ffe4ef8-4616-4df1-9559-da937d1b0b32"
              },
              {
                "reference": "urn:uuid:a6fb9849-e1a7-4784-a538-9d00efdcb6fa"
              },
              {
                "reference": "urn:uuid:f0f3a27f-c8a0-4573-847a-1e057c60d87d"
              },
              {
                "reference": "urn:uuid:ad5db3e1-b19e-4c4d-ba30-04db4365d023"
              },
              {
                "reference": "urn:uuid:753e0ffb-7625-4998-8748-c892fac1a967"
              },
              {
                "reference": "urn:uuid:485eef37-0f28-4a9f-9698-5124312e1890"
              },
              {
                "reference": "urn:uuid:35e70c74-8d8e-4916-8196-f233b7772354"
              },
              {
                "reference": "urn:uuid:1313781a-a9a7-4637-b031-c23c5df0662a"
              },
              {
                "reference": "urn:uuid:dcef4457-56dd-4637-9059-a607b38cca0a"
              },
              {
                "reference": "urn:uuid:35c5fd69-06fa-402a-ad68-cd86e4f1cdbf"
              },
              {
                "reference": "urn:uuid:e7e0295e-e88c-4f52-8e9c-92f57c7a06cb"
              },
              {
                "reference": "urn:uuid:8b583293-242c-442a-a82f-0185ce551b81"
              },
              {
                "reference": "urn:uuid:b9b1075c-4483-49da-b968-771f788a72dd"
              },
              {
                "reference": "urn:uuid:84442ca8-bd1b-4050-8f9e-bf5cbf560d4f"
              },
              {
                "reference": "urn:uuid:383b24d5-a452-410d-bc9a-2cafc7a78b5b"
              },
              {
                "reference": "urn:uuid:455160f2-a2ba-4a02-bd3d-7623fff89504"
              },
              {
                "reference": "urn:uuid:543dae31-9c7a-4d93-b651-eed977e3243f"
              },
              {
                "reference": "urn:uuid:802c3277-58f7-402d-864c-090b91d03822"
              },
              {
                "reference": "urn:uuid:7512d6aa-9f17-47e7-945a-7e06243aab96"
              },
              {
                "reference": "urn:uuid:0aeabd63-451f-4127-88c4-a1e35fe5eb4b"
              },
              {
                "reference": "urn:uuid:28313aa3-d888-4b30-aaba-5738cf881af0"
              },
              {
                "reference": "urn:uuid:4a58fafc-9cda-476a-b732-a2d1b2919b58"
              },
              {
                "reference": "urn:uuid:e8d919a7-6c9f-4a8b-b187-d45830cdad6c"
              },
              {
                "reference": "urn:uuid:4181ba4b-a49b-4170-b91f-26ccce680e4f"
              },
              {
                "reference": "urn:uuid:3d1ea738-bac4-4fd2-bfec-53606160429a"
              }
            ],
            "code": {
              "coding": [
                {
                  "system": "http://loinc.org",
                  "code": "47519-4",
                  "display": "History of Procedures Document"
                }
              ]
            },
            "title": "Procedure History list"
          },
          {
            "text": {
              "status": "generated",
              "div": "<div xmlns=\"http://www.w3.org/1999/xhtml\"><table class=\"hl7__ips\"><tr><th>Allergy/Intolerance</th><th>Onset Date</th><th>Status</th><th>Type</th><th>Reaction</th></tr><tr><td></td><td>?</td><td>active</td><td>?</td><td></td></tr></table></div>"
            },
            "entry": [
              {
                "reference": "urn:uuid:564e89a1-0baa-48cf-b173-b53a4c0e2646"
              }
            ],
            "code": {
              "coding": [
                {
                  "system": "http://loinc.org",
                  "code": "48765-2",
                  "display": "Allergies and adverse reactions Document"
                }
              ]
            },
            "title": "Allergies and Intolerances"
          },
          {
            "text": {
              "status": "generated",
              "div": "<div xmlns=\"http://www.w3.org/1999/xhtml\"><table class=\"hl7__ips\"><tr><th>Active Planned Care / Goals</th><th>Start Date</th><th>Reason</th></tr><tr><td>Diabetes self management plan</td><td><span class=\"nb\">29-Dec-1993</span></td><td>Prediabetes</td></tr><tr><td><ul><li>Patient will demonstrate understanding of prediabetes and implement recommended lifestyle modifications including diet, exercise, and blood glucose monitoring.</li><li>Maintain hemoglobin A1c below 6.5% to prevent progression to diabetes.</li><li>Achieve at least 5% reduction in body weight to improve insulin sensitivity.</li><li>Maintain blood pressure below 130/80 mmHg to reduce cardiovascular risk.</li></ul></td><td></td><td></td></tr><tr><td>Lifestyle education regarding hypertension</td><td><span class=\"nb\">20-Jul-1966</span></td><td>Essential hypertension (disorder)</td></tr><tr><td><ul><li>Maintain blood pressure below 130/80 mmHg through lifestyle modifications.</li><li>Achieve and maintain a healthy weight to assist in blood pressure control.</li><li>Limit daily sodium intake to less than 2.3 grams to help control blood pressure.</li><li>Engage in at least 150 minutes of moderate-intensity aerobic physical activity per week.</li></ul></td><td></td><td></td></tr><tr><th>Immunization Recommendation</th><th>Due Date</th><th>Reason</th></tr><tr><td>Vaccine product containing only Influenza virus antigen (medicinal product)</td><td><span class=\"nb\">01-Oct-2025</span></td><td>Annual seasonal influenza vaccination</td></tr></table></div>"
            },
            "entry": [
              {
                "reference": "urn:uuid:35695afd-03bf-4efa-8916-c04c34d68369"
              },
              {
                "reference": "urn:uuid:47ea9d79-139f-4e75-ad40-0d04cda3953f"
              },
              {
                "reference": "urn:uuid:45146649-395a-4d32-84c5-921206bfbb22"
              }
            ],
            "code": {
              "coding": [
                {
                  "system": "http://loinc.org",
                  "code": "18776-5",
                  "display": "Plan of care note"
                }
              ]
            },
            "title": "Care Plan"
          },
          {
            "text": {
              "status": "generated",
              "div": "<div xmlns=\"http://www.w3.org/1999/xhtml\"><table class=\"hl7__ips\"><tr><th>Vital Signs</th><th>2025-06-25</th><th>2025-04-02</th></tr><tr><td>Body Height</td><td>172.2 cm</td><td>172.2 cm</td></tr><tr><td>Pain severity - 0-10 verbal numeric rating [Score] - Reported</td><td>3 {score}</td><td>0 {score}</td></tr><tr><td>Body Weight</td><td>81.9 kg</td><td>81.9 kg</td></tr><tr><td>Body mass index (BMI) [Ratio]</td><td>27.6 kg/m2</td><td>27.6 kg/m2</td></tr><tr><td>Diastolic Blood Pressure</td><td>78 mm[Hg]</td><td>74 mm[Hg]</td></tr><tr><td>Systolic Blood Pressure</td><td>106 mm[Hg]</td><td>113 mm[Hg]</td></tr><tr><td>Heart rate</td><td>95 /min</td><td>78 /min</td></tr><tr><td>Respiratory rate</td><td>12 /min</td><td>14 /min</td></tr></table></div>"
            },
            "entry": [
              {
                "reference": "urn:uuid:bc745af9-eae3-4956-b6d6-d895b23da1dc"
              },
              {
                "reference": "urn:uuid:eaabb48d-41cc-496c-907b-40b0dabac7a0"
              },
              {
                "reference": "urn:uuid:9cce449f-f9d9-4a99-9a1f-49704be4ad41"
              },
              {
                "reference": "urn:uuid:770197c4-a4a4-44d0-81b4-accf7aabcaaf"
              },
              {
                "reference": "urn:uuid:469c6cae-4c0f-417a-8690-24502370b742"
              },
              {
                "reference": "urn:uuid:519d4f3e-a683-4eb9-9ede-adb3231f56d4"
              },
              {
                "reference": "urn:uuid:5e86cf09-145b-46f0-afb6-56c8c6b4954d"
              },
              {
                "reference": "urn:uuid:d53ada5a-eea9-4d17-ba40-eafb3e33217b"
              },
              {
                "reference": "urn:uuid:068fca65-1b26-44ac-a639-2ded97af5c7b"
              },
              {
                "reference": "urn:uuid:e2fb4df3-6ab3-4901-a54d-2da88155f352"
              },
              {
                "reference": "urn:uuid:efe9e2eb-d262-472a-a69a-5484131af3d1"
              },
              {
                "reference": "urn:uuid:c6bfb7ff-0d71-4951-b425-97907be1c189"
              },
              {
                "reference": "urn:uuid:92936dca-5256-4a38-b082-e757e119bf37"
              },
              {
                "reference": "urn:uuid:f4131df5-d4ac-436b-b5ff-684191dcc809"
              },
              {
                "reference": "urn:uuid:fb4ced59-6488-4143-bbe9-0fce160671d9"
              },
              {
                "reference": "urn:uuid:e069fd55-a9e7-44d7-a79a-135ebfe65e3a"
              }
            ],
            "code": {
              "coding": [
                {
                  "system": "http://loinc.org",
                  "code": "8716-3",
                  "display": "Vital signs note"
                }
              ]
            },
            "title": "Vital Signs"
          },
          {
            "text": {
              "status": "generated",
              "div": "<div xmlns=\"http://www.w3.org/1999/xhtml\"><table class=\"hl7__ips\"><table class=\"hl7__ips\"><thead><tr><th>Recent Lab Observations</th><th>25-JUN-2025</th><th>Reference&#xA0;Range</th><th>Unit</th></tr></thead><tbody><tr><td>Hemoglobin A1c/Hemoglobin.total in Blood</td><td><strong>5.9 H</strong></td><td>3.8 - 5.7</td><td>%</td></tr><tr><td>Glucose [Mass/volume] in Blood</td><td><strong>65.4 L</strong></td><td>70 - 140</td><td>mg/dL</td></tr><tr><td>Urea nitrogen [Mass/volume] in Blood</td><td>12.9</td><td>7 - 20</td><td>mg/dL</td></tr><tr><td>Creatinine [Mass/volume] in Blood</td><td><strong>0.8 L</strong></td><td>0.9 - 1.3</td><td>mg/dL</td></tr><tr><td>Calcium [Mass/volume] in Blood</td><td>9.4</td><td>8.5 - 10.5</td><td>mg/dL</td></tr><tr><td>Sodium [Moles/volume] in Blood</td><td>137.1</td><td>135 - 145</td><td>mmol/L</td></tr><tr><td>Potassium [Moles/volume] in Blood</td><td>4.8</td><td>3.5 - 5.3</td><td>mmol/L</td></tr><tr><td>Chloride [Moles/volume] in Blood</td><td>105.2</td><td>98 - 109</td><td>mmol/L</td></tr><tr><td>Carbon dioxide, total [Moles/volume] in Blood</td><td>22.5</td><td>22 - 32</td><td>mmol/L</td></tr><tr><td>Leukocytes [#/volume] in Blood by Automated count</td><td>9.9</td><td>4 - 11</td><td>10*3/uL</td></tr><tr><td>Erythrocytes [#/volume] in Blood by Automated count</td><td><strong>4.0 L</strong></td><td>4.3 - 6.1</td><td>10*6/uL</td></tr><tr><td>Hemoglobin [Mass/volume] in Blood</td><td>16.9</td><td>13.5 - 17.5</td><td>g/dL</td></tr><tr><td>Hematocrit [Volume Fraction] of Blood by Automated count</td><td>42.6</td><td>37 - 52</td><td>%</td></tr><tr><td>MCV [Entitic volume] by Automated count</td><td>91.2</td><td>76 - 98</td><td>fL</td></tr><tr><td>MCH [Entitic mass] by Automated count</td><td>31.3</td><td>27 - 34</td><td>pg</td></tr><tr><td>MCHC [Mass/volume] by Automated count</td><td>35.5</td><td>31 - 36</td><td>g/dL</td></tr><tr><td>Erythrocyte distribution width [Entitic volume] by Automated count</td><td>40.3</td><td>39 - 55</td><td>fL</td></tr><tr><td>Platelets [#/volume] in Blood by Automated count</td><td>191.7</td><td>140 - 424</td><td>10*3/uL</td></tr><tr><td>Platelet distribution width [Entitic volume] in Blood by Automated count</td><td><strong>309.3 H</strong></td><td>13.4 - 17.4</td><td>fL</td></tr><tr><td>Platelet mean volume [Entitic volume] in Blood by Automated count</td><td>11.3</td><td>7.2 - 13.8</td><td>fL</td></tr></tbody></table></table></div>"
            },
            "entry": [
              {
                "reference": "urn:uuid:ef338a7b-c947-420b-b415-12fb348da0c9"
              },
              {
                "reference": "urn:uuid:0d549799-a5d2-4e46-880f-392ac55cda3a"
              },
              {
                "reference": "urn:uuid:25fd4d64-b9a9-4f84-a7a8-495bf486b7f5"
              },
              {
                "reference": "urn:uuid:56a1bd1b-39f0-453f-98fc-16b04053177e"
              },
              {
                "reference": "urn:uuid:892dfdea-0302-4e58-891a-b476ba21cf42"
              },
              {
                "reference": "urn:uuid:917721f3-9ec5-4170-9150-f4bde0494d52"
              },
              {
                "reference": "urn:uuid:2d41b11c-37fc-4356-9e89-54ac334907c2"
              },
              {
                "reference": "urn:uuid:61ab3ba5-ca50-4022-b441-c7df92f8d6e8"
              },
              {
                "reference": "urn:uuid:9faaaa6f-0a4d-4c16-85a7-df014e204f01"
              },
              {
                "reference": "urn:uuid:671056bf-9328-415e-82c9-ce51527cafc7"
              },
              {
                "reference": "urn:uuid:d658a2de-9842-44c4-8791-5b32d431b4da"
              },
              {
                "reference": "urn:uuid:25286cea-c7ce-4a95-bf93-c042e61b7134"
              },
              {
                "reference": "urn:uuid:acdc051c-72bf-4c26-83df-2b0212916a7f"
              },
              {
                "reference": "urn:uuid:b3bf3357-ac54-4dc9-91d0-22321014f3b6"
              },
              {
                "reference": "urn:uuid:12b92fff-e129-4efd-bc4b-18bfb38454b7"
              },
              {
                "reference": "urn:uuid:19e091f8-0d77-416c-b5df-4a889919114a"
              },
              {
                "reference": "urn:uuid:ef0a3149-c27e-41ad-8566-6222f383e2f1"
              },
              {
                "reference": "urn:uuid:24d3c898-d160-4d13-91fd-07f52e893d23"
              },
              {
                "reference": "urn:uuid:23e09e73-5b42-460c-84ba-35b6e2725ab0"
              },
              {
                "reference": "urn:uuid:4f05e47b-bd14-4597-ba2e-5a014c069ab8"
              }
            ],
            "code": {
              "coding": [
                {
                  "system": "http://loinc.org",
                  "code": "30954-2",
                  "display": "Relevant diagnostic tests/laboratory data note"
                }
              ]
            },
            "title": "Relevant diagnostic tests/laboratory data"
          },
          {
            "text": {
              "status": "generated",
              "div": "<div xmlns=\"http://www.w3.org/1999/xhtml\"><table class=\"hl7__ips\"><tr><th>Device</th><th>Date (since)</th></tr><tr><td>Blood glucose meter (physical object)</td><td><span class=\"nb\">29-Dec-1993</span></td></tr><tr><td>Home nebulizer (physical object)</td><td><span class=\"nb\">10-Jul-1966</span></td></tr></table></div>"
            },
            "entry": [
              {
                "reference": "urn:uuid:811f7222-ae1e-45a2-992d-d8c5e4bb51ea"
              },
              {
                "reference": "urn:uuid:4a2968ac-aa45-4524-88ea-98c78d0be00f"
              }
            ],
            "code": {
              "coding": [
                {
                  "system": "http://loinc.org",
                  "code": "46264-8",
                  "display": "History of medical device use"
                }
              ]
            },
            "title": "Device Use"
          }
        ],
        "title": "European Patient Summary",
        "status": "final",
        "subject": {
          "reference": "urn:uuid:d578fe6b-083c-4d99-98b9-ed5b7d6d585b",
          "display": "Lazăr Florea"
        },
        "custodian": {
          "reference": "urn:uuid:30b12ab0-55e3-41cb-bc24-e2cbf8cc50a8"
        },
        "date": "2025-06-25",
        "confidentiality": "N"
      }
    },
    {
      "fullUrl": "urn:uuid:d578fe6b-083c-4d99-98b9-ed5b7d6d585b",
      "resource": {
        "resourceType": "Patient",
        "id": "d578fe6b-083c-4d99-98b9-ed5b7d6d585b",
        "meta": {
          "security": [
            {
              "system": "http://terminology.hl7.org/CodeSystem/v3-ActReason",
              "code": "HTEST"
            },
            {
              "system": "http://terminology.hl7.org/CodeSystem/v3-ActReason",
              "code": "TRAIN"
            }
          ],
          "tag": [
            {
              "system": "https://synderai.net/fhir/CodeSystem/tags",
              "code": "synthetic",
              "display": "SYNDERAI Synthetic data"
            }
          ],
          "profile": [
            "http://hl7.eu/fhir/eps/StructureDefinition/patient-eu-eps"
          ]
        },
        "identifier": [
          {
            "type": {
              "coding": [
                {
                  "code": "PT",
                  "system": "http://terminology.hl7.org/CodeSystem/v2-0203"
                }
              ]
            },
            "system": "http://ec.europa.eu/identifier/eci",
            "value": "8693-862290-8"
          },
          {
            "type": {
              "coding": [
                {
                  "code": "MR",
                  "system": "http://terminology.hl7.org/CodeSystem/v2-0203"
                }
              ]
            },
            "system": "http://local.setting.eu/identifier",
            "value": "602fbbf5-967b-6d86-a533-5cec24b13e71"
          }
        ],
        "name": [
          {
            "family": "Florea"
          },
          {
            "given": [
              "Lazăr"
            ]
          },
          {
            "text": "Lazăr Florea"
          }
        ],
        "address": [
          {
            "line": [
              "Drumul Grațian Nistor"
            ],
            "use": "home",
            "type": "physical",
            "postalCode": "265300",
            "city": "Lupeni",
            "country": "Romania"
          }
        ],
        "telecom": [
          {
            "system": "phone",
            "value": "0753 950 380"
          }
        ],
        "extension": [
          {
            "url": "http://hl7.org/fhir/StructureDefinition/patient-nationality",
            "valueCodeableConcept": {
              "coding": [
                {
                  "code": "RO",
                  "system": "http://hl7.org/fhir/ValueSet/country"
                }
              ]
            }
          }
        ],
        "text": {
          "status": "generated",
          "div": "<div xmlns=\"http://www.w3.org/1999/xhtml\"><table class=\"hl7__ips\"><tr><td>Lazăr Florea</td><td>male</td><td>10-Feb-1946</td></tr></table></div>"
        },
        "gender": "male",
        "birthDate": "1946-02-10"
      }
    },
    {
      "fullUrl": "urn:uuid:6702cff5-8631-4a92-bd87-a3fb49433715",
      "resource": {
        "resourceType": "PractitionerRole",
        "id": "6702cff5-8631-4a92-bd87-a3fb49433715",
        "meta": {
          "profile": [
            "http://hl7.eu/fhir/base/StructureDefinition/practitionerRole-eu"
          ]
        },
        "text": {
          "status": "generated",
          "div": "<div xmlns=\"http://www.w3.org/1999/xhtml\"><table class=\"hl7__ips\">Provider Role Id 6702cff5-8631-4a92-bd87-a3fb49433715</table></div>"
        },
        "practitioner": {
          "reference": "urn:uuid:11b0fab1-adc7-48fa-8ba1-75c819ba3d22"
        },
        "organization": {
          "reference": "urn:uuid:30b12ab0-55e3-41cb-bc24-e2cbf8cc50a8"
        }
      }
    },
    {
      "fullUrl": "urn:uuid:11b0fab1-adc7-48fa-8ba1-75c819ba3d22",
      "resource": {
        "resourceType": "Practitioner",
        "id": "11b0fab1-adc7-48fa-8ba1-75c819ba3d22",
        "meta": {
          "profile": [
            "http://hl7.eu/fhir/base/StructureDefinition/practitioner-eu"
          ]
        },
        "name": [
          {
            "prefix": [
              "Dr."
            ],
            "given": [
              "Hel"
            ],
            "family": "Ping"
          }
        ],
        "text": {
          "status": "generated",
          "div": "<div xmlns=\"http://www.w3.org/1999/xhtml\"><table class=\"hl7__ips\">Dr. Hel Ping</table></div>"
        }
      }
    },
    {
      "fullUrl": "urn:uuid:30b12ab0-55e3-41cb-bc24-e2cbf8cc50a8",
      "resource": {
        "resourceType": "Organization",
        "id": "30b12ab0-55e3-41cb-bc24-e2cbf8cc50a8",
        "meta": {
          "profile": [
            "http://hl7.eu/fhir/base/StructureDefinition/organization-eu"
          ]
        },
        "identifier": [
          {
            "assigner": {
              "display": "HL7 Europe"
            },
            "system": "urn:oid:2.16.840.1.113883.2.51.999",
            "value": "8db45b3e-0b9e-4236-9f4f-05b63cbad2ff"
          }
        ],
        "address": [
          {
            "line": [
              "Strada 1 Decembrie 1918 137 A"
            ],
            "city": "Petroșani",
            "postalCode": "332019",
            "country": "Romania"
          }
        ],
        "text": {
          "status": "generated",
          "div": "<div xmlns=\"http://www.w3.org/1999/xhtml\"><table class=\"hl7__ips\">Spitalul de Urgență</table></div>"
        },
        "name": "Spitalul de Urgență"
      }
    },
    {
      "fullUrl": "urn:uuid:3b463501-5d49-4b63-a440-00c4f757d280",
      "resource": {
        "resourceType": "Condition",
        "id": "3b463501-5d49-4b63-a440-00c4f757d280",
        "meta": {
          "profile": [
            "http://hl7.org/fhir/uv/ips/StructureDefinition/Condition-uv-ips"
          ]
        },
        "category": [
          {
            "coding": [
              {
                "code": "problem-list-item",
                "system": "http://terminology.hl7.org/CodeSystem/condition-category",
                "display": "Problem List Item"
              }
            ]
          }
        ],
        "code": {
          "coding": [
            {
              "code": "197927001",
              "system": "http://snomed.info/sct",
              "display": "Recurrent urinary tract infection (disorder)"
            }
          ],
          "text": "Recurrent urinary tract infection"
        },
        "text": {
          "status": "generated",
          "div": "<div xmlns=\"http://www.w3.org/1999/xhtml\"><table class=\"hl7__ips\"><tr><td>Recurrent urinary tract infection</td><td><span class=\"nb\">11-Nov-2020</span></td><td>active</td></tr></table></div>"
        },
        "onsetDateTime": "2020-11-11",
        "subject": {
          "reference": "urn:uuid:",
          "display": "Lazăr Florea"
        },
        "asserter": {
          "reference": "urn:uuid:",
          "display": "Spitalul de Urgență"
        }
      }
    },
    {
      "fullUrl": "urn:uuid:0f4e836c-8d75-44dd-b852-6a3a23a8f81a",
      "resource": {
        "resourceType": "Condition",
        "id": "0f4e836c-8d75-44dd-b852-6a3a23a8f81a",
        "meta": {
          "profile": [
            "http://hl7.org/fhir/uv/ips/StructureDefinition/Condition-uv-ips"
          ]
        },
        "category": [
          {
            "coding": [
              {
                "code": "problem-list-item",
                "system": "http://terminology.hl7.org/CodeSystem/condition-category",
                "display": "Problem List Item"
              }
            ]
          }
        ],
        "code": {
          "coding": [
            {
              "code": "414545008",
              "system": "http://snomed.info/sct",
              "display": "Ischemic heart disease (disorder)"
            }
          ],
          "text": "Ischemic heart disease"
        },
        "text": {
          "status": "generated",
          "div": "<div xmlns=\"http://www.w3.org/1999/xhtml\"><table class=\"hl7__ips\"><tr><td>Ischemic heart disease</td><td><span class=\"nb\">31-Mar-2010</span></td><td>active</td></tr></table></div>"
        },
        "onsetDateTime": "2010-03-31",
        "subject": {
          "reference": "urn:uuid:",
          "display": "Lazăr Florea"
        },
        "asserter": {
          "reference": "urn:uuid:",
          "display": "Spitalul de Urgență"
        }
      }
    },
    {
      "fullUrl": "urn:uuid:ebb7e7f8-4683-481c-a163-c8d038fcc6e0",
      "resource": {
        "resourceType": "Condition",
        "id": "ebb7e7f8-4683-481c-a163-c8d038fcc6e0",
        "meta": {
          "profile": [
            "http://hl7.org/fhir/uv/ips/StructureDefinition/Condition-uv-ips"
          ]
        },
        "category": [
          {
            "coding": [
              {
                "code": "problem-list-item",
                "system": "http://terminology.hl7.org/CodeSystem/condition-category",
                "display": "Problem List Item"
              }
            ]
          }
        ],
        "code": {
          "coding": [
            {
              "code": "237602007",
              "system": "http://snomed.info/sct",
              "display": "Metabolic syndrome X (disorder)"
            }
          ],
          "text": "Metabolic syndrome X"
        },
        "text": {
          "status": "generated",
          "div": "<div xmlns=\"http://www.w3.org/1999/xhtml\"><table class=\"hl7__ips\"><tr><td>Metabolic syndrome X</td><td><span class=\"nb\">15-Jan-1997</span></td><td>active</td></tr></table></div>"
        },
        "onsetDateTime": "1997-01-15",
        "subject": {
          "reference": "urn:uuid:",
          "display": "Lazăr Florea"
        },
        "asserter": {
          "reference": "urn:uuid:",
          "display": "Spitalul de Urgență"
        }
      }
    },
    {
      "fullUrl": "urn:uuid:97bc61d0-2e75-4656-9037-d423b783f274",
      "resource": {
        "resourceType": "Condition",
        "id": "97bc61d0-2e75-4656-9037-d423b783f274",
        "meta": {
          "profile": [
            "http://hl7.org/fhir/uv/ips/StructureDefinition/Condition-uv-ips"
          ]
        },
        "category": [
          {
            "coding": [
              {
                "code": "problem-list-item",
                "system": "http://terminology.hl7.org/CodeSystem/condition-category",
                "display": "Problem List Item"
              }
            ]
          }
        ],
        "code": {
          "coding": [
            {
              "code": "271737000",
              "system": "http://snomed.info/sct",
              "display": "Anemia (disorder)"
            }
          ],
          "text": "Anemia"
        },
        "text": {
          "status": "generated",
          "div": "<div xmlns=\"http://www.w3.org/1999/xhtml\"><table class=\"hl7__ips\"><tr><td>Anemia</td><td><span class=\"nb\">04-Jan-1995</span></td><td>active</td></tr></table></div>"
        },
        "onsetDateTime": "1995-01-04",
        "subject": {
          "reference": "urn:uuid:",
          "display": "Lazăr Florea"
        },
        "asserter": {
          "reference": "urn:uuid:",
          "display": "Spitalul de Urgență"
        }
      }
    },
    {
      "fullUrl": "urn:uuid:2c426ea6-3bde-4148-8692-9248adc2a5be",
      "resource": {
        "resourceType": "Condition",
        "id": "2c426ea6-3bde-4148-8692-9248adc2a5be",
        "meta": {
          "profile": [
            "http://hl7.org/fhir/uv/ips/StructureDefinition/Condition-uv-ips"
          ]
        },
        "category": [
          {
            "coding": [
              {
                "code": "problem-list-item",
                "system": "http://terminology.hl7.org/CodeSystem/condition-category",
                "display": "Problem List Item"
              }
            ]
          }
        ],
        "code": {
          "coding": [
            {
              "code": "15777000",
              "system": "http://snomed.info/sct",
              "display": "Prediabetes (disorder)"
            }
          ],
          "text": "Prediabetes"
        },
        "text": {
          "status": "generated",
          "div": "<div xmlns=\"http://www.w3.org/1999/xhtml\"><table class=\"hl7__ips\"><tr><td>Prediabetes</td><td><span class=\"nb\">29-Dec-1993</span></td><td>active</td></tr></table></div>"
        },
        "onsetDateTime": "1993-12-29",
        "subject": {
          "reference": "urn:uuid:",
          "display": "Lazăr Florea"
        },
        "asserter": {
          "reference": "urn:uuid:",
          "display": "Spitalul de Urgență"
        }
      }
    },
    {
      "fullUrl": "urn:uuid:b5c4f10b-7ee6-4b48-868b-b851c2857e38",
      "resource": {
        "resourceType": "Condition",
        "id": "b5c4f10b-7ee6-4b48-868b-b851c2857e38",
        "meta": {
          "profile": [
            "http://hl7.org/fhir/uv/ips/StructureDefinition/Condition-uv-ips"
          ]
        },
        "category": [
          {
            "coding": [
              {
                "code": "problem-list-item",
                "system": "http://terminology.hl7.org/CodeSystem/condition-category",
                "display": "Problem List Item"
              }
            ]
          }
        ],
        "code": {
          "coding": [
            {
              "code": "59621000",
              "system": "http://snomed.info/sct",
              "display": "Essential hypertension (disorder)"
            }
          ],
          "text": "Essential hypertension"
        },
        "text": {
          "status": "generated",
          "div": "<div xmlns=\"http://www.w3.org/1999/xhtml\"><table class=\"hl7__ips\"><tr><td>Essential hypertension</td><td><span class=\"nb\">20-Jul-1966</span></td><td>active</td></tr></table></div>"
        },
        "onsetDateTime": "1966-07-20",
        "subject": {
          "reference": "urn:uuid:",
          "display": "Lazăr Florea"
        },
        "asserter": {
          "reference": "urn:uuid:",
          "display": "Spitalul de Urgență"
        }
      }
    },
    {
      "fullUrl": "urn:uuid:ef0b7c5e-8a99-4968-8f23-e00caa962d3a",
      "resource": {
        "resourceType": "Condition",
        "id": "ef0b7c5e-8a99-4968-8f23-e00caa962d3a",
        "meta": {
          "profile": [
            "http://hl7.org/fhir/uv/ips/StructureDefinition/Condition-uv-ips"
          ]
        },
        "category": [
          {
            "coding": [
              {
                "code": "problem-list-item",
                "system": "http://terminology.hl7.org/CodeSystem/condition-category",
                "display": "Problem List Item"
              }
            ]
          }
        ],
        "code": {
          "coding": [
            {
              "code": "40055000",
              "system": "http://snomed.info/sct",
              "display": "Chronic sinusitis (disorder)"
            }
          ],
          "text": "Chronic sinusitis"
        },
        "text": {
          "status": "generated",
          "div": "<div xmlns=\"http://www.w3.org/1999/xhtml\"><table class=\"hl7__ips\"><tr><td>Chronic sinusitis</td><td><span class=\"nb\">10-Jul-1966</span></td><td>active</td></tr></table></div>"
        },
        "onsetDateTime": "1966-07-10",
        "subject": {
          "reference": "urn:uuid:",
          "display": "Lazăr Florea"
        },
        "asserter": {
          "reference": "urn:uuid:",
          "display": "Spitalul de Urgență"
        }
      }
    },
    {
      "fullUrl": "urn:uuid:9bd8ba7a-68e2-4f53-9a65-2a0783e2b252",
      "resource": {
        "resourceType": "Condition",
        "id": "9bd8ba7a-68e2-4f53-9a65-2a0783e2b252",
        "meta": {
          "profile": [
            "http://hl7.org/fhir/uv/ips/StructureDefinition/Condition-uv-ips"
          ]
        },
        "category": [
          {
            "coding": [
              {
                "code": "problem-list-item",
                "system": "http://terminology.hl7.org/CodeSystem/condition-category",
                "display": "Problem List Item"
              }
            ]
          }
        ],
        "code": {
          "coding": [
            {
              "code": "444814009",
              "system": "http://snomed.info/sct",
              "display": "Viral sinusitis (disorder)"
            }
          ],
          "text": "Viral sinusitis"
        },
        "text": {
          "status": "generated",
          "div": "<div xmlns=\"http://www.w3.org/1999/xhtml\"><table class=\"hl7__ips\"><tr><td><span class=\"grayedout\">Viral sinusitis</span></td><td><span class=\"nb\">09-Apr-2025 - 03-May-2025</span></td><td><span class=\"grayedout\">inactive</span></td></tr></table></div>"
        },
        "onsetDateTime": "2025-04-09",
        "abatementDateTime": "2025-05-03",
        "subject": {
          "reference": "urn:uuid:",
          "display": "Lazăr Florea"
        },
        "asserter": {
          "reference": "urn:uuid:",
          "display": "Spitalul de Urgență"
        }
      }
    },
    {
      "fullUrl": "urn:uuid:e5413be9-8546-4ac1-ad3c-869d3a11a516",
      "resource": {
        "resourceType": "Condition",
        "id": "e5413be9-8546-4ac1-ad3c-869d3a11a516",
        "meta": {
          "profile": [
            "http://hl7.org/fhir/uv/ips/StructureDefinition/Condition-uv-ips"
          ]
        },
        "category": [
          {
            "coding": [
              {
                "code": "problem-list-item",
                "system": "http://terminology.hl7.org/CodeSystem/condition-category",
                "display": "Problem List Item"
              }
            ]
          }
        ],
        "code": {
          "coding": [
            {
              "code": "444814009",
              "system": "http://snomed.info/sct",
              "display": "Viral sinusitis (disorder)"
            }
          ],
          "text": "Viral sinusitis"
        },
        "text": {
          "status": "generated",
          "div": "<div xmlns=\"http://www.w3.org/1999/xhtml\"><table class=\"hl7__ips\"><tr><td><span class=\"grayedout\">Viral sinusitis</span></td><td><span class=\"nb\">15-Jul-2023 - 31-Jul-2023</span></td><td><span class=\"grayedout\">inactive</span></td></tr></table></div>"
        },
        "onsetDateTime": "2023-07-15",
        "abatementDateTime": "2023-07-31",
        "subject": {
          "reference": "urn:uuid:",
          "display": "Lazăr Florea"
        },
        "asserter": {
          "reference": "urn:uuid:",
          "display": "Spitalul de Urgență"
        }
      }
    },
    {
      "fullUrl": "urn:uuid:5a3a8fd9-f85c-4c1e-af09-870ea5b0f44f",
      "resource": {
        "resourceType": "Condition",
        "id": "5a3a8fd9-f85c-4c1e-af09-870ea5b0f44f",
        "meta": {
          "profile": [
            "http://hl7.org/fhir/uv/ips/StructureDefinition/Condition-uv-ips"
          ]
        },
        "category": [
          {
            "coding": [
              {
                "code": "problem-list-item",
                "system": "http://terminology.hl7.org/CodeSystem/condition-category",
                "display": "Problem List Item"
              }
            ]
          }
        ],
        "code": {
          "coding": [
            {
              "code": "195662009",
              "system": "http://snomed.info/sct",
              "display": "Acute viral pharyngitis (disorder)"
            }
          ],
          "text": "Acute viral pharyngitis"
        },
        "text": {
          "status": "generated",
          "div": "<div xmlns=\"http://www.w3.org/1999/xhtml\"><table class=\"hl7__ips\"><tr><td><span class=\"grayedout\">Acute viral pharyngitis</span></td><td><span class=\"nb\">15-Jun-2022 - 27-Jun-2022</span></td><td><span class=\"grayedout\">inactive</span></td></tr></table></div>"
        },
        "onsetDateTime": "2022-06-15",
        "abatementDateTime": "2022-06-27",
        "subject": {
          "reference": "urn:uuid:",
          "display": "Lazăr Florea"
        },
        "asserter": {
          "reference": "urn:uuid:",
          "display": "Spitalul de Urgență"
        }
      }
    },
    {
      "fullUrl": "urn:uuid:fcaa6077-c183-43d6-af7d-e2972388487d",
      "resource": {
        "resourceType": "Condition",
        "id": "fcaa6077-c183-43d6-af7d-e2972388487d",
        "meta": {
          "profile": [
            "http://hl7.org/fhir/uv/ips/StructureDefinition/Condition-uv-ips"
          ]
        },
        "category": [
          {
            "coding": [
              {
                "code": "problem-list-item",
                "system": "http://terminology.hl7.org/CodeSystem/condition-category",
                "display": "Problem List Item"
              }
            ]
          }
        ],
        "code": {
          "coding": [
            {
              "code": "195662009",
              "system": "http://snomed.info/sct",
              "display": "Acute viral pharyngitis (disorder)"
            }
          ],
          "text": "Acute viral pharyngitis"
        },
        "text": {
          "status": "generated",
          "div": "<div xmlns=\"http://www.w3.org/1999/xhtml\"><table class=\"hl7__ips\"><tr><td><span class=\"grayedout\">Acute viral pharyngitis</span></td><td><span class=\"nb\">25-Jun-2021 - 04-Jul-2021</span></td><td><span class=\"grayedout\">inactive</span></td></tr></table></div>"
        },
        "onsetDateTime": "2021-06-25",
        "abatementDateTime": "2021-07-04",
        "subject": {
          "reference": "urn:uuid:",
          "display": "Lazăr Florea"
        },
        "asserter": {
          "reference": "urn:uuid:",
          "display": "Spitalul de Urgență"
        }
      }
    },
    {
      "fullUrl": "urn:uuid:75207db2-2cc0-49f0-8d73-21cefa79cbcb",
      "resource": {
        "resourceType": "Condition",
        "id": "75207db2-2cc0-49f0-8d73-21cefa79cbcb",
        "meta": {
          "profile": [
            "http://hl7.org/fhir/uv/ips/StructureDefinition/Condition-uv-ips"
          ]
        },
        "category": [
          {
            "coding": [
              {
                "code": "problem-list-item",
                "system": "http://terminology.hl7.org/CodeSystem/condition-category",
                "display": "Problem List Item"
              }
            ]
          }
        ],
        "code": {
          "coding": [
            {
              "code": "444814009",
              "system": "http://snomed.info/sct",
              "display": "Viral sinusitis (disorder)"
            }
          ],
          "text": "Viral sinusitis"
        },
        "text": {
          "status": "generated",
          "div": "<div xmlns=\"http://www.w3.org/1999/xhtml\"><table class=\"hl7__ips\"><tr><td><span class=\"grayedout\">Viral sinusitis</span></td><td><span class=\"nb\">11-Dec-2020 - 20-Dec-2020</span></td><td><span class=\"grayedout\">inactive</span></td></tr></table></div>"
        },
        "onsetDateTime": "2020-12-11",
        "abatementDateTime": "2020-12-20",
        "subject": {
          "reference": "urn:uuid:",
          "display": "Lazăr Florea"
        },
        "asserter": {
          "reference": "urn:uuid:",
          "display": "Spitalul de Urgență"
        }
      }
    },
    {
      "fullUrl": "urn:uuid:3f632ce2-ae5f-44a4-9a8b-2ea2bace8868",
      "resource": {
        "resourceType": "Condition",
        "id": "3f632ce2-ae5f-44a4-9a8b-2ea2bace8868",
        "meta": {
          "profile": [
            "http://hl7.org/fhir/uv/ips/StructureDefinition/Condition-uv-ips"
          ]
        },
        "category": [
          {
            "coding": [
              {
                "code": "problem-list-item",
                "system": "http://terminology.hl7.org/CodeSystem/condition-category",
                "display": "Problem List Item"
              }
            ]
          }
        ],
        "code": {
          "coding": [
            {
              "code": "45816000",
              "system": "http://snomed.info/sct",
              "display": "Pyelonephritis (disorder)"
            }
          ],
          "text": "Pyelonephritis"
        },
        "text": {
          "status": "generated",
          "div": "<div xmlns=\"http://www.w3.org/1999/xhtml\"><table class=\"hl7__ips\"><tr><td><span class=\"grayedout\">Pyelonephritis</span></td><td><span class=\"nb\">11-Nov-2020 - 12-Nov-2020</span></td><td><span class=\"grayedout\">inactive</span></td></tr></table></div>"
        },
        "onsetDateTime": "2020-11-11",
        "abatementDateTime": "2020-11-12",
        "subject": {
          "reference": "urn:uuid:",
          "display": "Lazăr Florea"
        },
        "asserter": {
          "reference": "urn:uuid:",
          "display": "Spitalul de Urgență"
        }
      }
    },
    {
      "fullUrl": "urn:uuid:a886e575-c033-4b69-b8b2-82b7547151fb",
      "resource": {
        "resourceType": "Condition",
        "id": "a886e575-c033-4b69-b8b2-82b7547151fb",
        "meta": {
          "profile": [
            "http://hl7.org/fhir/uv/ips/StructureDefinition/Condition-uv-ips"
          ]
        },
        "category": [
          {
            "coding": [
              {
                "code": "problem-list-item",
                "system": "http://terminology.hl7.org/CodeSystem/condition-category",
                "display": "Problem List Item"
              }
            ]
          }
        ],
        "code": {
          "coding": [
            {
              "code": "307426000",
              "system": "http://snomed.info/sct",
              "display": "Acute infective cystitis (disorder)"
            }
          ],
          "text": "Acute infective cystitis"
        },
        "text": {
          "status": "generated",
          "div": "<div xmlns=\"http://www.w3.org/1999/xhtml\"><table class=\"hl7__ips\"><tr><td><span class=\"grayedout\">Acute infective cystitis</span></td><td><span class=\"nb\">13-Jul-2020 - 14-Jul-2020</span></td><td><span class=\"grayedout\">inactive</span></td></tr></table></div>"
        },
        "onsetDateTime": "2020-07-13",
        "abatementDateTime": "2020-07-14",
        "subject": {
          "reference": "urn:uuid:",
          "display": "Lazăr Florea"
        },
        "asserter": {
          "reference": "urn:uuid:",
          "display": "Spitalul de Urgență"
        }
      }
    },
    {
      "fullUrl": "urn:uuid:ecb42364-7b9c-4dc2-b141-e98bfb26c5b1",
      "resource": {
        "resourceType": "Condition",
        "id": "ecb42364-7b9c-4dc2-b141-e98bfb26c5b1",
        "meta": {
          "profile": [
            "http://hl7.org/fhir/uv/ips/StructureDefinition/Condition-uv-ips"
          ]
        },
        "category": [
          {
            "coding": [
              {
                "code": "problem-list-item",
                "system": "http://terminology.hl7.org/CodeSystem/condition-category",
                "display": "Problem List Item"
              }
            ]
          }
        ],
        "code": {
          "coding": [
            {
              "code": "125605004",
              "system": "http://snomed.info/sct",
              "display": "Fracture of bone (disorder)"
            }
          ],
          "text": "Fracture of bone"
        },
        "text": {
          "status": "generated",
          "div": "<div xmlns=\"http://www.w3.org/1999/xhtml\"><table class=\"hl7__ips\"><tr><td><span class=\"grayedout\">Fracture of bone</span></td><td><span class=\"nb\">19-Jun-2020 - 27-Jul-2020</span></td><td><span class=\"grayedout\">inactive</span></td></tr></table></div>"
        },
        "onsetDateTime": "2020-06-19",
        "abatementDateTime": "2020-07-27",
        "subject": {
          "reference": "urn:uuid:",
          "display": "Lazăr Florea"
        },
        "asserter": {
          "reference": "urn:uuid:",
          "display": "Spitalul de Urgență"
        }
      }
    },
    {
      "fullUrl": "urn:uuid:dc236d2f-aba8-437d-9525-179e7ef38e96",
      "resource": {
        "resourceType": "Condition",
        "id": "dc236d2f-aba8-437d-9525-179e7ef38e96",
        "meta": {
          "profile": [
            "http://hl7.org/fhir/uv/ips/StructureDefinition/Condition-uv-ips"
          ]
        },
        "category": [
          {
            "coding": [
              {
                "code": "problem-list-item",
                "system": "http://terminology.hl7.org/CodeSystem/condition-category",
                "display": "Problem List Item"
              }
            ]
          }
        ],
        "code": {
          "coding": [
            {
              "code": "263102004",
              "system": "http://snomed.info/sct",
              "display": "Fracture subluxation of wrist (disorder)"
            }
          ],
          "text": "Fracture subluxation of wrist"
        },
        "text": {
          "status": "generated",
          "div": "<div xmlns=\"http://www.w3.org/1999/xhtml\"><table class=\"hl7__ips\"><tr><td><span class=\"grayedout\">Fracture subluxation of wrist</span></td><td><span class=\"nb\">19-Jun-2020 - 27-Jul-2020</span></td><td><span class=\"grayedout\">inactive</span></td></tr></table></div>"
        },
        "onsetDateTime": "2020-06-19",
        "abatementDateTime": "2020-07-27",
        "subject": {
          "reference": "urn:uuid:",
          "display": "Lazăr Florea"
        },
        "asserter": {
          "reference": "urn:uuid:",
          "display": "Spitalul de Urgență"
        }
      }
    },
    {
      "fullUrl": "urn:uuid:84e610f6-c014-4793-8511-9fa0533192cc",
      "resource": {
        "resourceType": "Condition",
        "id": "84e610f6-c014-4793-8511-9fa0533192cc",
        "meta": {
          "profile": [
            "http://hl7.org/fhir/uv/ips/StructureDefinition/Condition-uv-ips"
          ]
        },
        "category": [
          {
            "coding": [
              {
                "code": "problem-list-item",
                "system": "http://terminology.hl7.org/CodeSystem/condition-category",
                "display": "Problem List Item"
              }
            ]
          }
        ],
        "code": {
          "coding": [
            {
              "code": "10509002",
              "system": "http://snomed.info/sct",
              "display": "Acute bronchitis (disorder)"
            }
          ],
          "text": "Acute bronchitis"
        },
        "text": {
          "status": "generated",
          "div": "<div xmlns=\"http://www.w3.org/1999/xhtml\"><table class=\"hl7__ips\"><tr><td><span class=\"grayedout\">Acute bronchitis</span></td><td><span class=\"nb\">11-Mar-2019 - 23-Mar-2019</span></td><td><span class=\"grayedout\">inactive</span></td></tr></table></div>"
        },
        "onsetDateTime": "2019-03-11",
        "abatementDateTime": "2019-03-23",
        "subject": {
          "reference": "urn:uuid:",
          "display": "Lazăr Florea"
        },
        "asserter": {
          "reference": "urn:uuid:",
          "display": "Spitalul de Urgență"
        }
      }
    },
    {
      "fullUrl": "urn:uuid:bd8c7b17-0634-4f35-95ac-c166e7c8ebd6",
      "resource": {
        "resourceType": "Condition",
        "id": "bd8c7b17-0634-4f35-95ac-c166e7c8ebd6",
        "meta": {
          "profile": [
            "http://hl7.org/fhir/uv/ips/StructureDefinition/Condition-uv-ips"
          ]
        },
        "category": [
          {
            "coding": [
              {
                "code": "problem-list-item",
                "system": "http://terminology.hl7.org/CodeSystem/condition-category",
                "display": "Problem List Item"
              }
            ]
          }
        ],
        "code": {
          "coding": [
            {
              "code": "444814009",
              "system": "http://snomed.info/sct",
              "display": "Viral sinusitis (disorder)"
            }
          ],
          "text": "Viral sinusitis"
        },
        "text": {
          "status": "generated",
          "div": "<div xmlns=\"http://www.w3.org/1999/xhtml\"><table class=\"hl7__ips\"><tr><td><span class=\"grayedout\">Viral sinusitis</span></td><td><span class=\"nb\">10-Aug-2017 - 21-Aug-2017</span></td><td><span class=\"grayedout\">inactive</span></td></tr></table></div>"
        },
        "onsetDateTime": "2017-08-10",
        "abatementDateTime": "2017-08-21",
        "subject": {
          "reference": "urn:uuid:",
          "display": "Lazăr Florea"
        },
        "asserter": {
          "reference": "urn:uuid:",
          "display": "Spitalul de Urgență"
        }
      }
    },
    {
      "fullUrl": "urn:uuid:8554a87e-4edd-4bff-9ef1-778c2375e2c3",
      "resource": {
        "resourceType": "Medication",
        "id": "8554a87e-4edd-4bff-9ef1-778c2375e2c3",
        "meta": {
          "profile": [
            "http://hl7.eu/fhir/eps/StructureDefinition/Medication-eu-eps"
          ]
        },
        "code": {
          "coding": [
            {
              "code": "376209006",
              "system": "http://snomed.info/sct",
              "display": "Hydrochlorothiazide 25 mg oral tablet"
            }
          ],
          "text": "Hydrochlorothiazide 25 mg oral tablet"
        },
        "text": {
          "status": "generated",
          "div": "<div xmlns=\"http://www.w3.org/1999/xhtml\">Hydrochlorothiazide 25 mg oral tablet</div>"
        }
      }
    },
    {
      "fullUrl": "urn:uuid:636136df-cb39-4d8d-88b0-db566ecc0939",
      "resource": {
        "resourceType": "MedicationStatement",
        "id": "636136df-cb39-4d8d-88b0-db566ecc0939",
        "meta": {
          "profile": [
            "http://hl7.eu/fhir/eps/StructureDefinition/MedicationStatement-eu-eps"
          ]
        },
        "effectivePeriod": {
          "start": "2025-06-25"
        },
        "dosage": [
          {
            "doseAndRate": [
              {
                "doseQuantity": {
                  "value": 1,
                  "unit": "{tbl}",
                  "system": "$ucum",
                  "code": "{tbl}"
                }
              }
            ],
            "timing": {
              "repeat": {
                "frequency": 1,
                "period": 1,
                "periodUnit": "d"
              }
            },
            "text": "1 tablet (25 mg) by mouth once daily",
            "asNeededBoolean": false
          }
        ],
        "reasonCode": [
          {
            "coding": [
              {
                "code": "59621000",
                "system": "http://snomed.info/sct",
                "display": "Essential hypertension (disorder)"
              }
            ]
          }
        ],
        "text": {
          "status": "generated",
          "div": "<div xmlns=\"http://www.w3.org/1999/xhtml\"><table class=\"hl7__ips first25\"><tr><th>Medication</th><th>Since</th><th>Form</th><th>Dosage</th><th>Reason</th></tr><tr><td>Hydrochlorothiazide 25 mg oral tablet</td><td><span class=\"nb\">2025-06-25</span></td><td>-</td><td>1 tablet (25 mg) by mouth once daily</td><td>Essential hypertension (disorder)</td></tr></table></div>"
        },
        "status": "active",
        "medicationReference": {
          "reference": "urn:uuid:8554a87e-4edd-4bff-9ef1-778c2375e2c3",
          "display": "Hydrochlorothiazide 25 mg oral tablet"
        },
        "subject": {
          "reference": "urn:uuid:d578fe6b-083c-4d99-98b9-ed5b7d6d585b",
          "display": "Lazăr Florea"
        }
      }
    },
    {
      "fullUrl": "urn:uuid:3d04c47e-3458-4f9e-af6a-b9c636889fc4",
      "resource": {
        "resourceType": "Medication",
        "id": "3d04c47e-3458-4f9e-af6a-b9c636889fc4",
        "meta": {
          "profile": [
            "http://hl7.eu/fhir/eps/StructureDefinition/Medication-eu-eps"
          ]
        },
        "code": {
          "coding": [
            {
              "code": "318859000",
              "system": "http://snomed.info/sct",
              "display": "Lisinopril 10 mg oral tablet"
            }
          ],
          "text": "Lisinopril 10 mg oral tablet"
        },
        "text": {
          "status": "generated",
          "div": "<div xmlns=\"http://www.w3.org/1999/xhtml\">Lisinopril 10 mg oral tablet</div>"
        }
      }
    },
    {
      "fullUrl": "urn:uuid:0678985e-ab14-4c42-822c-9682502dbb37",
      "resource": {
        "resourceType": "MedicationStatement",
        "id": "0678985e-ab14-4c42-822c-9682502dbb37",
        "meta": {
          "profile": [
            "http://hl7.eu/fhir/eps/StructureDefinition/MedicationStatement-eu-eps"
          ]
        },
        "effectivePeriod": {
          "start": "2025-06-25"
        },
        "dosage": [
          {
            "doseAndRate": [
              {
                "doseQuantity": {
                  "value": 1,
                  "unit": "{tbl} (10 mg)",
                  "system": "$ucum",
                  "code": "{tbl}"
                }
              }
            ],
            "timing": {
              "repeat": {
                "frequency": 1,
                "period": 1,
                "periodUnit": "d"
              }
            },
            "text": "1 tablet (10 mg) by mouth once daily",
            "asNeededBoolean": false
          }
        ],
        "reasonCode": [
          {
            "coding": [
              {
                "code": "59621000",
                "system": "http://snomed.info/sct",
                "display": "Essential hypertension (disorder)"
              }
            ]
          }
        ],
        "text": {
          "status": "generated",
          "div": "<div xmlns=\"http://www.w3.org/1999/xhtml\"><table class=\"hl7__ips first25\"><tr><th>Medication</th><th>Since</th><th>Form</th><th>Dosage</th><th>Reason</th></tr><tr><td>Lisinopril 10 mg oral tablet</td><td><span class=\"nb\">2025-06-25</span></td><td>-</td><td>1 tablet (10 mg) by mouth once daily</td><td>Essential hypertension (disorder)</td></tr></table></div>"
        },
        "status": "active",
        "medicationReference": {
          "reference": "urn:uuid:3d04c47e-3458-4f9e-af6a-b9c636889fc4",
          "display": "Lisinopril 10 mg oral tablet"
        },
        "subject": {
          "reference": "urn:uuid:d578fe6b-083c-4d99-98b9-ed5b7d6d585b",
          "display": "Lazăr Florea"
        }
      }
    },
    {
      "fullUrl": "urn:uuid:275af1eb-f62a-4850-8423-d2f45baa2fc0",
      "resource": {
        "resourceType": "Medication",
        "id": "275af1eb-f62a-4850-8423-d2f45baa2fc0",
        "meta": {
          "profile": [
            "http://hl7.eu/fhir/eps/StructureDefinition/Medication-eu-eps"
          ]
        },
        "code": {
          "coding": [
            {
              "code": "420397007",
              "system": "http://snomed.info/sct",
              "display": "Acetaminophen 300 mg and hydrocodone bitartrate 5 mg oral tablet"
            }
          ],
          "text": "Acetaminophen 300 mg and hydrocodone bitartrate 5 mg oral tablet"
        },
        "text": {
          "status": "generated",
          "div": "<div xmlns=\"http://www.w3.org/1999/xhtml\">Acetaminophen 300 mg and hydrocodone bitartrate 5 mg oral tablet</div>"
        }
      }
    },
    {
      "fullUrl": "urn:uuid:a194d640-5623-4c7f-816a-0467b042a69c",
      "resource": {
        "resourceType": "MedicationStatement",
        "id": "a194d640-5623-4c7f-816a-0467b042a69c",
        "meta": {
          "profile": [
            "http://hl7.eu/fhir/eps/StructureDefinition/MedicationStatement-eu-eps"
          ]
        },
        "effectivePeriod": {
          "start": "2025-06-25"
        },
        "dosage": [
          {
            "doseAndRate": [
              {
                "doseQuantity": {
                  "value": 1,
                  "unit": "{tbl} (300 mg/5 mg)",
                  "system": "$ucum",
                  "code": "{tbl}"
                }
              }
            ],
            "timing": {
              "repeat": {
                "frequency": 1,
                "period": 4,
                "periodUnit": "h"
              }
            },
            "text": "1 tablet (300 mg/5 mg) by mouth every 4 to 6 hours as needed for pain",
            "asNeededBoolean": true
          }
        ],
        "text": {
          "status": "generated",
          "div": "<div xmlns=\"http://www.w3.org/1999/xhtml\"><table class=\"hl7__ips first25\"><tr><th>Medication</th><th>Since</th><th>Form</th><th>Dosage</th><th>Reason</th></tr><tr><td>Acetaminophen 300 mg and hydrocodone bitartrate 5 mg oral tablet</td><td><span class=\"nb\">2025-06-25</span></td><td>-</td><td>1 tablet (300 mg/5 mg) by mouth every 4 to 6 hours as needed for pain</td><td>-</td></tr></table></div>"
        },
        "status": "active",
        "medicationReference": {
          "reference": "urn:uuid:275af1eb-f62a-4850-8423-d2f45baa2fc0",
          "display": "Acetaminophen 300 mg and hydrocodone bitartrate 5 mg oral tablet"
        },
        "subject": {
          "reference": "urn:uuid:d578fe6b-083c-4d99-98b9-ed5b7d6d585b",
          "display": "Lazăr Florea"
        }
      }
    },
    {
      "fullUrl": "urn:uuid:b0cb8c18-052a-405a-b177-abe8710fedca",
      "resource": {
        "resourceType": "Medication",
        "id": "b0cb8c18-052a-405a-b177-abe8710fedca",
        "meta": {
          "profile": [
            "http://hl7.eu/fhir/eps/StructureDefinition/Medication-eu-eps"
          ]
        },
        "code": {
          "coding": [
            {
              "code": "783586007",
              "system": "http://snomed.info/sct",
              "display": "Clopidogrel (as clopidogrel bisulfate) 75 mg oral tablet"
            }
          ],
          "text": "Clopidogrel (as clopidogrel bisulfate) 75 mg oral tablet"
        },
        "text": {
          "status": "generated",
          "div": "<div xmlns=\"http://www.w3.org/1999/xhtml\">Clopidogrel (as clopidogrel bisulfate) 75 mg oral tablet</div>"
        }
      }
    },
    {
      "fullUrl": "urn:uuid:bccbb423-4c41-4982-b7b3-592a6e0a4de5",
      "resource": {
        "resourceType": "MedicationStatement",
        "id": "bccbb423-4c41-4982-b7b3-592a6e0a4de5",
        "meta": {
          "profile": [
            "http://hl7.eu/fhir/eps/StructureDefinition/MedicationStatement-eu-eps"
          ]
        },
        "effectivePeriod": {
          "start": "2010-04-07"
        },
        "dosage": [
          {
            "doseAndRate": [
              {
                "doseQuantity": {
                  "value": 1,
                  "unit": "{tbl} (75 mg)",
                  "system": "$ucum",
                  "code": "{tbl}"
                }
              }
            ],
            "timing": {
              "repeat": {
                "frequency": 1,
                "period": 1,
                "periodUnit": "d"
              }
            },
            "text": "1 tablet (75 mg) once daily",
            "asNeededBoolean": false
          }
        ],
        "text": {
          "status": "generated",
          "div": "<div xmlns=\"http://www.w3.org/1999/xhtml\"><table class=\"hl7__ips first25\"><tr><th>Medication</th><th>Since</th><th>Form</th><th>Dosage</th><th>Reason</th></tr><tr><td>Clopidogrel (as clopidogrel bisulfate) 75 mg oral tablet</td><td><span class=\"nb\">2010-04-07</span></td><td>-</td><td>1 tablet (75 mg) once daily</td><td>-</td></tr></table></div>"
        },
        "status": "active",
        "medicationReference": {
          "reference": "urn:uuid:b0cb8c18-052a-405a-b177-abe8710fedca",
          "display": "Clopidogrel (as clopidogrel bisulfate) 75 mg oral tablet"
        },
        "subject": {
          "reference": "urn:uuid:d578fe6b-083c-4d99-98b9-ed5b7d6d585b",
          "display": "Lazăr Florea"
        }
      }
    },
    {
      "fullUrl": "urn:uuid:ed74ef40-a4f9-4707-b77b-56cfd9d0c011",
      "resource": {
        "resourceType": "Medication",
        "id": "ed74ef40-a4f9-4707-b77b-56cfd9d0c011",
        "meta": {
          "profile": [
            "http://hl7.eu/fhir/eps/StructureDefinition/Medication-eu-eps"
          ]
        },
        "code": {
          "coding": [
            {
              "code": "319997009",
              "system": "http://snomed.info/sct",
              "display": "Simvastatin 20 mg oral tablet"
            }
          ],
          "text": "Simvastatin 20 mg oral tablet"
        },
        "text": {
          "status": "generated",
          "div": "<div xmlns=\"http://www.w3.org/1999/xhtml\">Simvastatin 20 mg oral tablet</div>"
        }
      }
    },
    {
      "fullUrl": "urn:uuid:f3f3ddfa-7d8f-41ee-96bf-d4f8c5e93c8e",
      "resource": {
        "resourceType": "MedicationStatement",
        "id": "f3f3ddfa-7d8f-41ee-96bf-d4f8c5e93c8e",
        "meta": {
          "profile": [
            "http://hl7.eu/fhir/eps/StructureDefinition/MedicationStatement-eu-eps"
          ]
        },
        "effectivePeriod": {
          "start": "2010-04-07"
        },
        "dosage": [
          {
            "doseAndRate": [
              {
                "doseQuantity": {
                  "value": 1,
                  "unit": "{tbl} (20 mg)",
                  "system": "$ucum",
                  "code": "{tbl}"
                }
              }
            ],
            "timing": {
              "repeat": {
                "frequency": 1,
                "period": 1,
                "periodUnit": "d"
              }
            },
            "text": "1 tablet (20 mg) by mouth once daily",
            "asNeededBoolean": false
          }
        ],
        "text": {
          "status": "generated",
          "div": "<div xmlns=\"http://www.w3.org/1999/xhtml\"><table class=\"hl7__ips first25\"><tr><th>Medication</th><th>Since</th><th>Form</th><th>Dosage</th><th>Reason</th></tr><tr><td>Simvastatin 20 mg oral tablet</td><td><span class=\"nb\">2010-04-07</span></td><td>-</td><td>1 tablet (20 mg) by mouth once daily</td><td>-</td></tr></table></div>"
        },
        "status": "active",
        "medicationReference": {
          "reference": "urn:uuid:ed74ef40-a4f9-4707-b77b-56cfd9d0c011",
          "display": "Simvastatin 20 mg oral tablet"
        },
        "subject": {
          "reference": "urn:uuid:d578fe6b-083c-4d99-98b9-ed5b7d6d585b",
          "display": "Lazăr Florea"
        }
      }
    },
    {
      "fullUrl": "urn:uuid:9fa3f2dd-c2a9-446f-afa4-b9aea81f34bf",
      "resource": {
        "resourceType": "Medication",
        "id": "9fa3f2dd-c2a9-446f-afa4-b9aea81f34bf",
        "meta": {
          "profile": [
            "http://hl7.eu/fhir/eps/StructureDefinition/Medication-eu-eps"
          ]
        },
        "code": {
          "coding": [
            {
              "code": "425176000",
              "system": "http://snomed.info/sct",
              "display": "Nitroglycerin 400 microgram/actuation sublingual spray"
            }
          ],
          "text": "Nitroglycerin 400 microgram/actuation sublingual spray"
        },
        "text": {
          "status": "generated",
          "div": "<div xmlns=\"http://www.w3.org/1999/xhtml\">Nitroglycerin 400 microgram/actuation sublingual spray</div>"
        }
      }
    },
    {
      "fullUrl": "urn:uuid:3dd0a662-6bcd-4eb8-9c0a-d8103d817f7a",
      "resource": {
        "resourceType": "MedicationStatement",
        "id": "3dd0a662-6bcd-4eb8-9c0a-d8103d817f7a",
        "meta": {
          "profile": [
            "http://hl7.eu/fhir/eps/StructureDefinition/MedicationStatement-eu-eps"
          ]
        },
        "effectivePeriod": {
          "start": "2010-04-07"
        },
        "dosage": [
          {
            "doseAndRate": [
              {
                "doseQuantity": {
                  "value": 400,
                  "unit": "mcg",
                  "system": "$ucum",
                  "code": "mcg"
                }
              }
            ],
            "timing": {
              "repeat": {
                "frequency": 3,
                "period": 15,
                "periodUnit": "min"
              }
            },
            "text": "400 micrograms (1 spray) sublingually as needed for chest pain, may repeat every 5 minutes as needed, up to 3 sprays in 15 minutes",
            "asNeededBoolean": true
          }
        ],
        "text": {
          "status": "generated",
          "div": "<div xmlns=\"http://www.w3.org/1999/xhtml\"><table class=\"hl7__ips first25\"><tr><th>Medication</th><th>Since</th><th>Form</th><th>Dosage</th><th>Reason</th></tr><tr><td>Nitroglycerin 400 microgram/actuation sublingual spray</td><td><span class=\"nb\">2010-04-07</span></td><td>-</td><td>400 micrograms (1 spray) sublingually as needed for chest pain, may repeat every 5 minutes as needed, up to 3 sprays in 15 minutes</td><td>-</td></tr></table></div>"
        },
        "status": "active",
        "medicationReference": {
          "reference": "urn:uuid:9fa3f2dd-c2a9-446f-afa4-b9aea81f34bf",
          "display": "Nitroglycerin 400 microgram/actuation sublingual spray"
        },
        "subject": {
          "reference": "urn:uuid:d578fe6b-083c-4d99-98b9-ed5b7d6d585b",
          "display": "Lazăr Florea"
        }
      }
    },
    {
      "fullUrl": "urn:uuid:88e21b62-d4d2-4832-9dc6-1432ee7342d4",
      "resource": {
        "resourceType": "Medication",
        "id": "88e21b62-d4d2-4832-9dc6-1432ee7342d4",
        "meta": {
          "profile": [
            "http://hl7.eu/fhir/eps/StructureDefinition/Medication-eu-eps"
          ]
        },
        "code": {
          "coding": [
            {
              "code": "879980009",
              "system": "http://snomed.info/sct",
              "display": "Metoprolol tartrate (as metoprolol succinate) 100 mg prolonged-release oral tablet"
            }
          ],
          "text": "Metoprolol tartrate (as metoprolol succinate) 100 mg prolonged-release oral tablet"
        },
        "text": {
          "status": "generated",
          "div": "<div xmlns=\"http://www.w3.org/1999/xhtml\">Metoprolol tartrate (as metoprolol succinate) 100 mg prolonged-release oral tablet</div>"
        }
      }
    },
    {
      "fullUrl": "urn:uuid:df0173e5-d31b-483f-8f64-7973952e0aff",
      "resource": {
        "resourceType": "MedicationStatement",
        "id": "df0173e5-d31b-483f-8f64-7973952e0aff",
        "meta": {
          "profile": [
            "http://hl7.eu/fhir/eps/StructureDefinition/MedicationStatement-eu-eps"
          ]
        },
        "effectivePeriod": {
          "start": "2010-04-07"
        },
        "dosage": [
          {
            "doseAndRate": [
              {
                "doseQuantity": {
                  "value": 1,
                  "unit": "{tbl} (100 mg)",
                  "system": "$ucum",
                  "code": "{tbl}"
                }
              }
            ],
            "timing": {
              "repeat": {
                "frequency": 1,
                "period": 1,
                "periodUnit": "d"
              }
            },
            "text": "1 tablet (100 mg) once daily",
            "asNeededBoolean": false
          }
        ],
        "text": {
          "status": "generated",
          "div": "<div xmlns=\"http://www.w3.org/1999/xhtml\"><table class=\"hl7__ips first25\"><tr><th>Medication</th><th>Since</th><th>Form</th><th>Dosage</th><th>Reason</th></tr><tr><td>Metoprolol tartrate (as metoprolol succinate) 100 mg prolonged-release oral tablet</td><td><span class=\"nb\">2010-04-07</span></td><td>-</td><td>1 tablet (100 mg) once daily</td><td>-</td></tr></table></div>"
        },
        "status": "active",
        "medicationReference": {
          "reference": "urn:uuid:88e21b62-d4d2-4832-9dc6-1432ee7342d4",
          "display": "Metoprolol tartrate (as metoprolol succinate) 100 mg prolonged-release oral tablet"
        },
        "subject": {
          "reference": "urn:uuid:d578fe6b-083c-4d99-98b9-ed5b7d6d585b",
          "display": "Lazăr Florea"
        }
      }
    },
    {
      "fullUrl": "urn:uuid:3736e6b4-999f-4973-90af-03ee7f37d94f",
      "resource": {
        "resourceType": "Immunization",
        "id": "3736e6b4-999f-4973-90af-03ee7f37d94f",
        "meta": {
          "profile": [
            "http://hl7.org/fhir/uv/ips/StructureDefinition/Immunization-uv-ips"
          ]
        },
        "vaccineCode": {
          "coding": [
            {
              "code": "1181000221105",
              "system": "http://snomed.info/sct",
              "display": "Vaccine product containing Influenza virus antigen"
            },
            {
              "code": "J07BB02",
              "system": "http://www.whocc.no/atc",
              "display": "Influenza, inactivated, split virus"
            }
          ],
          "text": "Influenza virus antigen only vaccine product"
        },
        "site": {
          "coding": [
            {
              "code": "244979005",
              "system": "http://snomed.info/sct",
              "display": "Entire muscle of upper arm"
            }
          ],
          "text": "Entire muscle of upper arm"
        },
        "route": {
          "coding": [
            {
              "code": "78421000",
              "system": "http://snomed.info/sct",
              "display": "Intramuscular route"
            }
          ],
          "text": "Intramuscular route"
        },
        "text": {
          "status": "generated",
          "div": "<div xmlns=\"http://www.w3.org/1999/xhtml\"><table class=\"hl7__ips\"><tr><td>Influenza virus antigen only vaccine product</td><td><span class=\"nb\">25-Jun-2025</span></td></tr></table></div>"
        },
        "status": "completed",
        "patient": {
          "reference": "urn:uuid:d578fe6b-083c-4d99-98b9-ed5b7d6d585b",
          "display": "Lazăr Florea"
        },
        "occurrenceDateTime": "2025-06-25",
        "lotNumber": "VD-CXeGVdfsD",
        "expirationDate": "2026-04-04"
      }
    },
    {
      "fullUrl": "urn:uuid:9cb2338f-67db-4404-aef7-f3e68b4ad594",
      "resource": {
        "resourceType": "Immunization",
        "id": "9cb2338f-67db-4404-aef7-f3e68b4ad594",
        "meta": {
          "profile": [
            "http://hl7.org/fhir/uv/ips/StructureDefinition/Immunization-uv-ips"
          ]
        },
        "vaccineCode": {
          "coding": [
            {
              "code": "777725002",
              "system": "http://snomed.info/sct",
              "display": "Vaccine product containing only Clostridium tetani toxoid antigen adsorbed"
            },
            {
              "code": "J07AM51",
              "system": "http://www.whocc.no/atc",
              "display": "Diphtheria-tetanus vaccines, adult type"
            }
          ],
          "text": "Clostridium tetani toxoid antigen adsorbed only vaccine product"
        },
        "site": {
          "coding": [
            {
              "code": "244979005",
              "system": "http://snomed.info/sct",
              "display": "Entire muscle of upper arm"
            }
          ],
          "text": "Entire muscle of upper arm"
        },
        "route": {
          "coding": [
            {
              "code": "78421000",
              "system": "http://snomed.info/sct",
              "display": "Intramuscular route"
            }
          ],
          "text": "Intramuscular route"
        },
        "text": {
          "status": "generated",
          "div": "<div xmlns=\"http://www.w3.org/1999/xhtml\"><table class=\"hl7__ips\"><tr><td>Clostridium tetani toxoid antigen adsorbed only vaccine product</td><td><span class=\"nb\">14-Jun-2023</span></td></tr></table></div>"
        },
        "status": "completed",
        "patient": {
          "reference": "urn:uuid:d578fe6b-083c-4d99-98b9-ed5b7d6d585b",
          "display": "Lazăr Florea"
        },
        "occurrenceDateTime": "2023-06-14",
        "lotNumber": "OR-PECYx9LD",
        "expirationDate": "2023-10-22"
      }
    },
    {
      "fullUrl": "urn:uuid:6c800036-d1ed-4a78-a37b-78053be706da",
      "resource": {
        "resourceType": "Immunization",
        "id": "6c800036-d1ed-4a78-a37b-78053be706da",
        "meta": {
          "profile": [
            "http://hl7.org/fhir/uv/ips/StructureDefinition/Immunization-uv-ips"
          ]
        },
        "vaccineCode": {
          "coding": [
            {
              "code": "1119349007",
              "system": "http://snomed.info/sct",
              "display": "Vaccine product containing SARS-CoV-2 mRNA"
            },
            {
              "code": "J07BX03",
              "system": "http://www.whocc.no/atc",
              "display": "COVID-19 mRNA vaccines"
            }
          ],
          "text": "SARS-CoV-2 mRNA vaccine"
        },
        "site": {
          "coding": [
            {
              "code": "244979005",
              "system": "http://snomed.info/sct",
              "display": "Entire muscle of upper arm"
            }
          ],
          "text": "Entire muscle of upper arm"
        },
        "route": {
          "coding": [
            {
              "code": "78421000",
              "system": "http://snomed.info/sct",
              "display": "Intramuscular route"
            }
          ],
          "text": "Intramuscular route"
        },
        "text": {
          "status": "generated",
          "div": "<div xmlns=\"http://www.w3.org/1999/xhtml\"><table class=\"hl7__ips\"><tr><td>SARS-CoV-2 mRNA vaccine</td><td><span class=\"nb\">30-Jun-2021</span></td></tr></table></div>"
        },
        "status": "completed",
        "patient": {
          "reference": "urn:uuid:d578fe6b-083c-4d99-98b9-ed5b7d6d585b",
          "display": "Lazăr Florea"
        },
        "occurrenceDateTime": "2021-06-30",
        "lotNumber": "AD-huhDYP",
        "expirationDate": "2022-02-23"
      }
    },
    {
      "fullUrl": "urn:uuid:18a19f25-bb8c-45b8-81c0-9639fed1e438",
      "resource": {
        "resourceType": "Procedure",
        "id": "18a19f25-bb8c-45b8-81c0-9639fed1e438",
        "meta": {
          "profile": [
            "http://hl7.org/fhir/uv/ips/StructureDefinition/Procedure-uv-ips"
          ]
        },
        "code": {
          "coding": [
            {
              "code": "14736009",
              "system": "http://snomed.info/sct",
              "display": "History and physical examination with evaluation and management of patient (procedure)"
            }
          ],
          "text": "Patient evaluation and management"
        },
        "text": {
          "status": "generated",
          "div": "<div xmlns=\"http://www.w3.org/1999/xhtml\"><table class=\"hl7__ips\"><tr><td>Patient evaluation and management</td><td><span class=\"nb\">11-Nov-2020</span></td><td>-</td></tr></table></div>"
        },
        "status": "completed",
        "performedDateTime": "2020-11-11",
        "subject": {
          "reference": "urn:uuid:",
          "display": "Lazăr Florea"
        }
      }
    },
    {
      "fullUrl": "urn:uuid:66da12a2-b532-4dd4-befc-a6efe31520f4",
      "resource": {
        "resourceType": "Procedure",
        "id": "66da12a2-b532-4dd4-befc-a6efe31520f4",
        "meta": {
          "profile": [
            "http://hl7.org/fhir/uv/ips/StructureDefinition/Procedure-uv-ips"
          ]
        },
        "code": {
          "coding": [
            {
              "code": "26604007",
              "system": "http://snomed.info/sct",
              "display": "Complete blood count (procedure)"
            }
          ],
          "text": "Complete blood count"
        },
        "text": {
          "status": "generated",
          "div": "<div xmlns=\"http://www.w3.org/1999/xhtml\"><table class=\"hl7__ips\"><tr><td>Complete blood count</td><td><span class=\"nb\">11-Nov-2020</span></td><td>-</td></tr></table></div>"
        },
        "status": "completed",
        "performedDateTime": "2020-11-11",
        "subject": {
          "reference": "urn:uuid:",
          "display": "Lazăr Florea"
        }
      }
    },
    {
      "fullUrl": "urn:uuid:43d07c85-c4fb-46de-9652-7e566a80501d",
      "resource": {
        "resourceType": "Procedure",
        "id": "43d07c85-c4fb-46de-9652-7e566a80501d",
        "meta": {
          "profile": [
            "http://hl7.org/fhir/uv/ips/StructureDefinition/Procedure-uv-ips"
          ]
        },
        "code": {
          "coding": [
            {
              "code": "30088009",
              "system": "http://snomed.info/sct",
              "display": "Blood culture (procedure)"
            }
          ],
          "text": "Blood culture"
        },
        "text": {
          "status": "generated",
          "div": "<div xmlns=\"http://www.w3.org/1999/xhtml\"><table class=\"hl7__ips\"><tr><td>Blood culture</td><td><span class=\"nb\">11-Nov-2020</span></td><td>-</td></tr></table></div>"
        },
        "status": "completed",
        "performedDateTime": "2020-11-11",
        "subject": {
          "reference": "urn:uuid:",
          "display": "Lazăr Florea"
        }
      }
    },
    {
      "fullUrl": "urn:uuid:634366eb-f50e-410e-a661-39a661b91644",
      "resource": {
        "resourceType": "Procedure",
        "id": "634366eb-f50e-410e-a661-39a661b91644",
        "meta": {
          "profile": [
            "http://hl7.org/fhir/uv/ips/StructureDefinition/Procedure-uv-ips"
          ]
        },
        "code": {
          "coding": [
            {
              "code": "57617002",
              "system": "http://snomed.info/sct",
              "display": "Urine specimen collection (procedure)"
            }
          ],
          "text": "Urine specimen collection"
        },
        "text": {
          "status": "generated",
          "div": "<div xmlns=\"http://www.w3.org/1999/xhtml\"><table class=\"hl7__ips\"><tr><td>Urine specimen collection</td><td><span class=\"nb\">11-Nov-2020</span></td><td>-</td></tr></table></div>"
        },
        "status": "completed",
        "performedDateTime": "2020-11-11",
        "subject": {
          "reference": "urn:uuid:",
          "display": "Lazăr Florea"
        }
      }
    },
    {
      "fullUrl": "urn:uuid:6ffe4ef8-4616-4df1-9559-da937d1b0b32",
      "resource": {
        "resourceType": "Procedure",
        "id": "6ffe4ef8-4616-4df1-9559-da937d1b0b32",
        "meta": {
          "profile": [
            "http://hl7.org/fhir/uv/ips/StructureDefinition/Procedure-uv-ips"
          ]
        },
        "code": {
          "coding": [
            {
              "code": "58000006",
              "system": "http://snomed.info/sct",
              "display": "Patient discharge (procedure)"
            }
          ],
          "text": "Patient discharge"
        },
        "text": {
          "status": "generated",
          "div": "<div xmlns=\"http://www.w3.org/1999/xhtml\"><table class=\"hl7__ips\"><tr><td>Patient discharge</td><td><span class=\"nb\">11-Nov-2020</span></td><td>-</td></tr></table></div>"
        },
        "status": "completed",
        "performedDateTime": "2020-11-11",
        "subject": {
          "reference": "urn:uuid:",
          "display": "Lazăr Florea"
        }
      }
    },
    {
      "fullUrl": "urn:uuid:a6fb9849-e1a7-4784-a538-9d00efdcb6fa",
      "resource": {
        "resourceType": "Procedure",
        "id": "a6fb9849-e1a7-4784-a538-9d00efdcb6fa",
        "meta": {
          "profile": [
            "http://hl7.org/fhir/uv/ips/StructureDefinition/Procedure-uv-ips"
          ]
        },
        "code": {
          "coding": [
            {
              "code": "61746007",
              "system": "http://snomed.info/sct",
              "display": "Taking patient vital signs (procedure)"
            }
          ],
          "text": "Taking patient vital signs"
        },
        "text": {
          "status": "generated",
          "div": "<div xmlns=\"http://www.w3.org/1999/xhtml\"><table class=\"hl7__ips\"><tr><td>Taking patient vital signs</td><td><span class=\"nb\">11-Nov-2020</span></td><td>-</td></tr></table></div>"
        },
        "status": "completed",
        "performedDateTime": "2020-11-11",
        "subject": {
          "reference": "urn:uuid:",
          "display": "Lazăr Florea"
        }
      }
    },
    {
      "fullUrl": "urn:uuid:f0f3a27f-c8a0-4573-847a-1e057c60d87d",
      "resource": {
        "resourceType": "Procedure",
        "id": "f0f3a27f-c8a0-4573-847a-1e057c60d87d",
        "meta": {
          "profile": [
            "http://hl7.org/fhir/uv/ips/StructureDefinition/Procedure-uv-ips"
          ]
        },
        "code": {
          "coding": [
            {
              "code": "84100007",
              "system": "http://snomed.info/sct",
              "display": "History taking (procedure)"
            }
          ],
          "text": "History taking"
        },
        "text": {
          "status": "generated",
          "div": "<div xmlns=\"http://www.w3.org/1999/xhtml\"><table class=\"hl7__ips\"><tr><td>History taking</td><td><span class=\"nb\">11-Nov-2020</span></td><td>-</td></tr></table></div>"
        },
        "status": "completed",
        "performedDateTime": "2020-11-11",
        "subject": {
          "reference": "urn:uuid:",
          "display": "Lazăr Florea"
        }
      }
    },
    {
      "fullUrl": "urn:uuid:ad5db3e1-b19e-4c4d-ba30-04db4365d023",
      "resource": {
        "resourceType": "Procedure",
        "id": "ad5db3e1-b19e-4c4d-ba30-04db4365d023",
        "meta": {
          "profile": [
            "http://hl7.org/fhir/uv/ips/StructureDefinition/Procedure-uv-ips"
          ]
        },
        "code": {
          "coding": [
            {
              "code": "223470000",
              "system": "http://snomed.info/sct",
              "display": "Discussion about signs and symptoms (procedure)"
            }
          ],
          "text": "Discussion about signs and symptoms"
        },
        "text": {
          "status": "generated",
          "div": "<div xmlns=\"http://www.w3.org/1999/xhtml\"><table class=\"hl7__ips\"><tr><td>Discussion about signs and symptoms</td><td><span class=\"nb\">11-Nov-2020</span></td><td>-</td></tr></table></div>"
        },
        "status": "completed",
        "performedDateTime": "2020-11-11",
        "subject": {
          "reference": "urn:uuid:",
          "display": "Lazăr Florea"
        }
      }
    },
    {
      "fullUrl": "urn:uuid:753e0ffb-7625-4998-8748-c892fac1a967",
      "resource": {
        "resourceType": "Procedure",
        "id": "753e0ffb-7625-4998-8748-c892fac1a967",
        "meta": {
          "profile": [
            "http://hl7.org/fhir/uv/ips/StructureDefinition/Procedure-uv-ips"
          ]
        },
        "code": {
          "coding": [
            {
              "code": "281789004",
              "system": "http://snomed.info/sct",
              "display": "Antibiotic therapy (procedure)"
            }
          ],
          "text": "Antibiotic therapy"
        },
        "text": {
          "status": "generated",
          "div": "<div xmlns=\"http://www.w3.org/1999/xhtml\"><table class=\"hl7__ips\"><tr><td>Antibiotic therapy</td><td><span class=\"nb\">11-Nov-2020</span></td><td>-</td></tr></table></div>"
        },
        "status": "completed",
        "performedDateTime": "2020-11-11",
        "subject": {
          "reference": "urn:uuid:",
          "display": "Lazăr Florea"
        }
      }
    },
    {
      "fullUrl": "urn:uuid:485eef37-0f28-4a9f-9698-5124312e1890",
      "resource": {
        "resourceType": "Procedure",
        "id": "485eef37-0f28-4a9f-9698-5124312e1890",
        "meta": {
          "profile": [
            "http://hl7.org/fhir/uv/ips/StructureDefinition/Procedure-uv-ips"
          ]
        },
        "code": {
          "coding": [
            {
              "code": "386478007",
              "system": "http://snomed.info/sct",
              "display": "Triage emergency center (procedure)"
            }
          ],
          "text": "Triage: emergency center"
        },
        "text": {
          "status": "generated",
          "div": "<div xmlns=\"http://www.w3.org/1999/xhtml\"><table class=\"hl7__ips\"><tr><td>Triage: emergency center</td><td><span class=\"nb\">11-Nov-2020</span></td><td>-</td></tr></table></div>"
        },
        "status": "completed",
        "performedDateTime": "2020-11-11",
        "subject": {
          "reference": "urn:uuid:",
          "display": "Lazăr Florea"
        }
      }
    },
    {
      "fullUrl": "urn:uuid:35e70c74-8d8e-4916-8196-f233b7772354",
      "resource": {
        "resourceType": "Procedure",
        "id": "35e70c74-8d8e-4916-8196-f233b7772354",
        "meta": {
          "profile": [
            "http://hl7.org/fhir/uv/ips/StructureDefinition/Procedure-uv-ips"
          ]
        },
        "code": {
          "coding": [
            {
              "code": "441550005",
              "system": "http://snomed.info/sct",
              "display": "Urinalysis with reflex to microscopy and culture (procedure)"
            }
          ],
          "text": "Urinalysis with reflex to microscopy and culture"
        },
        "text": {
          "status": "generated",
          "div": "<div xmlns=\"http://www.w3.org/1999/xhtml\"><table class=\"hl7__ips\"><tr><td>Urinalysis with reflex to microscopy and culture</td><td><span class=\"nb\">11-Nov-2020</span></td><td>-</td></tr></table></div>"
        },
        "status": "completed",
        "performedDateTime": "2020-11-11",
        "subject": {
          "reference": "urn:uuid:",
          "display": "Lazăr Florea"
        }
      }
    },
    {
      "fullUrl": "urn:uuid:1313781a-a9a7-4637-b031-c23c5df0662a",
      "resource": {
        "resourceType": "Procedure",
        "id": "1313781a-a9a7-4637-b031-c23c5df0662a",
        "meta": {
          "profile": [
            "http://hl7.org/fhir/uv/ips/StructureDefinition/Procedure-uv-ips"
          ]
        },
        "code": {
          "coding": [
            {
              "code": "371361000119107",
              "system": "http://snomed.info/sct",
              "display": "Comprehensive metabolic panel (procedure)"
            }
          ],
          "text": "Comprehensive metabolic panel"
        },
        "text": {
          "status": "generated",
          "div": "<div xmlns=\"http://www.w3.org/1999/xhtml\"><table class=\"hl7__ips\"><tr><td>Comprehensive metabolic panel</td><td><span class=\"nb\">11-Nov-2020</span></td><td>-</td></tr></table></div>"
        },
        "status": "completed",
        "performedDateTime": "2020-11-11",
        "subject": {
          "reference": "urn:uuid:",
          "display": "Lazăr Florea"
        }
      }
    },
    {
      "fullUrl": "urn:uuid:dcef4457-56dd-4637-9059-a607b38cca0a",
      "resource": {
        "resourceType": "Procedure",
        "id": "dcef4457-56dd-4637-9059-a607b38cca0a",
        "meta": {
          "profile": [
            "http://hl7.org/fhir/uv/ips/StructureDefinition/Procedure-uv-ips"
          ]
        },
        "code": {
          "coding": [
            {
              "code": "60027007",
              "system": "http://snomed.info/sct",
              "display": "Radiography of wrist (procedure)"
            }
          ],
          "text": "Radiography of wrist"
        },
        "text": {
          "status": "generated",
          "div": "<div xmlns=\"http://www.w3.org/1999/xhtml\"><table class=\"hl7__ips\"><tr><td>Radiography of wrist</td><td><span class=\"nb\">19-Jun-2020</span></td><td>-</td></tr></table></div>"
        },
        "status": "completed",
        "performedDateTime": "2020-06-19",
        "subject": {
          "reference": "urn:uuid:",
          "display": "Lazăr Florea"
        }
      }
    },
    {
      "fullUrl": "urn:uuid:35c5fd69-06fa-402a-ad68-cd86e4f1cdbf",
      "resource": {
        "resourceType": "Procedure",
        "id": "35c5fd69-06fa-402a-ad68-cd86e4f1cdbf",
        "meta": {
          "profile": [
            "http://hl7.org/fhir/uv/ips/StructureDefinition/Procedure-uv-ips"
          ]
        },
        "code": {
          "coding": [
            {
              "code": "274474001",
              "system": "http://snomed.info/sct",
              "display": "Bone immobilization"
            }
          ],
          "text": "Bone immobilization"
        },
        "reasonCode": [
          {
            "coding": [
              {
                "code": "263102004",
                "system": "http://snomed.info/sct",
                "display": "Fracture subluxation of wrist"
              }
            ]
          }
        ],
        "text": {
          "status": "generated",
          "div": "<div xmlns=\"http://www.w3.org/1999/xhtml\"><table class=\"hl7__ips\"><tr><td>Bone immobilization</td><td><span class=\"nb\">19-Jun-2020</span></td><td>Fracture subluxation of wrist</td></tr></table></div>"
        },
        "status": "completed",
        "performedDateTime": "2020-06-19",
        "subject": {
          "reference": "urn:uuid:",
          "display": "Lazăr Florea"
        }
      }
    },
    {
      "fullUrl": "urn:uuid:e7e0295e-e88c-4f52-8e9c-92f57c7a06cb",
      "resource": {
        "resourceType": "Procedure",
        "id": "e7e0295e-e88c-4f52-8e9c-92f57c7a06cb",
        "meta": {
          "profile": [
            "http://hl7.org/fhir/uv/ips/StructureDefinition/Procedure-uv-ips"
          ]
        },
        "code": {
          "coding": [
            {
              "code": "312681000",
              "system": "http://snomed.info/sct",
              "display": "Bone density scan (procedure)"
            }
          ],
          "text": "Bone density scan"
        },
        "reasonCode": [
          {
            "coding": [
              {
                "code": "263102004",
                "system": "http://snomed.info/sct",
                "display": "Fracture subluxation of wrist"
              }
            ]
          }
        ],
        "text": {
          "status": "generated",
          "div": "<div xmlns=\"http://www.w3.org/1999/xhtml\"><table class=\"hl7__ips\"><tr><td>Bone density scan</td><td><span class=\"nb\">19-Jun-2020</span></td><td>Fracture subluxation of wrist</td></tr></table></div>"
        },
        "status": "completed",
        "performedDateTime": "2020-06-19",
        "subject": {
          "reference": "urn:uuid:",
          "display": "Lazăr Florea"
        }
      }
    },
    {
      "fullUrl": "urn:uuid:8b583293-242c-442a-a82f-0185ce551b81",
      "resource": {
        "resourceType": "Procedure",
        "id": "8b583293-242c-442a-a82f-0185ce551b81",
        "meta": {
          "profile": [
            "http://hl7.org/fhir/uv/ips/StructureDefinition/Procedure-uv-ips"
          ]
        },
        "code": {
          "coding": [
            {
              "code": "430193006",
              "system": "http://snomed.info/sct",
              "display": "Medication Reconciliation (procedure)"
            }
          ],
          "text": "Medication reconciliation"
        },
        "text": {
          "status": "generated",
          "div": "<div xmlns=\"http://www.w3.org/1999/xhtml\"><table class=\"hl7__ips\"><tr><td>Medication reconciliation</td><td><span class=\"nb\">20-Mar-2019</span></td><td>-</td></tr></table></div>"
        },
        "status": "completed",
        "performedDateTime": "2019-03-20",
        "subject": {
          "reference": "urn:uuid:",
          "display": "Lazăr Florea"
        }
      }
    },
    {
      "fullUrl": "urn:uuid:b9b1075c-4483-49da-b968-771f788a72dd",
      "resource": {
        "resourceType": "Procedure",
        "id": "b9b1075c-4483-49da-b968-771f788a72dd",
        "meta": {
          "profile": [
            "http://hl7.org/fhir/uv/ips/StructureDefinition/Procedure-uv-ips"
          ]
        },
        "code": {
          "coding": [
            {
              "code": "710824005",
              "system": "http://snomed.info/sct",
              "display": "Assessment of health and social care needs (procedure)"
            }
          ],
          "text": "Assessment of health and social care needs"
        },
        "text": {
          "status": "generated",
          "div": "<div xmlns=\"http://www.w3.org/1999/xhtml\"><table class=\"hl7__ips\"><tr><td>Assessment of health and social care needs</td><td><span class=\"nb\">20-Mar-2019</span></td><td>-</td></tr></table></div>"
        },
        "status": "completed",
        "performedDateTime": "2019-03-20",
        "subject": {
          "reference": "urn:uuid:",
          "display": "Lazăr Florea"
        }
      }
    },
    {
      "fullUrl": "urn:uuid:84442ca8-bd1b-4050-8f9e-bf5cbf560d4f",
      "resource": {
        "resourceType": "Procedure",
        "id": "84442ca8-bd1b-4050-8f9e-bf5cbf560d4f",
        "meta": {
          "profile": [
            "http://hl7.org/fhir/uv/ips/StructureDefinition/Procedure-uv-ips"
          ]
        },
        "code": {
          "coding": [
            {
              "code": "762993000",
              "system": "http://snomed.info/sct",
              "display": "Assessment using Morse Fall Scale (procedure)"
            }
          ],
          "text": "Assessment using Morse Fall Scale"
        },
        "text": {
          "status": "generated",
          "div": "<div xmlns=\"http://www.w3.org/1999/xhtml\"><table class=\"hl7__ips\"><tr><td>Assessment using Morse Fall Scale</td><td><span class=\"nb\">20-Mar-2019</span></td><td>-</td></tr></table></div>"
        },
        "status": "completed",
        "performedDateTime": "2019-03-20",
        "subject": {
          "reference": "urn:uuid:",
          "display": "Lazăr Florea"
        }
      }
    },
    {
      "fullUrl": "urn:uuid:383b24d5-a452-410d-bc9a-2cafc7a78b5b",
      "resource": {
        "resourceType": "Procedure",
        "id": "383b24d5-a452-410d-bc9a-2cafc7a78b5b",
        "meta": {
          "profile": [
            "http://hl7.org/fhir/uv/ips/StructureDefinition/Procedure-uv-ips"
          ]
        },
        "code": {
          "coding": [
            {
              "code": "866148006",
              "system": "http://snomed.info/sct",
              "display": "Screening for domestic abuse (procedure)"
            }
          ],
          "text": "Screening for domestic abuse"
        },
        "text": {
          "status": "generated",
          "div": "<div xmlns=\"http://www.w3.org/1999/xhtml\"><table class=\"hl7__ips\"><tr><td>Screening for domestic abuse</td><td><span class=\"nb\">20-Mar-2019</span></td><td>-</td></tr></table></div>"
        },
        "status": "completed",
        "performedDateTime": "2019-03-20",
        "subject": {
          "reference": "urn:uuid:",
          "display": "Lazăr Florea"
        }
      }
    },
    {
      "fullUrl": "urn:uuid:455160f2-a2ba-4a02-bd3d-7623fff89504",
      "resource": {
        "resourceType": "Procedure",
        "id": "455160f2-a2ba-4a02-bd3d-7623fff89504",
        "meta": {
          "profile": [
            "http://hl7.org/fhir/uv/ips/StructureDefinition/Procedure-uv-ips"
          ]
        },
        "code": {
          "coding": [
            {
              "code": "225386006",
              "system": "http://snomed.info/sct",
              "display": "Pre-discharge assessment (procedure)"
            }
          ],
          "text": "Pre-discharge assessment"
        },
        "text": {
          "status": "generated",
          "div": "<div xmlns=\"http://www.w3.org/1999/xhtml\"><table class=\"hl7__ips\"><tr><td>Pre-discharge assessment</td><td><span class=\"nb\">20-Nov-2016</span></td><td>-</td></tr></table></div>"
        },
        "status": "completed",
        "performedDateTime": "2016-11-20",
        "subject": {
          "reference": "urn:uuid:",
          "display": "Lazăr Florea"
        }
      }
    },
    {
      "fullUrl": "urn:uuid:543dae31-9c7a-4d93-b651-eed977e3243f",
      "resource": {
        "resourceType": "Procedure",
        "id": "543dae31-9c7a-4d93-b651-eed977e3243f",
        "meta": {
          "profile": [
            "http://hl7.org/fhir/uv/ips/StructureDefinition/Procedure-uv-ips"
          ]
        },
        "code": {
          "coding": [
            {
              "code": "449381000124108",
              "system": "http://snomed.info/sct",
              "display": "Discharge from skilled nursing facility (procedure)"
            }
          ]
        },
        "text": {
          "status": "generated",
          "div": "<div xmlns=\"http://www.w3.org/1999/xhtml\"><table class=\"hl7__ips\"><tr><td>Discharge from skilled nursing facility (procedure)</td><td><span class=\"nb\">20-Nov-2016</span></td><td>-</td></tr></table></div>"
        },
        "status": "completed",
        "performedDateTime": "2016-11-20",
        "subject": {
          "reference": "urn:uuid:",
          "display": "Lazăr Florea"
        }
      }
    },
    {
      "fullUrl": "urn:uuid:802c3277-58f7-402d-864c-090b91d03822",
      "resource": {
        "resourceType": "Procedure",
        "id": "802c3277-58f7-402d-864c-090b91d03822",
        "meta": {
          "profile": [
            "http://hl7.org/fhir/uv/ips/StructureDefinition/Procedure-uv-ips"
          ]
        },
        "code": {
          "coding": [
            {
              "code": "410401003",
              "system": "http://snomed.info/sct",
              "display": "Nursing care/supplementary surveillance (regime/therapy)"
            }
          ],
          "text": "Nursing care/supplementary surveillance"
        },
        "text": {
          "status": "generated",
          "div": "<div xmlns=\"http://www.w3.org/1999/xhtml\"><table class=\"hl7__ips\"><tr><td>Nursing care/supplementary surveillance</td><td><span class=\"nb\">19-Nov-2016</span></td><td>-</td></tr></table></div>"
        },
        "status": "completed",
        "performedDateTime": "2016-11-19",
        "subject": {
          "reference": "urn:uuid:",
          "display": "Lazăr Florea"
        }
      }
    },
    {
      "fullUrl": "urn:uuid:7512d6aa-9f17-47e7-945a-7e06243aab96",
      "resource": {
        "resourceType": "Procedure",
        "id": "7512d6aa-9f17-47e7-945a-7e06243aab96",
        "meta": {
          "profile": [
            "http://hl7.org/fhir/uv/ips/StructureDefinition/Procedure-uv-ips"
          ]
        },
        "code": {
          "coding": [
            {
              "code": "409023009",
              "system": "http://snomed.info/sct",
              "display": "Professional / ancillary services care (regime/therapy)"
            }
          ],
          "text": "Professional / ancillary services care"
        },
        "text": {
          "status": "generated",
          "div": "<div xmlns=\"http://www.w3.org/1999/xhtml\"><table class=\"hl7__ips\"><tr><td>Professional / ancillary services care</td><td><span class=\"nb\">17-Nov-2016</span></td><td>-</td></tr></table></div>"
        },
        "status": "completed",
        "performedDateTime": "2016-11-17",
        "subject": {
          "reference": "urn:uuid:",
          "display": "Lazăr Florea"
        }
      }
    },
    {
      "fullUrl": "urn:uuid:0aeabd63-451f-4127-88c4-a1e35fe5eb4b",
      "resource": {
        "resourceType": "Procedure",
        "id": "0aeabd63-451f-4127-88c4-a1e35fe5eb4b",
        "meta": {
          "profile": [
            "http://hl7.org/fhir/uv/ips/StructureDefinition/Procedure-uv-ips"
          ]
        },
        "code": {
          "coding": [
            {
              "code": "91251008",
              "system": "http://snomed.info/sct",
              "display": "Physical therapy procedure (regime/therapy)"
            }
          ],
          "text": "Physical therapy procedure"
        },
        "text": {
          "status": "generated",
          "div": "<div xmlns=\"http://www.w3.org/1999/xhtml\"><table class=\"hl7__ips\"><tr><td>Physical therapy procedure</td><td><span class=\"nb\">15-Nov-2016</span></td><td>-</td></tr></table></div>"
        },
        "status": "completed",
        "performedDateTime": "2016-11-15",
        "subject": {
          "reference": "urn:uuid:",
          "display": "Lazăr Florea"
        }
      }
    },
    {
      "fullUrl": "urn:uuid:28313aa3-d888-4b30-aaba-5738cf881af0",
      "resource": {
        "resourceType": "Procedure",
        "id": "28313aa3-d888-4b30-aaba-5738cf881af0",
        "meta": {
          "profile": [
            "http://hl7.org/fhir/uv/ips/StructureDefinition/Procedure-uv-ips"
          ]
        },
        "code": {
          "coding": [
            {
              "code": "311555007",
              "system": "http://snomed.info/sct",
              "display": "Speech and language therapy regime (regime/therapy)"
            }
          ],
          "text": "Speech and language therapy regime"
        },
        "text": {
          "status": "generated",
          "div": "<div xmlns=\"http://www.w3.org/1999/xhtml\"><table class=\"hl7__ips\"><tr><td>Speech and language therapy regime</td><td><span class=\"nb\">02-Nov-2016</span></td><td>-</td></tr></table></div>"
        },
        "status": "completed",
        "performedDateTime": "2016-11-02",
        "subject": {
          "reference": "urn:uuid:",
          "display": "Lazăr Florea"
        }
      }
    },
    {
      "fullUrl": "urn:uuid:4a58fafc-9cda-476a-b732-a2d1b2919b58",
      "resource": {
        "resourceType": "Procedure",
        "id": "4a58fafc-9cda-476a-b732-a2d1b2919b58",
        "meta": {
          "profile": [
            "http://hl7.org/fhir/uv/ips/StructureDefinition/Procedure-uv-ips"
          ]
        },
        "code": {
          "coding": [
            {
              "code": "84478008",
              "system": "http://snomed.info/sct",
              "display": "Occupational therapy (regime/therapy)"
            }
          ],
          "text": "Occupational therapy"
        },
        "text": {
          "status": "generated",
          "div": "<div xmlns=\"http://www.w3.org/1999/xhtml\"><table class=\"hl7__ips\"><tr><td>Occupational therapy</td><td><span class=\"nb\">23-Oct-2016</span></td><td>-</td></tr></table></div>"
        },
        "status": "completed",
        "performedDateTime": "2016-10-23",
        "subject": {
          "reference": "urn:uuid:",
          "display": "Lazăr Florea"
        }
      }
    },
    {
      "fullUrl": "urn:uuid:e8d919a7-6c9f-4a8b-b187-d45830cdad6c",
      "resource": {
        "resourceType": "Procedure",
        "id": "e8d919a7-6c9f-4a8b-b187-d45830cdad6c",
        "meta": {
          "profile": [
            "http://hl7.org/fhir/uv/ips/StructureDefinition/Procedure-uv-ips"
          ]
        },
        "code": {
          "coding": [
            {
              "code": "63332003",
              "system": "http://snomed.info/sct",
              "display": "History AND physical examination (procedure)"
            }
          ],
          "text": "History AND physical examination"
        },
        "text": {
          "status": "generated",
          "div": "<div xmlns=\"http://www.w3.org/1999/xhtml\"><table class=\"hl7__ips\"><tr><td>History AND physical examination</td><td><span class=\"nb\">19-Oct-2016</span></td><td>-</td></tr></table></div>"
        },
        "status": "completed",
        "performedDateTime": "2016-10-19",
        "subject": {
          "reference": "urn:uuid:",
          "display": "Lazăr Florea"
        }
      }
    },
    {
      "fullUrl": "urn:uuid:4181ba4b-a49b-4170-b91f-26ccce680e4f",
      "resource": {
        "resourceType": "Procedure",
        "id": "4181ba4b-a49b-4170-b91f-26ccce680e4f",
        "meta": {
          "profile": [
            "http://hl7.org/fhir/uv/ips/StructureDefinition/Procedure-uv-ips"
          ]
        },
        "code": {
          "coding": [
            {
              "code": "315639002",
              "system": "http://snomed.info/sct",
              "display": "Initial patient assessment (procedure)"
            }
          ],
          "text": "Initial patient assessment"
        },
        "text": {
          "status": "generated",
          "div": "<div xmlns=\"http://www.w3.org/1999/xhtml\"><table class=\"hl7__ips\"><tr><td>Initial patient assessment</td><td><span class=\"nb\">19-Oct-2016</span></td><td>-</td></tr></table></div>"
        },
        "status": "completed",
        "performedDateTime": "2016-10-19",
        "subject": {
          "reference": "urn:uuid:",
          "display": "Lazăr Florea"
        }
      }
    },
    {
      "fullUrl": "urn:uuid:3d1ea738-bac4-4fd2-bfec-53606160429a",
      "resource": {
        "resourceType": "Procedure",
        "id": "3d1ea738-bac4-4fd2-bfec-53606160429a",
        "meta": {
          "profile": [
            "http://hl7.org/fhir/uv/ips/StructureDefinition/Procedure-uv-ips"
          ]
        },
        "code": {
          "coding": [
            {
              "code": "370789001",
              "system": "http://snomed.info/sct",
              "display": "Development of individualized plan of care (procedure)"
            }
          ],
          "text": "Development of individualized plan of care"
        },
        "text": {
          "status": "generated",
          "div": "<div xmlns=\"http://www.w3.org/1999/xhtml\"><table class=\"hl7__ips\"><tr><td>Development of individualized plan of care</td><td><span class=\"nb\">19-Oct-2016</span></td><td>-</td></tr></table></div>"
        },
        "status": "completed",
        "performedDateTime": "2016-10-19",
        "subject": {
          "reference": "urn:uuid:",
          "display": "Lazăr Florea"
        }
      }
    },
    {
      "fullUrl": "urn:uuid:564e89a1-0baa-48cf-b173-b53a4c0e2646",
      "resource": {
        "resourceType": "AllergyIntolerance",
        "id": "564e89a1-0baa-48cf-b173-b53a4c0e2646",
        "meta": {
          "profile": [
            "http://hl7.eu/fhir/eps/StructureDefinition/allergyIntolerance-eu-eps"
          ]
        },
        "code": {
          "text": ""
        },
        "clinicalStatus": {
          "coding": [
            {
              "code": "active",
              "system": "http://terminology.hl7.org/CodeSystem/allergyintolerance-clinical"
            }
          ]
        },
        "text": {
          "status": "generated",
          "div": "<div xmlns=\"http://www.w3.org/1999/xhtml\"><table class=\"hl7__ips\"><tr><th>Allergy/Intolerance</th><th>Onset Date</th><th>Status</th><th>Type</th><th>Reaction</th></tr><tr><td></td><td>?</td><td>active</td><td>?</td><td></td></tr></table></div>"
        },
        "verificationStatus": {
          "coding": [
            {
              "code": "confirmed",
              "system": "http://terminology.hl7.org/CodeSystem/allergyintolerance-verification"
            }
          ]
        },
        "patient": {
          "reference": "urn:uuid:d578fe6b-083c-4d99-98b9-ed5b7d6d585b",
          "display": "Lazăr Florea"
        },
        "_onsetDateTime": {
          "extension": [
            {
              "url": "http://hl7.org/fhir/StructureDefinition/data-absent-reason",
              "valueCode": "unknown"
            }
          ]
        }
      }
    },
    {
      "fullUrl": "urn:uuid:35695afd-03bf-4efa-8916-c04c34d68369",
      "resource": {
        "resourceType": "CarePlan",
        "id": "35695afd-03bf-4efa-8916-c04c34d68369",
        "category": [
          {
            "coding": [
              {
                "code": "assess-plan",
                "system": "http://terminology.hl7.org/CodeSystem/care-plan-category",
                "display": "Assessment and Plan"
              }
            ]
          }
        ],
        "activity": [
          {
            "detail": {
              "code": {
                "coding": [
                  {
                    "code": "698360004",
                    "system": "http://snomed.info/sct",
                    "display": "Diabetes self management plan (qualifier value)"
                  }
                ]
              },
              "reasonCode": [
                {
                  "coding": [
                    {
                      "code": "15777000",
                      "system": "http://snomed.info/sct",
                      "display": "Prediabetes"
                    }
                  ]
                }
              ],
              "status": "unknown",
              "description": "Diabetes self management plan",
              "kind": "Appointment"
            }
          }
        ],
        "period": {
          "start": "1993-12-29"
        },
        "goal": [
          {
            "reference": "urn:uuid:cea3b677-6784-471c-8227-1a6bf3a69d01"
          },
          {
            "reference": "urn:uuid:24b44b9e-b726-4495-95d9-92e8097269a9"
          },
          {
            "reference": "urn:uuid:6f2ca5a7-6e4d-40b7-9b73-c6b16dcd8887"
          },
          {
            "reference": "urn:uuid:24caa5a4-6d9e-427c-a287-5c9b519814d9"
          }
        ],
        "text": {
          "status": "generated",
          "div": "<div xmlns=\"http://www.w3.org/1999/xhtml\"><table class=\"hl7__ips first25\"><tr><th>Active Planned Care / Goals</th><th>Start Date</th><th>Reason</th></tr><tr><td>Diabetes self management plan</td><td><span class=\"nb\">29-Dec-1993</span></td><td>Prediabetes</td></tr><tr><td><ul><li>Patient will demonstrate understanding of prediabetes and implement recommended lifestyle modifications including diet, exercise, and blood glucose monitoring.</li><li>Maintain hemoglobin A1c below 6.5% to prevent progression to diabetes.</li><li>Achieve at least 5% reduction in body weight to improve insulin sensitivity.</li><li>Maintain blood pressure below 130/80 mmHg to reduce cardiovascular risk.</li></ul></td><td></td><td></td></tr></table></div>"
        },
        "status": "active",
        "intent": "plan",
        "subject": {
          "reference": "urn:uuid:d578fe6b-083c-4d99-98b9-ed5b7d6d585b",
          "display": "Lazăr Florea"
        }
      }
    },
    {
      "fullUrl": "urn:uuid:47ea9d79-139f-4e75-ad40-0d04cda3953f",
      "resource": {
        "resourceType": "CarePlan",
        "id": "47ea9d79-139f-4e75-ad40-0d04cda3953f",
        "category": [
          {
            "coding": [
              {
                "code": "assess-plan",
                "system": "http://terminology.hl7.org/CodeSystem/care-plan-category",
                "display": "Assessment and Plan"
              }
            ]
          }
        ],
        "activity": [
          {
            "detail": {
              "code": {
                "coding": [
                  {
                    "code": "443402002",
                    "system": "http://snomed.info/sct",
                    "display": "Lifestyle education regarding hypertension (procedure)"
                  }
                ]
              },
              "reasonCode": [
                {
                  "coding": [
                    {
                      "code": "59621000",
                      "system": "http://snomed.info/sct",
                      "display": "Essential hypertension (disorder)"
                    }
                  ]
                }
              ],
              "status": "unknown",
              "description": "Lifestyle education regarding hypertension",
              "kind": "Appointment"
            }
          }
        ],
        "period": {
          "start": "1966-07-20"
        },
        "goal": [
          {
            "reference": "urn:uuid:9f81dc0f-53bf-4aa9-8e07-0dfed78e0a9d"
          },
          {
            "reference": "urn:uuid:a05b7051-26a8-4d1a-bae3-772edc212805"
          },
          {
            "reference": "urn:uuid:b5a8631d-574a-4bda-a06f-0bdbcdabf4de"
          },
          {
            "reference": "urn:uuid:aacd0bdf-6c2c-4dc8-9f3d-e3335a64f6a7"
          }
        ],
        "text": {
          "status": "generated",
          "div": "<div xmlns=\"http://www.w3.org/1999/xhtml\"><table class=\"hl7__ips first25\"><tr><th>Active Planned Care / Goals</th><th>Start Date</th><th>Reason</th></tr><tr><td>Lifestyle education regarding hypertension</td><td><span class=\"nb\">20-Jul-1966</span></td><td>Essential hypertension (disorder)</td></tr><tr><td><ul><li>Maintain blood pressure below 130/80 mmHg through lifestyle modifications.</li><li>Achieve and maintain a healthy weight to assist in blood pressure control.</li><li>Limit daily sodium intake to less than 2.3 grams to help control blood pressure.</li><li>Engage in at least 150 minutes of moderate-intensity aerobic physical activity per week.</li></ul></td><td></td><td></td></tr></table></div>"
        },
        "status": "active",
        "intent": "plan",
        "subject": {
          "reference": "urn:uuid:d578fe6b-083c-4d99-98b9-ed5b7d6d585b",
          "display": "Lazăr Florea"
        }
      }
    },
    {
      "fullUrl": "urn:uuid:45146649-395a-4d32-84c5-921206bfbb22",
      "resource": {
        "resourceType": "ImmunizationRecommendation",
        "id": "45146649-395a-4d32-84c5-921206bfbb22",
        "recommendation": [
          {
            "vaccineCode": [
              {
                "coding": [
                  {
                    "code": "1181000221105",
                    "system": "http://snomed.info/sct",
                    "display": "Vaccine product containing only Influenza virus antigen (medicinal product)"
                  }
                ]
              }
            ],
            "dateCriterion": [
              {
                "code": {
                  "coding": [
                    {
                      "code": "30980-7",
                      "system": "http://loinc.org",
                      "display": "Date vaccine due"
                    }
                  ]
                },
                "value": "2025-10-01"
              }
            ],
            "targetDisease": {
              "coding": [
                {
                  "code": "6142004",
                  "system": "http://snomed.info/sct",
                  "display": "Influenza (disorder)"
                }
              ]
            },
            "series": "Annual seasonal influenza vaccination",
            "forecastStatus": {
              "coding": [
                {
                  "code": "due",
                  "system": "http://terminology.hl7.org/CodeSystem/immunization-recommendation-status",
                  "display": "Due"
                }
              ]
            }
          }
        ],
        "text": {
          "status": "generated",
          "div": "<div xmlns=\"http://www.w3.org/1999/xhtml\"><table class=\"hl7__ips\"><tr><td>Vaccine product containing only Influenza virus antigen (medicinal product)</td><td><span class=\"nb\">01-Oct-2025</span></td><td>Annual seasonal influenza vaccination</td></tr></table></div>"
        },
        "date": "2025-10-22",
        "patient": {
          "reference": "urn:uuid:d578fe6b-083c-4d99-98b9-ed5b7d6d585b",
          "display": "Lazăr Florea"
        }
      }
    },
    {
      "fullUrl": "urn:uuid:bc745af9-eae3-4956-b6d6-d895b23da1dc",
      "resource": {
        "resourceType": "Observation",
        "id": "bc745af9-eae3-4956-b6d6-d895b23da1dc",
        "meta": {
          "profile": [
            "http://hl7.org/fhir/StructureDefinition/vitalsigns"
          ]
        },
        "category": [
          {
            "coding": [
              {
                "system": "http://terminology.hl7.org/CodeSystem/observation-category",
                "code": "vital-signs",
                "display": "Vital Signs"
              }
            ]
          }
        ],
        "valueQuantity": {
          "value": 172.2,
          "code": "cm",
          "unit": "cm"
        },
        "text": {
          "status": "generated",
          "div": "<div xmlns=\"http://www.w3.org/1999/xhtml\"><table class=\"hl7__ips\"><tr><th>Vital Sign</th><th>Date</th><th>Measurement</th></tr><tr><td>Body Height</td><td>25-Jun-2025</td><td>172.2 cm</td></tr></table></div>"
        },
        "status": "final",
        "code": {
          "coding": [
            {
              "code": "$8302-2",
              "system": "http://loinc.org",
              "display": "Body Height"
            }
          ]
        },
        "subject": {
          "reference": "urn:uuid:d578fe6b-083c-4d99-98b9-ed5b7d6d585b",
          "display": "Lazăr Florea"
        },
        "effectiveDateTime": "2025-06-25"
      }
    },
    {
      "fullUrl": "urn:uuid:eaabb48d-41cc-496c-907b-40b0dabac7a0",
      "resource": {
        "resourceType": "Observation",
        "id": "eaabb48d-41cc-496c-907b-40b0dabac7a0",
        "meta": {
          "profile": [
            "http://hl7.org/fhir/StructureDefinition/vitalsigns"
          ]
        },
        "category": [
          {
            "coding": [
              {
                "system": "http://terminology.hl7.org/CodeSystem/observation-category",
                "code": "vital-signs",
                "display": "Vital Signs"
              }
            ]
          }
        ],
        "valueQuantity": {
          "value": 3,
          "code": "{score}",
          "unit": "{score}"
        },
        "text": {
          "status": "generated",
          "div": "<div xmlns=\"http://www.w3.org/1999/xhtml\"><table class=\"hl7__ips\"><tr><th>Vital Sign</th><th>Date</th><th>Measurement</th></tr><tr><td>Pain severity - 0-10 verbal numeric rating [Score] - Reported</td><td>25-Jun-2025</td><td>3 {score}</td></tr></table></div>"
        },
        "status": "final",
        "code": {
          "coding": [
            {
              "code": "$72514-3",
              "system": "http://loinc.org",
              "display": "Pain severity - 0-10 verbal numeric rating [Score] - Reported"
            }
          ]
        },
        "subject": {
          "reference": "urn:uuid:d578fe6b-083c-4d99-98b9-ed5b7d6d585b",
          "display": "Lazăr Florea"
        },
        "effectiveDateTime": "2025-06-25"
      }
    },
    {
      "fullUrl": "urn:uuid:9cce449f-f9d9-4a99-9a1f-49704be4ad41",
      "resource": {
        "resourceType": "Observation",
        "id": "9cce449f-f9d9-4a99-9a1f-49704be4ad41",
        "meta": {
          "profile": [
            "http://hl7.org/fhir/StructureDefinition/vitalsigns"
          ]
        },
        "category": [
          {
            "coding": [
              {
                "system": "http://terminology.hl7.org/CodeSystem/observation-category",
                "code": "vital-signs",
                "display": "Vital Signs"
              }
            ]
          }
        ],
        "valueQuantity": {
          "value": 81.9,
          "code": "kg",
          "unit": "kg"
        },
        "text": {
          "status": "generated",
          "div": "<div xmlns=\"http://www.w3.org/1999/xhtml\"><table class=\"hl7__ips\"><tr><th>Vital Sign</th><th>Date</th><th>Measurement</th></tr><tr><td>Body Weight</td><td>25-Jun-2025</td><td>81.9 kg</td></tr></table></div>"
        },
        "status": "final",
        "code": {
          "coding": [
            {
              "code": "$29463-7",
              "system": "http://loinc.org",
              "display": "Body Weight"
            }
          ]
        },
        "subject": {
          "reference": "urn:uuid:d578fe6b-083c-4d99-98b9-ed5b7d6d585b",
          "display": "Lazăr Florea"
        },
        "effectiveDateTime": "2025-06-25"
      }
    },
    {
      "fullUrl": "urn:uuid:770197c4-a4a4-44d0-81b4-accf7aabcaaf",
      "resource": {
        "resourceType": "Observation",
        "id": "770197c4-a4a4-44d0-81b4-accf7aabcaaf",
        "meta": {
          "profile": [
            "http://hl7.org/fhir/StructureDefinition/vitalsigns"
          ]
        },
        "category": [
          {
            "coding": [
              {
                "system": "http://terminology.hl7.org/CodeSystem/observation-category",
                "code": "vital-signs",
                "display": "Vital Signs"
              }
            ]
          }
        ],
        "valueQuantity": {
          "value": 27.6,
          "code": "kg/m2",
          "unit": "kg/m2"
        },
        "text": {
          "status": "generated",
          "div": "<div xmlns=\"http://www.w3.org/1999/xhtml\"><table class=\"hl7__ips\"><tr><th>Vital Sign</th><th>Date</th><th>Measurement</th></tr><tr><td>Body mass index (BMI) [Ratio]</td><td>25-Jun-2025</td><td>27.6 kg/m2</td></tr></table></div>"
        },
        "status": "final",
        "code": {
          "coding": [
            {
              "code": "$39156-5",
              "system": "http://loinc.org",
              "display": "Body mass index (BMI) [Ratio]"
            }
          ]
        },
        "subject": {
          "reference": "urn:uuid:d578fe6b-083c-4d99-98b9-ed5b7d6d585b",
          "display": "Lazăr Florea"
        },
        "effectiveDateTime": "2025-06-25"
      }
    },
    {
      "fullUrl": "urn:uuid:469c6cae-4c0f-417a-8690-24502370b742",
      "resource": {
        "resourceType": "Observation",
        "id": "469c6cae-4c0f-417a-8690-24502370b742",
        "meta": {
          "profile": [
            "http://hl7.org/fhir/StructureDefinition/vitalsigns"
          ]
        },
        "category": [
          {
            "coding": [
              {
                "system": "http://terminology.hl7.org/CodeSystem/observation-category",
                "code": "vital-signs",
                "display": "Vital Signs"
              }
            ]
          }
        ],
        "valueQuantity": {
          "value": 78,
          "code": "mm[Hg]",
          "unit": "mm[Hg]"
        },
        "text": {
          "status": "generated",
          "div": "<div xmlns=\"http://www.w3.org/1999/xhtml\"><table class=\"hl7__ips\"><tr><th>Vital Sign</th><th>Date</th><th>Measurement</th></tr><tr><td>Diastolic Blood Pressure</td><td>25-Jun-2025</td><td>78 mm[Hg]</td></tr></table></div>"
        },
        "status": "final",
        "code": {
          "coding": [
            {
              "code": "$8462-4",
              "system": "http://loinc.org",
              "display": "Diastolic Blood Pressure"
            }
          ]
        },
        "subject": {
          "reference": "urn:uuid:d578fe6b-083c-4d99-98b9-ed5b7d6d585b",
          "display": "Lazăr Florea"
        },
        "effectiveDateTime": "2025-06-25"
      }
    },
    {
      "fullUrl": "urn:uuid:519d4f3e-a683-4eb9-9ede-adb3231f56d4",
      "resource": {
        "resourceType": "Observation",
        "id": "519d4f3e-a683-4eb9-9ede-adb3231f56d4",
        "meta": {
          "profile": [
            "http://hl7.org/fhir/StructureDefinition/vitalsigns"
          ]
        },
        "category": [
          {
            "coding": [
              {
                "system": "http://terminology.hl7.org/CodeSystem/observation-category",
                "code": "vital-signs",
                "display": "Vital Signs"
              }
            ]
          }
        ],
        "valueQuantity": {
          "value": 106,
          "code": "mm[Hg]",
          "unit": "mm[Hg]"
        },
        "text": {
          "status": "generated",
          "div": "<div xmlns=\"http://www.w3.org/1999/xhtml\"><table class=\"hl7__ips\"><tr><th>Vital Sign</th><th>Date</th><th>Measurement</th></tr><tr><td>Systolic Blood Pressure</td><td>25-Jun-2025</td><td>106 mm[Hg]</td></tr></table></div>"
        },
        "status": "final",
        "code": {
          "coding": [
            {
              "code": "$8480-6",
              "system": "http://loinc.org",
              "display": "Systolic Blood Pressure"
            }
          ]
        },
        "subject": {
          "reference": "urn:uuid:d578fe6b-083c-4d99-98b9-ed5b7d6d585b",
          "display": "Lazăr Florea"
        },
        "effectiveDateTime": "2025-06-25"
      }
    },
    {
      "fullUrl": "urn:uuid:5e86cf09-145b-46f0-afb6-56c8c6b4954d",
      "resource": {
        "resourceType": "Observation",
        "id": "5e86cf09-145b-46f0-afb6-56c8c6b4954d",
        "meta": {
          "profile": [
            "http://hl7.org/fhir/StructureDefinition/vitalsigns"
          ]
        },
        "category": [
          {
            "coding": [
              {
                "system": "http://terminology.hl7.org/CodeSystem/observation-category",
                "code": "vital-signs",
                "display": "Vital Signs"
              }
            ]
          }
        ],
        "valueQuantity": {
          "value": 95,
          "code": "/min",
          "unit": "/min"
        },
        "text": {
          "status": "generated",
          "div": "<div xmlns=\"http://www.w3.org/1999/xhtml\"><table class=\"hl7__ips\"><tr><th>Vital Sign</th><th>Date</th><th>Measurement</th></tr><tr><td>Heart rate</td><td>25-Jun-2025</td><td>95 /min</td></tr></table></div>"
        },
        "status": "final",
        "code": {
          "coding": [
            {
              "code": "$8867-4",
              "system": "http://loinc.org",
              "display": "Heart rate"
            }
          ]
        },
        "subject": {
          "reference": "urn:uuid:d578fe6b-083c-4d99-98b9-ed5b7d6d585b",
          "display": "Lazăr Florea"
        },
        "effectiveDateTime": "2025-06-25"
      }
    },
    {
      "fullUrl": "urn:uuid:d53ada5a-eea9-4d17-ba40-eafb3e33217b",
      "resource": {
        "resourceType": "Observation",
        "id": "d53ada5a-eea9-4d17-ba40-eafb3e33217b",
        "meta": {
          "profile": [
            "http://hl7.org/fhir/StructureDefinition/vitalsigns"
          ]
        },
        "category": [
          {
            "coding": [
              {
                "system": "http://terminology.hl7.org/CodeSystem/observation-category",
                "code": "vital-signs",
                "display": "Vital Signs"
              }
            ]
          }
        ],
        "valueQuantity": {
          "value": 12,
          "code": "/min",
          "unit": "/min"
        },
        "text": {
          "status": "generated",
          "div": "<div xmlns=\"http://www.w3.org/1999/xhtml\"><table class=\"hl7__ips\"><tr><th>Vital Sign</th><th>Date</th><th>Measurement</th></tr><tr><td>Respiratory rate</td><td>25-Jun-2025</td><td>12 /min</td></tr></table></div>"
        },
        "status": "final",
        "code": {
          "coding": [
            {
              "code": "$9279-1",
              "system": "http://loinc.org",
              "display": "Respiratory rate"
            }
          ]
        },
        "subject": {
          "reference": "urn:uuid:d578fe6b-083c-4d99-98b9-ed5b7d6d585b",
          "display": "Lazăr Florea"
        },
        "effectiveDateTime": "2025-06-25"
      }
    },
    {
      "fullUrl": "urn:uuid:068fca65-1b26-44ac-a639-2ded97af5c7b",
      "resource": {
        "resourceType": "Observation",
        "id": "068fca65-1b26-44ac-a639-2ded97af5c7b",
        "meta": {
          "profile": [
            "http://hl7.org/fhir/StructureDefinition/vitalsigns"
          ]
        },
        "category": [
          {
            "coding": [
              {
                "system": "http://terminology.hl7.org/CodeSystem/observation-category",
                "code": "vital-signs",
                "display": "Vital Signs"
              }
            ]
          }
        ],
        "valueQuantity": {
          "value": 172.2,
          "code": "cm",
          "unit": "cm"
        },
        "text": {
          "status": "generated",
          "div": "<div xmlns=\"http://www.w3.org/1999/xhtml\"><table class=\"hl7__ips\"><tr><th>Vital Sign</th><th>Date</th><th>Measurement</th></tr><tr><td>Body Height</td><td>02-Apr-2025</td><td>172.2 cm</td></tr></table></div>"
        },
        "status": "final",
        "code": {
          "coding": [
            {
              "code": "$8302-2",
              "system": "http://loinc.org",
              "display": "Body Height"
            }
          ]
        },
        "subject": {
          "reference": "urn:uuid:d578fe6b-083c-4d99-98b9-ed5b7d6d585b",
          "display": "Lazăr Florea"
        },
        "effectiveDateTime": "2025-04-02"
      }
    },
    {
      "fullUrl": "urn:uuid:e2fb4df3-6ab3-4901-a54d-2da88155f352",
      "resource": {
        "resourceType": "Observation",
        "id": "e2fb4df3-6ab3-4901-a54d-2da88155f352",
        "meta": {
          "profile": [
            "http://hl7.org/fhir/StructureDefinition/vitalsigns"
          ]
        },
        "category": [
          {
            "coding": [
              {
                "system": "http://terminology.hl7.org/CodeSystem/observation-category",
                "code": "vital-signs",
                "display": "Vital Signs"
              }
            ]
          }
        ],
        "valueQuantity": {
          "value": 0,
          "code": "{score}",
          "unit": "{score}"
        },
        "text": {
          "status": "generated",
          "div": "<div xmlns=\"http://www.w3.org/1999/xhtml\"><table class=\"hl7__ips\"><tr><th>Vital Sign</th><th>Date</th><th>Measurement</th></tr><tr><td>Pain severity - 0-10 verbal numeric rating [Score] - Reported</td><td>02-Apr-2025</td><td>0 {score}</td></tr></table></div>"
        },
        "status": "final",
        "code": {
          "coding": [
            {
              "code": "$72514-3",
              "system": "http://loinc.org",
              "display": "Pain severity - 0-10 verbal numeric rating [Score] - Reported"
            }
          ]
        },
        "subject": {
          "reference": "urn:uuid:d578fe6b-083c-4d99-98b9-ed5b7d6d585b",
          "display": "Lazăr Florea"
        },
        "effectiveDateTime": "2025-04-02"
      }
    },
    {
      "fullUrl": "urn:uuid:efe9e2eb-d262-472a-a69a-5484131af3d1",
      "resource": {
        "resourceType": "Observation",
        "id": "efe9e2eb-d262-472a-a69a-5484131af3d1",
        "meta": {
          "profile": [
            "http://hl7.org/fhir/StructureDefinition/vitalsigns"
          ]
        },
        "category": [
          {
            "coding": [
              {
                "system": "http://terminology.hl7.org/CodeSystem/observation-category",
                "code": "vital-signs",
                "display": "Vital Signs"
              }
            ]
          }
        ],
        "valueQuantity": {
          "value": 81.9,
          "code": "kg",
          "unit": "kg"
        },
        "text": {
          "status": "generated",
          "div": "<div xmlns=\"http://www.w3.org/1999/xhtml\"><table class=\"hl7__ips\"><tr><th>Vital Sign</th><th>Date</th><th>Measurement</th></tr><tr><td>Body Weight</td><td>02-Apr-2025</td><td>81.9 kg</td></tr></table></div>"
        },
        "status": "final",
        "code": {
          "coding": [
            {
              "code": "$29463-7",
              "system": "http://loinc.org",
              "display": "Body Weight"
            }
          ]
        },
        "subject": {
          "reference": "urn:uuid:d578fe6b-083c-4d99-98b9-ed5b7d6d585b",
          "display": "Lazăr Florea"
        },
        "effectiveDateTime": "2025-04-02"
      }
    },
    {
      "fullUrl": "urn:uuid:c6bfb7ff-0d71-4951-b425-97907be1c189",
      "resource": {
        "resourceType": "Observation",
        "id": "c6bfb7ff-0d71-4951-b425-97907be1c189",
        "meta": {
          "profile": [
            "http://hl7.org/fhir/StructureDefinition/vitalsigns"
          ]
        },
        "category": [
          {
            "coding": [
              {
                "system": "http://terminology.hl7.org/CodeSystem/observation-category",
                "code": "vital-signs",
                "display": "Vital Signs"
              }
            ]
          }
        ],
        "valueQuantity": {
          "value": 27.6,
          "code": "kg/m2",
          "unit": "kg/m2"
        },
        "text": {
          "status": "generated",
          "div": "<div xmlns=\"http://www.w3.org/1999/xhtml\"><table class=\"hl7__ips\"><tr><th>Vital Sign</th><th>Date</th><th>Measurement</th></tr><tr><td>Body mass index (BMI) [Ratio]</td><td>02-Apr-2025</td><td>27.6 kg/m2</td></tr></table></div>"
        },
        "status": "final",
        "code": {
          "coding": [
            {
              "code": "$39156-5",
              "system": "http://loinc.org",
              "display": "Body mass index (BMI) [Ratio]"
            }
          ]
        },
        "subject": {
          "reference": "urn:uuid:d578fe6b-083c-4d99-98b9-ed5b7d6d585b",
          "display": "Lazăr Florea"
        },
        "effectiveDateTime": "2025-04-02"
      }
    },
    {
      "fullUrl": "urn:uuid:92936dca-5256-4a38-b082-e757e119bf37",
      "resource": {
        "resourceType": "Observation",
        "id": "92936dca-5256-4a38-b082-e757e119bf37",
        "meta": {
          "profile": [
            "http://hl7.org/fhir/StructureDefinition/vitalsigns"
          ]
        },
        "category": [
          {
            "coding": [
              {
                "system": "http://terminology.hl7.org/CodeSystem/observation-category",
                "code": "vital-signs",
                "display": "Vital Signs"
              }
            ]
          }
        ],
        "valueQuantity": {
          "value": 74,
          "code": "mm[Hg]",
          "unit": "mm[Hg]"
        },
        "text": {
          "status": "generated",
          "div": "<div xmlns=\"http://www.w3.org/1999/xhtml\"><table class=\"hl7__ips\"><tr><th>Vital Sign</th><th>Date</th><th>Measurement</th></tr><tr><td>Diastolic Blood Pressure</td><td>02-Apr-2025</td><td>74 mm[Hg]</td></tr></table></div>"
        },
        "status": "final",
        "code": {
          "coding": [
            {
              "code": "$8462-4",
              "system": "http://loinc.org",
              "display": "Diastolic Blood Pressure"
            }
          ]
        },
        "subject": {
          "reference": "urn:uuid:d578fe6b-083c-4d99-98b9-ed5b7d6d585b",
          "display": "Lazăr Florea"
        },
        "effectiveDateTime": "2025-04-02"
      }
    },
    {
      "fullUrl": "urn:uuid:f4131df5-d4ac-436b-b5ff-684191dcc809",
      "resource": {
        "resourceType": "Observation",
        "id": "f4131df5-d4ac-436b-b5ff-684191dcc809",
        "meta": {
          "profile": [
            "http://hl7.org/fhir/StructureDefinition/vitalsigns"
          ]
        },
        "category": [
          {
            "coding": [
              {
                "system": "http://terminology.hl7.org/CodeSystem/observation-category",
                "code": "vital-signs",
                "display": "Vital Signs"
              }
            ]
          }
        ],
        "valueQuantity": {
          "value": 113,
          "code": "mm[Hg]",
          "unit": "mm[Hg]"
        },
        "text": {
          "status": "generated",
          "div": "<div xmlns=\"http://www.w3.org/1999/xhtml\"><table class=\"hl7__ips\"><tr><th>Vital Sign</th><th>Date</th><th>Measurement</th></tr><tr><td>Systolic Blood Pressure</td><td>02-Apr-2025</td><td>113 mm[Hg]</td></tr></table></div>"
        },
        "status": "final",
        "code": {
          "coding": [
            {
              "code": "$8480-6",
              "system": "http://loinc.org",
              "display": "Systolic Blood Pressure"
            }
          ]
        },
        "subject": {
          "reference": "urn:uuid:d578fe6b-083c-4d99-98b9-ed5b7d6d585b",
          "display": "Lazăr Florea"
        },
        "effectiveDateTime": "2025-04-02"
      }
    },
    {
      "fullUrl": "urn:uuid:fb4ced59-6488-4143-bbe9-0fce160671d9",
      "resource": {
        "resourceType": "Observation",
        "id": "fb4ced59-6488-4143-bbe9-0fce160671d9",
        "meta": {
          "profile": [
            "http://hl7.org/fhir/StructureDefinition/vitalsigns"
          ]
        },
        "category": [
          {
            "coding": [
              {
                "system": "http://terminology.hl7.org/CodeSystem/observation-category",
                "code": "vital-signs",
                "display": "Vital Signs"
              }
            ]
          }
        ],
        "valueQuantity": {
          "value": 78,
          "code": "/min",
          "unit": "/min"
        },
        "text": {
          "status": "generated",
          "div": "<div xmlns=\"http://www.w3.org/1999/xhtml\"><table class=\"hl7__ips\"><tr><th>Vital Sign</th><th>Date</th><th>Measurement</th></tr><tr><td>Heart rate</td><td>02-Apr-2025</td><td>78 /min</td></tr></table></div>"
        },
        "status": "final",
        "code": {
          "coding": [
            {
              "code": "$8867-4",
              "system": "http://loinc.org",
              "display": "Heart rate"
            }
          ]
        },
        "subject": {
          "reference": "urn:uuid:d578fe6b-083c-4d99-98b9-ed5b7d6d585b",
          "display": "Lazăr Florea"
        },
        "effectiveDateTime": "2025-04-02"
      }
    },
    {
      "fullUrl": "urn:uuid:e069fd55-a9e7-44d7-a79a-135ebfe65e3a",
      "resource": {
        "resourceType": "Observation",
        "id": "e069fd55-a9e7-44d7-a79a-135ebfe65e3a",
        "meta": {
          "profile": [
            "http://hl7.org/fhir/StructureDefinition/vitalsigns"
          ]
        },
        "category": [
          {
            "coding": [
              {
                "system": "http://terminology.hl7.org/CodeSystem/observation-category",
                "code": "vital-signs",
                "display": "Vital Signs"
              }
            ]
          }
        ],
        "valueQuantity": {
          "value": 14,
          "code": "/min",
          "unit": "/min"
        },
        "text": {
          "status": "generated",
          "div": "<div xmlns=\"http://www.w3.org/1999/xhtml\"><table class=\"hl7__ips\"><tr><th>Vital Sign</th><th>Date</th><th>Measurement</th></tr><tr><td>Respiratory rate</td><td>02-Apr-2025</td><td>14 /min</td></tr></table></div>"
        },
        "status": "final",
        "code": {
          "coding": [
            {
              "code": "$9279-1",
              "system": "http://loinc.org",
              "display": "Respiratory rate"
            }
          ]
        },
        "subject": {
          "reference": "urn:uuid:d578fe6b-083c-4d99-98b9-ed5b7d6d585b",
          "display": "Lazăr Florea"
        },
        "effectiveDateTime": "2025-04-02"
      }
    },
    {
      "fullUrl": "urn:uuid:ef338a7b-c947-420b-b415-12fb348da0c9",
      "resource": {
        "resourceType": "Observation",
        "id": "ef338a7b-c947-420b-b415-12fb348da0c9",
        "meta": {
          "profile": [
            "http://hl7.eu/fhir/laboratory/StructureDefinition/Observation-resultslab-eu-lab"
          ]
        },
        "performer": [
          {
            "display": "The Central European Lab"
          }
        ],
        "category": [
          {
            "coding": [
              {
                "system": "http://terminology.hl7.org/CodeSystem/observation-category",
                "code": "laboratory"
              }
            ]
          }
        ],
        "code": {
          "coding": [
            {
              "code": "4548-4",
              "system": "http://loinc.org",
              "display": "Hemoglobin A1c/Hemoglobin.total in Blood"
            }
          ],
          "text": "Hemoglobin A1c/Hemoglobin.total in Blood"
        },
        "valueQuantity": {
          "system": "http://unitsofmeasure.org",
          "value": 5.9,
          "unit": "%",
          "code": "%"
        },
        "referenceRange": [
          {
            "low": {
              "value": 3.8,
              "code": "%",
              "system": "http://unitsofmeasure.org"
            }
          },
          {
            "high": {
              "value": 5.7,
              "code": "%",
              "system": "http://unitsofmeasure.org"
            }
          }
        ],
        "interpretation": [
          {
            "coding": [
              {
                "code": "H",
                "system": "http://terminology.hl7.org/CodeSystem/v3-ObservationInterpretation",
                "display": "High"
              }
            ]
          }
        ],
        "text": {
          "status": "generated",
          "div": "<div xmlns=\"http://www.w3.org/1999/xhtml\"><table class=\"hl7__eu__lab__report\"><tr><th>Test</th><th>25-Jun-2025</th><th>Reference&#xA0;Range</th><th>Unit</th></tr><tr><td>Hemoglobin A1c/Hemoglobin.total in Blood</td><td>5.9</td><td>3.8 - 5.7</td><td>H</td><td>%</td></tr></table></div>"
        },
        "status": "final",
        "subject": {
          "reference": "urn:uuid:d578fe6b-083c-4d99-98b9-ed5b7d6d585b",
          "display": "Lazăr Florea"
        },
        "effectiveDateTime": "2025-06-25T13:56:29Z"
      }
    },
    {
      "fullUrl": "urn:uuid:0d549799-a5d2-4e46-880f-392ac55cda3a",
      "resource": {
        "resourceType": "Observation",
        "id": "0d549799-a5d2-4e46-880f-392ac55cda3a",
        "meta": {
          "profile": [
            "http://hl7.eu/fhir/laboratory/StructureDefinition/Observation-resultslab-eu-lab"
          ]
        },
        "performer": [
          {
            "display": "The Central European Lab"
          }
        ],
        "category": [
          {
            "coding": [
              {
                "system": "http://terminology.hl7.org/CodeSystem/observation-category",
                "code": "laboratory"
              }
            ]
          }
        ],
        "code": {
          "coding": [
            {
              "code": "2339-0",
              "system": "http://loinc.org",
              "display": "Glucose [Mass/volume] in Blood"
            }
          ],
          "text": "Glucose [Mass/volume] in Blood"
        },
        "valueQuantity": {
          "system": "http://unitsofmeasure.org",
          "value": 65.4,
          "unit": "mg/dL",
          "code": "mg/dL"
        },
        "referenceRange": [
          {
            "low": {
              "value": 70,
              "code": "mg/dL",
              "system": "http://unitsofmeasure.org"
            }
          },
          {
            "high": {
              "value": 140,
              "code": "mg/dL",
              "system": "http://unitsofmeasure.org"
            }
          }
        ],
        "interpretation": [
          {
            "coding": [
              {
                "code": "L",
                "system": "http://terminology.hl7.org/CodeSystem/v3-ObservationInterpretation",
                "display": "Low"
              }
            ]
          }
        ],
        "text": {
          "status": "generated",
          "div": "<div xmlns=\"http://www.w3.org/1999/xhtml\"><table class=\"hl7__eu__lab__report\"><tr><th>Test</th><th>25-Jun-2025</th><th>Reference&#xA0;Range</th><th>Unit</th></tr><tr><td>Glucose [Mass/volume] in Blood</td><td>65.4</td><td>70 - 140</td><td>L</td><td>mg/dL</td></tr></table></div>"
        },
        "status": "final",
        "subject": {
          "reference": "urn:uuid:d578fe6b-083c-4d99-98b9-ed5b7d6d585b",
          "display": "Lazăr Florea"
        },
        "effectiveDateTime": "2025-06-25T13:56:29Z"
      }
    },
    {
      "fullUrl": "urn:uuid:25fd4d64-b9a9-4f84-a7a8-495bf486b7f5",
      "resource": {
        "resourceType": "Observation",
        "id": "25fd4d64-b9a9-4f84-a7a8-495bf486b7f5",
        "meta": {
          "profile": [
            "http://hl7.eu/fhir/laboratory/StructureDefinition/Observation-resultslab-eu-lab"
          ]
        },
        "performer": [
          {
            "display": "The Central European Lab"
          }
        ],
        "category": [
          {
            "coding": [
              {
                "system": "http://terminology.hl7.org/CodeSystem/observation-category",
                "code": "laboratory"
              }
            ]
          }
        ],
        "code": {
          "coding": [
            {
              "code": "6299-2",
              "system": "http://loinc.org",
              "display": "Urea nitrogen [Mass/volume] in Blood"
            }
          ],
          "text": "Urea nitrogen [Mass/volume] in Blood"
        },
        "valueQuantity": {
          "system": "http://unitsofmeasure.org",
          "value": 12.9,
          "unit": "mg/dL",
          "code": "mg/dL"
        },
        "referenceRange": [
          {
            "low": {
              "value": 7,
              "code": "mg/dL",
              "system": "http://unitsofmeasure.org"
            }
          },
          {
            "high": {
              "value": 20,
              "code": "mg/dL",
              "system": "http://unitsofmeasure.org"
            }
          }
        ],
        "text": {
          "status": "generated",
          "div": "<div xmlns=\"http://www.w3.org/1999/xhtml\"><table class=\"hl7__eu__lab__report\"><tr><th>Test</th><th>25-Jun-2025</th><th>Reference&#xA0;Range</th><th>Unit</th></tr><tr><td>Urea nitrogen [Mass/volume] in Blood</td><td>12.9</td><td>7 - 20</td><td></td><td>mg/dL</td></tr></table></div>"
        },
        "status": "final",
        "subject": {
          "reference": "urn:uuid:d578fe6b-083c-4d99-98b9-ed5b7d6d585b",
          "display": "Lazăr Florea"
        },
        "effectiveDateTime": "2025-06-25T13:56:29Z"
      }
    },
    {
      "fullUrl": "urn:uuid:56a1bd1b-39f0-453f-98fc-16b04053177e",
      "resource": {
        "resourceType": "Observation",
        "id": "56a1bd1b-39f0-453f-98fc-16b04053177e",
        "meta": {
          "profile": [
            "http://hl7.eu/fhir/laboratory/StructureDefinition/Observation-resultslab-eu-lab"
          ]
        },
        "performer": [
          {
            "display": "The Central European Lab"
          }
        ],
        "category": [
          {
            "coding": [
              {
                "system": "http://terminology.hl7.org/CodeSystem/observation-category",
                "code": "laboratory"
              }
            ]
          }
        ],
        "code": {
          "coding": [
            {
              "code": "38483-4",
              "system": "http://loinc.org",
              "display": "Creatinine [Mass/volume] in Blood"
            }
          ],
          "text": "Creatinine [Mass/volume] in Blood"
        },
        "valueQuantity": {
          "system": "http://unitsofmeasure.org",
          "value": 0.8,
          "unit": "mg/dL",
          "code": "mg/dL"
        },
        "referenceRange": [
          {
            "low": {
              "value": 0.9,
              "code": "mg/dL",
              "system": "http://unitsofmeasure.org"
            }
          },
          {
            "high": {
              "value": 1.3,
              "code": "mg/dL",
              "system": "http://unitsofmeasure.org"
            }
          }
        ],
        "interpretation": [
          {
            "coding": [
              {
                "code": "L",
                "system": "http://terminology.hl7.org/CodeSystem/v3-ObservationInterpretation",
                "display": "Low"
              }
            ]
          }
        ],
        "text": {
          "status": "generated",
          "div": "<div xmlns=\"http://www.w3.org/1999/xhtml\"><table class=\"hl7__eu__lab__report\"><tr><th>Test</th><th>25-Jun-2025</th><th>Reference&#xA0;Range</th><th>Unit</th></tr><tr><td>Creatinine [Mass/volume] in Blood</td><td>0.8</td><td>0.9 - 1.3</td><td>L</td><td>mg/dL</td></tr></table></div>"
        },
        "status": "final",
        "subject": {
          "reference": "urn:uuid:d578fe6b-083c-4d99-98b9-ed5b7d6d585b",
          "display": "Lazăr Florea"
        },
        "effectiveDateTime": "2025-06-25T13:56:29Z"
      }
    },
    {
      "fullUrl": "urn:uuid:892dfdea-0302-4e58-891a-b476ba21cf42",
      "resource": {
        "resourceType": "Observation",
        "id": "892dfdea-0302-4e58-891a-b476ba21cf42",
        "meta": {
          "profile": [
            "http://hl7.eu/fhir/laboratory/StructureDefinition/Observation-resultslab-eu-lab"
          ]
        },
        "performer": [
          {
            "display": "The Central European Lab"
          }
        ],
        "category": [
          {
            "coding": [
              {
                "system": "http://terminology.hl7.org/CodeSystem/observation-category",
                "code": "laboratory"
              }
            ]
          }
        ],
        "code": {
          "coding": [
            {
              "code": "49765-1",
              "system": "http://loinc.org",
              "display": "Calcium [Mass/volume] in Blood"
            }
          ],
          "text": "Calcium [Mass/volume] in Blood"
        },
        "valueQuantity": {
          "system": "http://unitsofmeasure.org",
          "value": 9.4,
          "unit": "mg/dL",
          "code": "mg/dL"
        },
        "referenceRange": [
          {
            "low": {
              "value": 8.5,
              "code": "mg/dL",
              "system": "http://unitsofmeasure.org"
            }
          },
          {
            "high": {
              "value": 10.5,
              "code": "mg/dL",
              "system": "http://unitsofmeasure.org"
            }
          }
        ],
        "text": {
          "status": "generated",
          "div": "<div xmlns=\"http://www.w3.org/1999/xhtml\"><table class=\"hl7__eu__lab__report\"><tr><th>Test</th><th>25-Jun-2025</th><th>Reference&#xA0;Range</th><th>Unit</th></tr><tr><td>Calcium [Mass/volume] in Blood</td><td>9.4</td><td>8.5 - 10.5</td><td></td><td>mg/dL</td></tr></table></div>"
        },
        "status": "final",
        "subject": {
          "reference": "urn:uuid:d578fe6b-083c-4d99-98b9-ed5b7d6d585b",
          "display": "Lazăr Florea"
        },
        "effectiveDateTime": "2025-06-25T13:56:29Z"
      }
    },
    {
      "fullUrl": "urn:uuid:917721f3-9ec5-4170-9150-f4bde0494d52",
      "resource": {
        "resourceType": "Observation",
        "id": "917721f3-9ec5-4170-9150-f4bde0494d52",
        "meta": {
          "profile": [
            "http://hl7.eu/fhir/laboratory/StructureDefinition/Observation-resultslab-eu-lab"
          ]
        },
        "performer": [
          {
            "display": "The Central European Lab"
          }
        ],
        "category": [
          {
            "coding": [
              {
                "system": "http://terminology.hl7.org/CodeSystem/observation-category",
                "code": "laboratory"
              }
            ]
          }
        ],
        "code": {
          "coding": [
            {
              "code": "2947-0",
              "system": "http://loinc.org",
              "display": "Sodium [Moles/volume] in Blood"
            }
          ],
          "text": "Sodium [Moles/volume] in Blood"
        },
        "valueQuantity": {
          "system": "http://unitsofmeasure.org",
          "value": 137.1,
          "unit": "mmol/L",
          "code": "mmol/L"
        },
        "referenceRange": [
          {
            "low": {
              "value": 135,
              "code": "mmol/L",
              "system": "http://unitsofmeasure.org"
            }
          },
          {
            "high": {
              "value": 145,
              "code": "mmol/L",
              "system": "http://unitsofmeasure.org"
            }
          }
        ],
        "text": {
          "status": "generated",
          "div": "<div xmlns=\"http://www.w3.org/1999/xhtml\"><table class=\"hl7__eu__lab__report\"><tr><th>Test</th><th>25-Jun-2025</th><th>Reference&#xA0;Range</th><th>Unit</th></tr><tr><td>Sodium [Moles/volume] in Blood</td><td>137.1</td><td>135 - 145</td><td></td><td>mmol/L</td></tr></table></div>"
        },
        "status": "final",
        "subject": {
          "reference": "urn:uuid:d578fe6b-083c-4d99-98b9-ed5b7d6d585b",
          "display": "Lazăr Florea"
        },
        "effectiveDateTime": "2025-06-25T13:56:29Z"
      }
    },
    {
      "fullUrl": "urn:uuid:2d41b11c-37fc-4356-9e89-54ac334907c2",
      "resource": {
        "resourceType": "Observation",
        "id": "2d41b11c-37fc-4356-9e89-54ac334907c2",
        "meta": {
          "profile": [
            "http://hl7.eu/fhir/laboratory/StructureDefinition/Observation-resultslab-eu-lab"
          ]
        },
        "performer": [
          {
            "display": "The Central European Lab"
          }
        ],
        "category": [
          {
            "coding": [
              {
                "system": "http://terminology.hl7.org/CodeSystem/observation-category",
                "code": "laboratory"
              }
            ]
          }
        ],
        "code": {
          "coding": [
            {
              "code": "6298-4",
              "system": "http://loinc.org",
              "display": "Potassium [Moles/volume] in Blood"
            }
          ],
          "text": "Potassium [Moles/volume] in Blood"
        },
        "valueQuantity": {
          "system": "http://unitsofmeasure.org",
          "value": 4.8,
          "unit": "mmol/L",
          "code": "mmol/L"
        },
        "referenceRange": [
          {
            "low": {
              "value": 3.5,
              "code": "mmol/L",
              "system": "http://unitsofmeasure.org"
            }
          },
          {
            "high": {
              "value": 5.3,
              "code": "mmol/L",
              "system": "http://unitsofmeasure.org"
            }
          }
        ],
        "text": {
          "status": "generated",
          "div": "<div xmlns=\"http://www.w3.org/1999/xhtml\"><table class=\"hl7__eu__lab__report\"><tr><th>Test</th><th>25-Jun-2025</th><th>Reference&#xA0;Range</th><th>Unit</th></tr><tr><td>Potassium [Moles/volume] in Blood</td><td>4.8</td><td>3.5 - 5.3</td><td></td><td>mmol/L</td></tr></table></div>"
        },
        "status": "final",
        "subject": {
          "reference": "urn:uuid:d578fe6b-083c-4d99-98b9-ed5b7d6d585b",
          "display": "Lazăr Florea"
        },
        "effectiveDateTime": "2025-06-25T13:56:29Z"
      }
    },
    {
      "fullUrl": "urn:uuid:61ab3ba5-ca50-4022-b441-c7df92f8d6e8",
      "resource": {
        "resourceType": "Observation",
        "id": "61ab3ba5-ca50-4022-b441-c7df92f8d6e8",
        "meta": {
          "profile": [
            "http://hl7.eu/fhir/laboratory/StructureDefinition/Observation-resultslab-eu-lab"
          ]
        },
        "performer": [
          {
            "display": "The Central European Lab"
          }
        ],
        "category": [
          {
            "coding": [
              {
                "system": "http://terminology.hl7.org/CodeSystem/observation-category",
                "code": "laboratory"
              }
            ]
          }
        ],
        "code": {
          "coding": [
            {
              "code": "2069-3",
              "system": "http://loinc.org",
              "display": "Chloride [Moles/volume] in Blood"
            }
          ],
          "text": "Chloride [Moles/volume] in Blood"
        },
        "valueQuantity": {
          "system": "http://unitsofmeasure.org",
          "value": 105.2,
          "unit": "mmol/L",
          "code": "mmol/L"
        },
        "referenceRange": [
          {
            "low": {
              "value": 98,
              "code": "mmol/L",
              "system": "http://unitsofmeasure.org"
            }
          },
          {
            "high": {
              "value": 109,
              "code": "mmol/L",
              "system": "http://unitsofmeasure.org"
            }
          }
        ],
        "text": {
          "status": "generated",
          "div": "<div xmlns=\"http://www.w3.org/1999/xhtml\"><table class=\"hl7__eu__lab__report\"><tr><th>Test</th><th>25-Jun-2025</th><th>Reference&#xA0;Range</th><th>Unit</th></tr><tr><td>Chloride [Moles/volume] in Blood</td><td>105.2</td><td>98 - 109</td><td></td><td>mmol/L</td></tr></table></div>"
        },
        "status": "final",
        "subject": {
          "reference": "urn:uuid:d578fe6b-083c-4d99-98b9-ed5b7d6d585b",
          "display": "Lazăr Florea"
        },
        "effectiveDateTime": "2025-06-25T13:56:29Z"
      }
    },
    {
      "fullUrl": "urn:uuid:9faaaa6f-0a4d-4c16-85a7-df014e204f01",
      "resource": {
        "resourceType": "Observation",
        "id": "9faaaa6f-0a4d-4c16-85a7-df014e204f01",
        "meta": {
          "profile": [
            "http://hl7.eu/fhir/laboratory/StructureDefinition/Observation-resultslab-eu-lab"
          ]
        },
        "performer": [
          {
            "display": "The Central European Lab"
          }
        ],
        "category": [
          {
            "coding": [
              {
                "system": "http://terminology.hl7.org/CodeSystem/observation-category",
                "code": "laboratory"
              }
            ]
          }
        ],
        "code": {
          "coding": [
            {
              "code": "20565-8",
              "system": "http://loinc.org",
              "display": "Carbon dioxide, total [Moles/volume] in Blood"
            }
          ],
          "text": "Carbon dioxide, total [Moles/volume] in Blood"
        },
        "valueQuantity": {
          "system": "http://unitsofmeasure.org",
          "value": 22.5,
          "unit": "mmol/L",
          "code": "mmol/L"
        },
        "referenceRange": [
          {
            "low": {
              "value": 22,
              "code": "mmol/L",
              "system": "http://unitsofmeasure.org"
            }
          },
          {
            "high": {
              "value": 32,
              "code": "mmol/L",
              "system": "http://unitsofmeasure.org"
            }
          }
        ],
        "text": {
          "status": "generated",
          "div": "<div xmlns=\"http://www.w3.org/1999/xhtml\"><table class=\"hl7__eu__lab__report\"><tr><th>Test</th><th>25-Jun-2025</th><th>Reference&#xA0;Range</th><th>Unit</th></tr><tr><td>Carbon dioxide, total [Moles/volume] in Blood</td><td>22.5</td><td>22 - 32</td><td></td><td>mmol/L</td></tr></table></div>"
        },
        "status": "final",
        "subject": {
          "reference": "urn:uuid:d578fe6b-083c-4d99-98b9-ed5b7d6d585b",
          "display": "Lazăr Florea"
        },
        "effectiveDateTime": "2025-06-25T13:56:29Z"
      }
    },
    {
      "fullUrl": "urn:uuid:671056bf-9328-415e-82c9-ce51527cafc7",
      "resource": {
        "resourceType": "Observation",
        "id": "671056bf-9328-415e-82c9-ce51527cafc7",
        "meta": {
          "profile": [
            "http://hl7.eu/fhir/laboratory/StructureDefinition/Observation-resultslab-eu-lab"
          ]
        },
        "performer": [
          {
            "display": "The Central European Lab"
          }
        ],
        "category": [
          {
            "coding": [
              {
                "system": "http://terminology.hl7.org/CodeSystem/observation-category",
                "code": "laboratory"
              }
            ]
          }
        ],
        "code": {
          "coding": [
            {
              "code": "6690-2",
              "system": "http://loinc.org",
              "display": "Leukocytes [#/volume] in Blood by Automated count"
            }
          ],
          "text": "Leukocytes [#/volume] in Blood by Automated count"
        },
        "valueQuantity": {
          "system": "http://unitsofmeasure.org",
          "value": 9.9,
          "unit": "10*3/uL",
          "code": "10*3/uL"
        },
        "referenceRange": [
          {
            "low": {
              "value": 4,
              "code": "10*3/uL",
              "system": "http://unitsofmeasure.org"
            }
          },
          {
            "high": {
              "value": 11,
              "code": "10*3/uL",
              "system": "http://unitsofmeasure.org"
            }
          }
        ],
        "text": {
          "status": "generated",
          "div": "<div xmlns=\"http://www.w3.org/1999/xhtml\"><table class=\"hl7__eu__lab__report\"><tr><th>Test</th><th>25-Jun-2025</th><th>Reference&#xA0;Range</th><th>Unit</th></tr><tr><td>Leukocytes [#/volume] in Blood by Automated count</td><td>9.9</td><td>4 - 11</td><td></td><td>10*3/uL</td></tr></table></div>"
        },
        "status": "final",
        "subject": {
          "reference": "urn:uuid:d578fe6b-083c-4d99-98b9-ed5b7d6d585b",
          "display": "Lazăr Florea"
        },
        "effectiveDateTime": "2025-06-25T13:56:29Z"
      }
    },
    {
      "fullUrl": "urn:uuid:d658a2de-9842-44c4-8791-5b32d431b4da",
      "resource": {
        "resourceType": "Observation",
        "id": "d658a2de-9842-44c4-8791-5b32d431b4da",
        "meta": {
          "profile": [
            "http://hl7.eu/fhir/laboratory/StructureDefinition/Observation-resultslab-eu-lab"
          ]
        },
        "performer": [
          {
            "display": "The Central European Lab"
          }
        ],
        "category": [
          {
            "coding": [
              {
                "system": "http://terminology.hl7.org/CodeSystem/observation-category",
                "code": "laboratory"
              }
            ]
          }
        ],
        "code": {
          "coding": [
            {
              "code": "789-8",
              "system": "http://loinc.org",
              "display": "Erythrocytes [#/volume] in Blood by Automated count"
            }
          ],
          "text": "Erythrocytes [#/volume] in Blood by Automated count"
        },
        "valueQuantity": {
          "system": "http://unitsofmeasure.org",
          "value": 4,
          "unit": "10*6/uL",
          "code": "10*6/uL"
        },
        "referenceRange": [
          {
            "low": {
              "value": 4.3,
              "code": "10*6/uL",
              "system": "http://unitsofmeasure.org"
            }
          },
          {
            "high": {
              "value": 6.1,
              "code": "10*6/uL",
              "system": "http://unitsofmeasure.org"
            }
          }
        ],
        "interpretation": [
          {
            "coding": [
              {
                "code": "L",
                "system": "http://terminology.hl7.org/CodeSystem/v3-ObservationInterpretation",
                "display": "Low"
              }
            ]
          }
        ],
        "text": {
          "status": "generated",
          "div": "<div xmlns=\"http://www.w3.org/1999/xhtml\"><table class=\"hl7__eu__lab__report\"><tr><th>Test</th><th>25-Jun-2025</th><th>Reference&#xA0;Range</th><th>Unit</th></tr><tr><td>Erythrocytes [#/volume] in Blood by Automated count</td><td>4.0</td><td>4.3 - 6.1</td><td>L</td><td>10*6/uL</td></tr></table></div>"
        },
        "status": "final",
        "subject": {
          "reference": "urn:uuid:d578fe6b-083c-4d99-98b9-ed5b7d6d585b",
          "display": "Lazăr Florea"
        },
        "effectiveDateTime": "2025-06-25T13:56:29Z"
      }
    },
    {
      "fullUrl": "urn:uuid:25286cea-c7ce-4a95-bf93-c042e61b7134",
      "resource": {
        "resourceType": "Observation",
        "id": "25286cea-c7ce-4a95-bf93-c042e61b7134",
        "meta": {
          "profile": [
            "http://hl7.eu/fhir/laboratory/StructureDefinition/Observation-resultslab-eu-lab"
          ]
        },
        "performer": [
          {
            "display": "The Central European Lab"
          }
        ],
        "category": [
          {
            "coding": [
              {
                "system": "http://terminology.hl7.org/CodeSystem/observation-category",
                "code": "laboratory"
              }
            ]
          }
        ],
        "code": {
          "coding": [
            {
              "code": "718-7",
              "system": "http://loinc.org",
              "display": "Hemoglobin [Mass/volume] in Blood"
            }
          ],
          "text": "Hemoglobin [Mass/volume] in Blood"
        },
        "valueQuantity": {
          "system": "http://unitsofmeasure.org",
          "value": 16.9,
          "unit": "g/dL",
          "code": "g/dL"
        },
        "referenceRange": [
          {
            "low": {
              "value": 13.5,
              "code": "g/dL",
              "system": "http://unitsofmeasure.org"
            }
          },
          {
            "high": {
              "value": 17.5,
              "code": "g/dL",
              "system": "http://unitsofmeasure.org"
            }
          }
        ],
        "text": {
          "status": "generated",
          "div": "<div xmlns=\"http://www.w3.org/1999/xhtml\"><table class=\"hl7__eu__lab__report\"><tr><th>Test</th><th>25-Jun-2025</th><th>Reference&#xA0;Range</th><th>Unit</th></tr><tr><td>Hemoglobin [Mass/volume] in Blood</td><td>16.9</td><td>13.5 - 17.5</td><td></td><td>g/dL</td></tr></table></div>"
        },
        "status": "final",
        "subject": {
          "reference": "urn:uuid:d578fe6b-083c-4d99-98b9-ed5b7d6d585b",
          "display": "Lazăr Florea"
        },
        "effectiveDateTime": "2025-06-25T13:56:29Z"
      }
    },
    {
      "fullUrl": "urn:uuid:acdc051c-72bf-4c26-83df-2b0212916a7f",
      "resource": {
        "resourceType": "Observation",
        "id": "acdc051c-72bf-4c26-83df-2b0212916a7f",
        "meta": {
          "profile": [
            "http://hl7.eu/fhir/laboratory/StructureDefinition/Observation-resultslab-eu-lab"
          ]
        },
        "performer": [
          {
            "display": "The Central European Lab"
          }
        ],
        "category": [
          {
            "coding": [
              {
                "system": "http://terminology.hl7.org/CodeSystem/observation-category",
                "code": "laboratory"
              }
            ]
          }
        ],
        "code": {
          "coding": [
            {
              "code": "4544-3",
              "system": "http://loinc.org",
              "display": "Hematocrit [Volume Fraction] of Blood by Automated count"
            }
          ],
          "text": "Hematocrit [Volume Fraction] of Blood by Automated count"
        },
        "valueQuantity": {
          "system": "http://unitsofmeasure.org",
          "value": 42.6,
          "unit": "%",
          "code": "%"
        },
        "referenceRange": [
          {
            "low": {
              "value": 37,
              "code": "%",
              "system": "http://unitsofmeasure.org"
            }
          },
          {
            "high": {
              "value": 52,
              "code": "%",
              "system": "http://unitsofmeasure.org"
            }
          }
        ],
        "text": {
          "status": "generated",
          "div": "<div xmlns=\"http://www.w3.org/1999/xhtml\"><table class=\"hl7__eu__lab__report\"><tr><th>Test</th><th>25-Jun-2025</th><th>Reference&#xA0;Range</th><th>Unit</th></tr><tr><td>Hematocrit [Volume Fraction] of Blood by Automated count</td><td>42.6</td><td>37 - 52</td><td></td><td>%</td></tr></table></div>"
        },
        "status": "final",
        "subject": {
          "reference": "urn:uuid:d578fe6b-083c-4d99-98b9-ed5b7d6d585b",
          "display": "Lazăr Florea"
        },
        "effectiveDateTime": "2025-06-25T13:56:29Z"
      }
    },
    {
      "fullUrl": "urn:uuid:b3bf3357-ac54-4dc9-91d0-22321014f3b6",
      "resource": {
        "resourceType": "Observation",
        "id": "b3bf3357-ac54-4dc9-91d0-22321014f3b6",
        "meta": {
          "profile": [
            "http://hl7.eu/fhir/laboratory/StructureDefinition/Observation-resultslab-eu-lab"
          ]
        },
        "performer": [
          {
            "display": "The Central European Lab"
          }
        ],
        "category": [
          {
            "coding": [
              {
                "system": "http://terminology.hl7.org/CodeSystem/observation-category",
                "code": "laboratory"
              }
            ]
          }
        ],
        "code": {
          "coding": [
            {
              "code": "787-2",
              "system": "http://loinc.org",
              "display": "MCV [Entitic volume] by Automated count"
            }
          ],
          "text": "MCV [Entitic volume] by Automated count"
        },
        "valueQuantity": {
          "system": "http://unitsofmeasure.org",
          "value": 91.2,
          "unit": "fL",
          "code": "fL"
        },
        "referenceRange": [
          {
            "low": {
              "value": 76,
              "code": "fL",
              "system": "http://unitsofmeasure.org"
            }
          },
          {
            "high": {
              "value": 98,
              "code": "fL",
              "system": "http://unitsofmeasure.org"
            }
          }
        ],
        "text": {
          "status": "generated",
          "div": "<div xmlns=\"http://www.w3.org/1999/xhtml\"><table class=\"hl7__eu__lab__report\"><tr><th>Test</th><th>25-Jun-2025</th><th>Reference&#xA0;Range</th><th>Unit</th></tr><tr><td>MCV [Entitic volume] by Automated count</td><td>91.2</td><td>76 - 98</td><td></td><td>fL</td></tr></table></div>"
        },
        "status": "final",
        "subject": {
          "reference": "urn:uuid:d578fe6b-083c-4d99-98b9-ed5b7d6d585b",
          "display": "Lazăr Florea"
        },
        "effectiveDateTime": "2025-06-25T13:56:29Z"
      }
    },
    {
      "fullUrl": "urn:uuid:12b92fff-e129-4efd-bc4b-18bfb38454b7",
      "resource": {
        "resourceType": "Observation",
        "id": "12b92fff-e129-4efd-bc4b-18bfb38454b7",
        "meta": {
          "profile": [
            "http://hl7.eu/fhir/laboratory/StructureDefinition/Observation-resultslab-eu-lab"
          ]
        },
        "performer": [
          {
            "display": "The Central European Lab"
          }
        ],
        "category": [
          {
            "coding": [
              {
                "system": "http://terminology.hl7.org/CodeSystem/observation-category",
                "code": "laboratory"
              }
            ]
          }
        ],
        "code": {
          "coding": [
            {
              "code": "785-6",
              "system": "http://loinc.org",
              "display": "MCH [Entitic mass] by Automated count"
            }
          ],
          "text": "MCH [Entitic mass] by Automated count"
        },
        "valueQuantity": {
          "system": "http://unitsofmeasure.org",
          "value": 31.3,
          "unit": "pg",
          "code": "pg"
        },
        "referenceRange": [
          {
            "low": {
              "value": 27,
              "code": "pg",
              "system": "http://unitsofmeasure.org"
            }
          },
          {
            "high": {
              "value": 34,
              "code": "pg",
              "system": "http://unitsofmeasure.org"
            }
          }
        ],
        "text": {
          "status": "generated",
          "div": "<div xmlns=\"http://www.w3.org/1999/xhtml\"><table class=\"hl7__eu__lab__report\"><tr><th>Test</th><th>25-Jun-2025</th><th>Reference&#xA0;Range</th><th>Unit</th></tr><tr><td>MCH [Entitic mass] by Automated count</td><td>31.3</td><td>27 - 34</td><td></td><td>pg</td></tr></table></div>"
        },
        "status": "final",
        "subject": {
          "reference": "urn:uuid:d578fe6b-083c-4d99-98b9-ed5b7d6d585b",
          "display": "Lazăr Florea"
        },
        "effectiveDateTime": "2025-06-25T13:56:29Z"
      }
    },
    {
      "fullUrl": "urn:uuid:19e091f8-0d77-416c-b5df-4a889919114a",
      "resource": {
        "resourceType": "Observation",
        "id": "19e091f8-0d77-416c-b5df-4a889919114a",
        "meta": {
          "profile": [
            "http://hl7.eu/fhir/laboratory/StructureDefinition/Observation-resultslab-eu-lab"
          ]
        },
        "performer": [
          {
            "display": "The Central European Lab"
          }
        ],
        "category": [
          {
            "coding": [
              {
                "system": "http://terminology.hl7.org/CodeSystem/observation-category",
                "code": "laboratory"
              }
            ]
          }
        ],
        "code": {
          "coding": [
            {
              "code": "786-4",
              "system": "http://loinc.org",
              "display": "MCHC [Mass/volume] by Automated count"
            }
          ],
          "text": "MCHC [Mass/volume] by Automated count"
        },
        "valueQuantity": {
          "system": "http://unitsofmeasure.org",
          "value": 35.5,
          "unit": "g/dL",
          "code": "g/dL"
        },
        "referenceRange": [
          {
            "low": {
              "value": 31,
              "code": "g/dL",
              "system": "http://unitsofmeasure.org"
            }
          },
          {
            "high": {
              "value": 36,
              "code": "g/dL",
              "system": "http://unitsofmeasure.org"
            }
          }
        ],
        "text": {
          "status": "generated",
          "div": "<div xmlns=\"http://www.w3.org/1999/xhtml\"><table class=\"hl7__eu__lab__report\"><tr><th>Test</th><th>25-Jun-2025</th><th>Reference&#xA0;Range</th><th>Unit</th></tr><tr><td>MCHC [Mass/volume] by Automated count</td><td>35.5</td><td>31 - 36</td><td></td><td>g/dL</td></tr></table></div>"
        },
        "status": "final",
        "subject": {
          "reference": "urn:uuid:d578fe6b-083c-4d99-98b9-ed5b7d6d585b",
          "display": "Lazăr Florea"
        },
        "effectiveDateTime": "2025-06-25T13:56:29Z"
      }
    },
    {
      "fullUrl": "urn:uuid:ef0a3149-c27e-41ad-8566-6222f383e2f1",
      "resource": {
        "resourceType": "Observation",
        "id": "ef0a3149-c27e-41ad-8566-6222f383e2f1",
        "meta": {
          "profile": [
            "http://hl7.eu/fhir/laboratory/StructureDefinition/Observation-resultslab-eu-lab"
          ]
        },
        "performer": [
          {
            "display": "The Central European Lab"
          }
        ],
        "category": [
          {
            "coding": [
              {
                "system": "http://terminology.hl7.org/CodeSystem/observation-category",
                "code": "laboratory"
              }
            ]
          }
        ],
        "code": {
          "coding": [
            {
              "code": "21000-5",
              "system": "http://loinc.org",
              "display": "Erythrocyte distribution width [Entitic volume] by Automated count"
            }
          ],
          "text": "Erythrocyte distribution width [Entitic volume] by Automated count"
        },
        "valueQuantity": {
          "system": "http://unitsofmeasure.org",
          "value": 40.3,
          "unit": "fL",
          "code": "fL"
        },
        "referenceRange": [
          {
            "low": {
              "value": 39,
              "code": "fL",
              "system": "http://unitsofmeasure.org"
            }
          },
          {
            "high": {
              "value": 55,
              "code": "fL",
              "system": "http://unitsofmeasure.org"
            }
          }
        ],
        "text": {
          "status": "generated",
          "div": "<div xmlns=\"http://www.w3.org/1999/xhtml\"><table class=\"hl7__eu__lab__report\"><tr><th>Test</th><th>25-Jun-2025</th><th>Reference&#xA0;Range</th><th>Unit</th></tr><tr><td>Erythrocyte distribution width [Entitic volume] by Automated count</td><td>40.3</td><td>39 - 55</td><td></td><td>fL</td></tr></table></div>"
        },
        "status": "final",
        "subject": {
          "reference": "urn:uuid:d578fe6b-083c-4d99-98b9-ed5b7d6d585b",
          "display": "Lazăr Florea"
        },
        "effectiveDateTime": "2025-06-25T13:56:29Z"
      }
    },
    {
      "fullUrl": "urn:uuid:24d3c898-d160-4d13-91fd-07f52e893d23",
      "resource": {
        "resourceType": "Observation",
        "id": "24d3c898-d160-4d13-91fd-07f52e893d23",
        "meta": {
          "profile": [
            "http://hl7.eu/fhir/laboratory/StructureDefinition/Observation-resultslab-eu-lab"
          ]
        },
        "performer": [
          {
            "display": "The Central European Lab"
          }
        ],
        "category": [
          {
            "coding": [
              {
                "system": "http://terminology.hl7.org/CodeSystem/observation-category",
                "code": "laboratory"
              }
            ]
          }
        ],
        "code": {
          "coding": [
            {
              "code": "777-3",
              "system": "http://loinc.org",
              "display": "Platelets [#/volume] in Blood by Automated count"
            }
          ],
          "text": "Platelets [#/volume] in Blood by Automated count"
        },
        "valueQuantity": {
          "system": "http://unitsofmeasure.org",
          "value": 191.7,
          "unit": "10*3/uL",
          "code": "10*3/uL"
        },
        "referenceRange": [
          {
            "low": {
              "value": 140,
              "code": "10*3/uL",
              "system": "http://unitsofmeasure.org"
            }
          },
          {
            "high": {
              "value": 424,
              "code": "10*3/uL",
              "system": "http://unitsofmeasure.org"
            }
          }
        ],
        "text": {
          "status": "generated",
          "div": "<div xmlns=\"http://www.w3.org/1999/xhtml\"><table class=\"hl7__eu__lab__report\"><tr><th>Test</th><th>25-Jun-2025</th><th>Reference&#xA0;Range</th><th>Unit</th></tr><tr><td>Platelets [#/volume] in Blood by Automated count</td><td>191.7</td><td>140 - 424</td><td></td><td>10*3/uL</td></tr></table></div>"
        },
        "status": "final",
        "subject": {
          "reference": "urn:uuid:d578fe6b-083c-4d99-98b9-ed5b7d6d585b",
          "display": "Lazăr Florea"
        },
        "effectiveDateTime": "2025-06-25T13:56:29Z"
      }
    },
    {
      "fullUrl": "urn:uuid:23e09e73-5b42-460c-84ba-35b6e2725ab0",
      "resource": {
        "resourceType": "Observation",
        "id": "23e09e73-5b42-460c-84ba-35b6e2725ab0",
        "meta": {
          "profile": [
            "http://hl7.eu/fhir/laboratory/StructureDefinition/Observation-resultslab-eu-lab"
          ]
        },
        "performer": [
          {
            "display": "The Central European Lab"
          }
        ],
        "category": [
          {
            "coding": [
              {
                "system": "http://terminology.hl7.org/CodeSystem/observation-category",
                "code": "laboratory"
              }
            ]
          }
        ],
        "code": {
          "coding": [
            {
              "code": "32207-3",
              "system": "http://loinc.org",
              "display": "Platelet distribution width [Entitic volume] in Blood by Automated count"
            }
          ],
          "text": "Platelet distribution width [Entitic volume] in Blood by Automated count"
        },
        "valueQuantity": {
          "system": "http://unitsofmeasure.org",
          "value": 309.3,
          "unit": "fL",
          "code": "fL"
        },
        "referenceRange": [
          {
            "low": {
              "value": 13.4,
              "code": "fL",
              "system": "http://unitsofmeasure.org"
            }
          },
          {
            "high": {
              "value": 17.4,
              "code": "fL",
              "system": "http://unitsofmeasure.org"
            }
          }
        ],
        "interpretation": [
          {
            "coding": [
              {
                "code": "H",
                "system": "http://terminology.hl7.org/CodeSystem/v3-ObservationInterpretation",
                "display": "High"
              }
            ]
          }
        ],
        "text": {
          "status": "generated",
          "div": "<div xmlns=\"http://www.w3.org/1999/xhtml\"><table class=\"hl7__eu__lab__report\"><tr><th>Test</th><th>25-Jun-2025</th><th>Reference&#xA0;Range</th><th>Unit</th></tr><tr><td>Platelet distribution width [Entitic volume] in Blood by Automated count</td><td>309.3</td><td>13.4 - 17.4</td><td>H</td><td>fL</td></tr></table></div>"
        },
        "status": "final",
        "subject": {
          "reference": "urn:uuid:d578fe6b-083c-4d99-98b9-ed5b7d6d585b",
          "display": "Lazăr Florea"
        },
        "effectiveDateTime": "2025-06-25T13:56:29Z"
      }
    },
    {
      "fullUrl": "urn:uuid:4f05e47b-bd14-4597-ba2e-5a014c069ab8",
      "resource": {
        "resourceType": "Observation",
        "id": "4f05e47b-bd14-4597-ba2e-5a014c069ab8",
        "meta": {
          "profile": [
            "http://hl7.eu/fhir/laboratory/StructureDefinition/Observation-resultslab-eu-lab"
          ]
        },
        "performer": [
          {
            "display": "The Central European Lab"
          }
        ],
        "category": [
          {
            "coding": [
              {
                "system": "http://terminology.hl7.org/CodeSystem/observation-category",
                "code": "laboratory"
              }
            ]
          }
        ],
        "code": {
          "coding": [
            {
              "code": "32623-1",
              "system": "http://loinc.org",
              "display": "Platelet mean volume [Entitic volume] in Blood by Automated count"
            }
          ],
          "text": "Platelet mean volume [Entitic volume] in Blood by Automated count"
        },
        "valueQuantity": {
          "system": "http://unitsofmeasure.org",
          "value": 11.3,
          "unit": "fL",
          "code": "fL"
        },
        "referenceRange": [
          {
            "low": {
              "value": 7.2,
              "code": "fL",
              "system": "http://unitsofmeasure.org"
            }
          },
          {
            "high": {
              "value": 13.8,
              "code": "fL",
              "system": "http://unitsofmeasure.org"
            }
          }
        ],
        "text": {
          "status": "generated",
          "div": "<div xmlns=\"http://www.w3.org/1999/xhtml\"><table class=\"hl7__eu__lab__report\"><tr><th>Test</th><th>25-Jun-2025</th><th>Reference&#xA0;Range</th><th>Unit</th></tr><tr><td>Platelet mean volume [Entitic volume] in Blood by Automated count</td><td>11.3</td><td>7.2 - 13.8</td><td></td><td>fL</td></tr></table></div>"
        },
        "status": "final",
        "subject": {
          "reference": "urn:uuid:d578fe6b-083c-4d99-98b9-ed5b7d6d585b",
          "display": "Lazăr Florea"
        },
        "effectiveDateTime": "2025-06-25T13:56:29Z"
      }
    },
    {
      "fullUrl": "urn:uuid:811f7222-ae1e-45a2-992d-d8c5e4bb51ea",
      "resource": {
        "resourceType": "DeviceUseStatement",
        "id": "811f7222-ae1e-45a2-992d-d8c5e4bb51ea",
        "meta": {
          "profile": [
            "http://hl7.eu/fhir/eps/StructureDefinition/deviceUseStatement-eu-eps"
          ]
        },
        "timingPeriod": {
          "start": "1993-12-29"
        },
        "text": {
          "status": "generated",
          "div": "<div xmlns=\"http://www.w3.org/1999/xhtml\"><table class=\"hl7__ips\"><tr><td>Blood glucose meter (physical object)</td><td><span class=\"nb\">29-Dec-1993</span></td></tr></table></div>"
        },
        "status": "active",
        "device": {
          "reference": "urn:uuid:c6d6b04b-0025-4b17-a177-e213b5c06ca3",
          "display": "Blood glucose meter (physical object)"
        },
        "subject": {
          "reference": "urn:uuid:d578fe6b-083c-4d99-98b9-ed5b7d6d585b",
          "display": "Lazăr Florea"
        }
      }
    },
    {
      "fullUrl": "urn:uuid:c6d6b04b-0025-4b17-a177-e213b5c06ca3",
      "resource": {
        "resourceType": "Device",
        "id": "c6d6b04b-0025-4b17-a177-e213b5c06ca3",
        "meta": {
          "profile": [
            "http://hl7.eu/fhir/eps/StructureDefinition/device-eu-eps"
          ]
        },
        "udiCarrier": [
          {
            "id": "(01)35591451634533(11)931208(17)181223(10)49370150(21)5345"
          }
        ],
        "status": "active",
        "patient": {
          "reference": "urn:uuid:d578fe6b-083c-4d99-98b9-ed5b7d6d585b",
          "display": "Lazăr Florea"
        },
        "type": {
          "coding": [
            {
              "code": "337414009",
              "system": "http://snomed.info/sct",
              "display": "Blood glucose meter (physical object)"
            }
          ]
        }
      }
    },
    {
      "fullUrl": "urn:uuid:4a2968ac-aa45-4524-88ea-98c78d0be00f",
      "resource": {
        "resourceType": "DeviceUseStatement",
        "id": "4a2968ac-aa45-4524-88ea-98c78d0be00f",
        "meta": {
          "profile": [
            "http://hl7.eu/fhir/eps/StructureDefinition/deviceUseStatement-eu-eps"
          ]
        },
        "timingPeriod": {
          "start": "1966-07-10"
        },
        "text": {
          "status": "generated",
          "div": "<div xmlns=\"http://www.w3.org/1999/xhtml\"><table class=\"hl7__ips\"><tr><td>Home nebulizer (physical object)</td><td><span class=\"nb\">10-Jul-1966</span></td></tr></table></div>"
        },
        "status": "active",
        "device": {
          "reference": "urn:uuid:27a25260-8828-4c12-8151-7b81c405ef71",
          "display": "Home nebulizer (physical object)"
        },
        "subject": {
          "reference": "urn:uuid:d578fe6b-083c-4d99-98b9-ed5b7d6d585b",
          "display": "Lazăr Florea"
        }
      }
    },
    {
      "fullUrl": "urn:uuid:27a25260-8828-4c12-8151-7b81c405ef71",
      "resource": {
        "resourceType": "Device",
        "id": "27a25260-8828-4c12-8151-7b81c405ef71",
        "meta": {
          "profile": [
            "http://hl7.eu/fhir/eps/StructureDefinition/device-eu-eps"
          ]
        },
        "udiCarrier": [
          {
            "id": "(01)70052578812858(11)660619(17)910704(10)31913(21)57968"
          }
        ],
        "status": "active",
        "patient": {
          "reference": "urn:uuid:d578fe6b-083c-4d99-98b9-ed5b7d6d585b",
          "display": "Lazăr Florea"
        },
        "type": {
          "coding": [
            {
              "code": "170615005",
              "system": "http://snomed.info/sct",
              "display": "Home nebulizer (physical object)"
            }
          ]
        }
      }
    },
    {
      "fullUrl": "urn:uuid:71d4b042-d8d5-47f7-9361-ded42e14ce64",
      "resource": {
        "resourceType": "Device",
        "id": "71d4b042-d8d5-47f7-9361-ded42e14ce64",
        "deviceName": [
          {
            "name": "SYNDERAI Synthetic Generator",
            "type": "manufacturer-name"
          }
        ],
        "version": [
          {
            "value": "5.0"
          }
        ],
        "text": {
          "status": "generated",
          "div": "<div xmlns=\"http://www.w3.org/1999/xhtml\">SYNDERAI Synthetic Generator v5.0</div>"
        },
        "status": "active\"",
        "distinctIdentifier": "synderai-generator-50",
        "manufacturer": "SYNDERAI Project"
      }
    },
    {
      "fullUrl": "urn:uuid:75172938-5f00-443d-921b-bfd0efd0a54a",
      "resource": {
        "resourceType": "Provenance",
        "id": "75172938-5f00-443d-921b-bfd0efd0a54a",
        "target": [
          {
            "reference": "Patient/d578fe6b-083c-4d99-98b9-ed5b7d6d585b"
          },
          {
            "reference": "Bundle/84506b67-f168-4353-8edc-d76795564467"
          },
          {
            "reference": "Composition/5c912b11-dbc9-44b1-a27c-508c2ef18634"
          },
          {
            "reference": "PractitionerRole/6702cff5-8631-4a92-bd87-a3fb49433715"
          },
          {
            "reference": "Organization/30b12ab0-55e3-41cb-bc24-e2cbf8cc50a8"
          },
          {
            "reference": "Practitioner/11b0fab1-adc7-48fa-8ba1-75c819ba3d22"
          }
        ],
        "activity": {
          "text": "Synthetic Example Data Generation"
        },
        "policy": [
          "https://synderai.net/synderai-synthetic-data-policy"
        ],
        "agent": [
          {
            "type": {
              "text": "author"
            },
            "who": {
              "reference": "Device/71d4b042-d8d5-47f7-9361-ded42e14ce64"
            }
          }
        ],
        "reason": [
          {
            "text": "Interoperability Testing and Training (non-clinical use)"
          }
        ],
        "text": {
          "status": "generated",
          "div": "<div xmlns=\"http://www.w3.org/1999/xhtml\">Provenance for SYNDERAI Synthetic Example Data Resource</div>"
        },
        "recorded": "2025-06-25T13:56:29Z"
      }
    }
  ],
  "type": "document",
  "timestamp": "2025-06-25T13:56:29Z"
}
