{
  "resourceType": "Bundle",
  "id": "27dd6075-9ebc-4675-9517-163aaf97fdc2",
  "meta": {
    "profile": [
      "http://hl7.eu/fhir/eps/StructureDefinition/bundle-eu-eps"
    ]
  },
  "identifier": {
    "assigner": {
      "display": "HL7 Europe"
    },
    "system": "urn:oid:2.16.840.1.113883.2.51.999",
    "value": "a081361d-69d4-4532-8c10-cc2f96f318d4"
  },
  "entry": [
    {
      "fullUrl": "urn:uuid:4c7e194e-ccad-410e-a9c8-fbb44160b953",
      "resource": {
        "resourceType": "Composition",
        "id": "4c7e194e-ccad-410e-a9c8-fbb44160b953",
        "meta": {
          "security": [
            {
              "system": "http://terminology.hl7.org/CodeSystem/v3-ActReason",
              "code": "HTEST"
            },
            {
              "system": "http://terminology.hl7.org/CodeSystem/v3-ActReason",
              "code": "TRAIN"
            }
          ],
          "tag": [
            {
              "system": "https://synderai.net/fhir/CodeSystem/tags",
              "code": "synthetic",
              "display": "SYNDERAI Synthetic data"
            }
          ],
          "profile": [
            "http://hl7.eu/fhir/eps/StructureDefinition/composition-eu-eps"
          ]
        },
        "identifier": {
          "assigner": {
            "display": "HL7 Europe"
          },
          "system": "urn:oid:2.16.840.1.113883.2.51.999",
          "value": "83888054-a541-42c6-982c-be16a37f37a7"
        },
        "type": {
          "coding": [
            {
              "system": "http://loinc.org",
              "code": "60591-5",
              "display": "Patient summary Document"
            }
          ],
          "text": "Patient summary Document"
        },
        "author": [
          {
            "reference": "urn:uuid:1150ad9c-240c-4c19-bbef-c45cbe82561f"
          }
        ],
        "section": [
          {
            "text": {
              "status": "generated",
              "div": "<div xmlns=\"http://www.w3.org/1999/xhtml\"><table class=\"hl7__ips\"><tr><th>Condition</th><th>Onset Date</th><th>Status</th></tr><tr><td>Neuropathy due to type 2 diabetes mellitus</td><td><span class=\"nb\">16-Aug-2024</span></td><td>active</td></tr><tr><td>Hypertriglyceridemia</td><td><span class=\"nb\">26-Jun-2015</span></td><td>active</td></tr><tr><td>Type 2 diabetes mellitus</td><td><span class=\"nb\">20-Jun-2014</span></td><td>active</td></tr><tr><td>Metabolic syndrome X</td><td><span class=\"nb\">20-Jun-2014</span></td><td>active</td></tr><tr><td>Anemia</td><td><span class=\"nb\">02-Aug-1985</span></td><td>active</td></tr><tr><td>Prediabetes</td><td><span class=\"nb\">27-Jul-1979</span></td><td>active</td></tr></table></div>"
            },
            "entry": [
              {
                "reference": "urn:uuid:9a12a7af-0af8-4293-ae5e-34b5fecc538d"
              },
              {
                "reference": "urn:uuid:32fed431-8fbf-4241-ab8a-77bb5d313b06"
              },
              {
                "reference": "urn:uuid:eb17008d-df44-41f6-97f6-2613a6cf28f7"
              },
              {
                "reference": "urn:uuid:0864a8fa-319e-4f5a-9030-fc21b79ed08d"
              },
              {
                "reference": "urn:uuid:b6aa4b27-2b10-4c4d-9711-c3539ead5f1c"
              },
              {
                "reference": "urn:uuid:d5f35f6c-e785-4e07-b526-61aad479fad7"
              }
            ],
            "code": {
              "coding": [
                {
                  "system": "http://loinc.org",
                  "code": "11450-4",
                  "display": "Problem list - Reported"
                }
              ]
            },
            "title": "Problem list"
          },
          {
            "text": {
              "status": "generated",
              "div": "<div xmlns=\"http://www.w3.org/1999/xhtml\"><table class=\"hl7__ips\"><tr><th>Medication</th><th>Since</th><th>Form</th><th>Dosage</th><th>Reason</th></tr><tr><td>Vitamin B12 5 MG/ML Injectable Solution</td><td><span class=\"nb\">1985-08-09</span></td><td>-</td><td>1 mL (5 mg) injected intramuscularly once weekly</td><td>-</td></tr></table></div>"
            },
            "entry": [
              {
                "reference": "urn:uuid:0c5160e7-967f-4790-8069-5d3e6cab3f70"
              }
            ],
            "code": {
              "coding": [
                {
                  "system": "http://loinc.org",
                  "code": "10160-0",
                  "display": "History of Medication use Narrative"
                }
              ]
            },
            "title": "Medication list"
          },
          {
            "text": {
              "status": "generated",
              "div": "<div xmlns=\"http://www.w3.org/1999/xhtml\"><table class=\"hl7__ips\"><tr><th>Vaccine</th><th>Date</th></tr><tr><td>Influenza virus antigen only vaccine product</td><td><span class=\"nb\">16-Aug-2024</span></td></tr><tr><td>SARS-CoV-2 mRNA vaccine</td><td><span class=\"nb\">12-Nov-2021</span></td></tr><tr><td>Clostridium tetani toxoid antigen adsorbed only vaccine product</td><td><span class=\"nb\">30-Jul-2021</span></td></tr></table></div>"
            },
            "entry": [
              {
                "reference": "urn:uuid:e85e3694-6ff5-44ef-b315-e0dbe3220522"
              },
              {
                "reference": "urn:uuid:33eaf0ca-154f-4c1a-a566-8729295c03f3"
              },
              {
                "reference": "urn:uuid:e3ee1fb9-18b6-49ef-8c32-26783b464008"
              }
            ],
            "code": {
              "coding": [
                {
                  "system": "http://loinc.org",
                  "code": "11369-6",
                  "display": "History of Immunization note"
                }
              ]
            },
            "title": "Immunizations list"
          },
          {
            "text": {
              "status": "generated",
              "div": "<div xmlns=\"http://www.w3.org/1999/xhtml\"><table class=\"hl7__ips\"><tr><th>Allergy/Intolerance</th><th>Onset Date</th><th>Status</th><th>Type</th><th>Reaction</th></tr><tr><td>Vaccine product containing only Clostridium tetani toxoid antigen adsorbed</td><td>?</td><td>active</td><td>?</td><td></td></tr></table></div>"
            },
            "entry": [
              {
                "reference": "urn:uuid:dd5a1695-d6c1-4cfd-b47b-34f73e3cdd68"
              }
            ],
            "code": {
              "coding": [
                {
                  "system": "http://loinc.org",
                  "code": "48765-2",
                  "display": "Allergies and adverse reactions Document"
                }
              ]
            },
            "title": "Allergies and Intolerances"
          },
          {
            "text": {
              "status": "generated",
              "div": "<div xmlns=\"http://www.w3.org/1999/xhtml\"><table class=\"hl7__ips\"><tr><th>Active Planned Care / Goals</th><th>Start Date</th><th>Reason</th></tr><tr><td>Diabetes self management plan</td><td><span class=\"nb\">27-Jul-1979</span></td><td>Prediabetes</td></tr><tr><td><ul><li>Patient will implement and maintain a diabetes self-management plan to address prediabetes and reduce risk of progression to type 2 diabetes.</li></ul></td><td></td><td></td></tr><tr><th>Immunization Recommendation</th><th>Due Date</th><th>Reason</th></tr><tr><td>Vaccine product containing only Influenza virus antigen (medicinal product)</td><td><span class=\"nb\">01-Oct-2025</span></td><td>Annual seasonal influenza vaccination</td></tr></table></div>"
            },
            "entry": [
              {
                "reference": "urn:uuid:3996e3c8-4d76-479a-abd8-72bf00a1c6a0"
              },
              {
                "reference": "urn:uuid:3b77054a-92cc-4a8f-af7b-0c0718096416"
              }
            ],
            "code": {
              "coding": [
                {
                  "system": "http://loinc.org",
                  "code": "18776-5",
                  "display": "Plan of care note"
                }
              ]
            },
            "title": "Care Plan"
          },
          {
            "text": {
              "status": "generated",
              "div": "<div xmlns=\"http://www.w3.org/1999/xhtml\"><table class=\"hl7__ips\"><tr><th>Vital Signs</th><th>2024-08-16</th><th>2023-08-11</th></tr><tr><td>Body Height</td><td>165.5 cm</td><td>165.5 cm</td></tr><tr><td>Pain severity - 0-10 verbal numeric rating [Score] - Reported</td><td>3 {score}</td><td>1 {score}</td></tr><tr><td>Body Weight</td><td>76.6 kg</td><td>76.6 kg</td></tr><tr><td>Body mass index (BMI) [Ratio]</td><td>28 kg/m2</td><td>28 kg/m2</td></tr><tr><td>Diastolic Blood Pressure</td><td>75 mm[Hg]</td><td>76 mm[Hg]</td></tr><tr><td>Systolic Blood Pressure</td><td>119 mm[Hg]</td><td>126 mm[Hg]</td></tr><tr><td>Heart rate</td><td>92 /min</td><td>71 /min</td></tr><tr><td>Respiratory rate</td><td>12 /min</td><td>16 /min</td></tr></table></div>"
            },
            "entry": [
              {
                "reference": "urn:uuid:9d24fa78-50d9-4d28-ae55-8ef5f1c0aa12"
              },
              {
                "reference": "urn:uuid:756e6999-dc8e-4303-9422-25d67b2ed3a9"
              },
              {
                "reference": "urn:uuid:84bfbb6c-fe52-4466-841f-5486d32db6b7"
              },
              {
                "reference": "urn:uuid:c127765b-a1b7-4537-be46-a443254c93b6"
              },
              {
                "reference": "urn:uuid:66817f78-ce6b-4770-b211-a3b690794c60"
              },
              {
                "reference": "urn:uuid:0425cec9-59b6-4f58-9bd0-9e5472cd7b09"
              },
              {
                "reference": "urn:uuid:14c84fde-a08d-433d-bf33-0517778faa1d"
              },
              {
                "reference": "urn:uuid:508d209a-0a81-4642-bcb8-fd3d2c003e53"
              },
              {
                "reference": "urn:uuid:3e4850de-e0a7-4c1a-b6de-1760a51b5f4c"
              },
              {
                "reference": "urn:uuid:62aeda0b-ce59-4a0d-8005-d1e97e40af27"
              },
              {
                "reference": "urn:uuid:b60b5c22-ce8f-496b-9841-104cf317ae5d"
              },
              {
                "reference": "urn:uuid:837767cb-7559-45b4-b147-e2d3eb3dc4a0"
              },
              {
                "reference": "urn:uuid:1dae529c-8bb1-4d1e-af67-c2951c07a98d"
              },
              {
                "reference": "urn:uuid:7b331d58-5c89-4552-aed0-2c321fca5e75"
              },
              {
                "reference": "urn:uuid:f945b8e1-9461-4793-8418-9ec7041e98dc"
              },
              {
                "reference": "urn:uuid:4c8bab30-e7fb-4a56-899e-5fa5236d5cdd"
              }
            ],
            "code": {
              "coding": [
                {
                  "system": "http://loinc.org",
                  "code": "8716-3",
                  "display": "Vital signs note"
                }
              ]
            },
            "title": "Vital Signs"
          },
          {
            "text": {
              "status": "generated",
              "div": "<div xmlns=\"http://www.w3.org/1999/xhtml\"><table class=\"hl7__ips\"><table class=\"hl7__ips\"><thead><tr><th>Recent Lab Observations</th><th>16-AUG-2024</th><th>Reference&#xA0;Range</th><th>Unit</th></tr></thead><tbody><tr><td>Hemoglobin A1c/Hemoglobin.total in Blood</td><td><strong>7.0 H</strong></td><td>4 - 6</td><td>%</td></tr><tr><td>Glucose [Mass/volume] in Blood</td><td>110.5</td><td>70 - 140</td><td>mg/dL</td></tr><tr><td>Urea nitrogen [Mass/volume] in Blood</td><td>17.2</td><td>7 - 25</td><td>mg/dL</td></tr><tr><td>Creatinine [Mass/volume] in Blood</td><td>0.9</td><td>0.6 - 1.1</td><td>mg/dL</td></tr><tr><td>Calcium [Mass/volume] in Blood</td><td>10.2</td><td>8.5 - 10.4</td><td>mg/dL</td></tr><tr><td>Sodium [Moles/volume] in Blood</td><td>141.0</td><td>135 - 145</td><td>mmol/L</td></tr><tr><td>Potassium [Moles/volume] in Blood</td><td>3.9</td><td>3.5 - 5.1</td><td>mmol/L</td></tr><tr><td>Chloride [Moles/volume] in Blood</td><td><strong>108.0 H</strong></td><td>98 - 107</td><td>mmol/L</td></tr><tr><td>Carbon dioxide, total [Moles/volume] in Blood</td><td>27.7</td><td>22 - 29</td><td>mmol/L</td></tr><tr><td>Cholesterol [Mass/volume] in Serum or Plasma</td><td><strong>215.4 H</strong></td><td>125 - 200</td><td>mg/dL</td></tr><tr><td>Triglyceride [Mass/volume] in Serum or Plasma</td><td><strong>196.9 H</strong></td><td>35 - 150</td><td>mg/dL</td></tr><tr><td>Cholesterol in LDL [Mass/volume] in Serum or Plasma by Direct assay</td><td>128.7</td><td>0 - 130</td><td>mg/dL</td></tr><tr><td>Cholesterol in HDL [Mass/volume] in Serum or Plasma</td><td>47.3</td><td>40 - 100</td><td>mg/dL</td></tr><tr><td>Microalbumin/Creatinine [Mass Ratio] in Urine</td><td>10.7</td><td>0 - 30</td><td>mg/g</td></tr></tbody></table></table></div>"
            },
            "entry": [
              {
                "reference": "urn:uuid:707ffadd-f625-4739-9fbb-aa6f3a6756b1"
              },
              {
                "reference": "urn:uuid:f14e5bd0-f008-4ebd-b56e-4ee70a526096"
              },
              {
                "reference": "urn:uuid:a44d6f22-3022-4677-8026-d6e07cf78a0e"
              },
              {
                "reference": "urn:uuid:57296f67-ca07-4255-b744-97a44989e3bd"
              },
              {
                "reference": "urn:uuid:fd0fdfd8-7b90-455f-b867-d62759646a15"
              },
              {
                "reference": "urn:uuid:6f2d1027-6861-49f0-8afb-13800e1f753b"
              },
              {
                "reference": "urn:uuid:47c07d01-c10e-485d-a91f-1488fd8da950"
              },
              {
                "reference": "urn:uuid:f86cea82-3f9e-48df-a5a5-9b0a16c7bfa9"
              },
              {
                "reference": "urn:uuid:338b995c-7bdb-48a6-b67f-ca76f53c654b"
              },
              {
                "reference": "urn:uuid:995e7157-446a-4229-86dc-a636f16f90bc"
              },
              {
                "reference": "urn:uuid:560783cc-39ea-41fe-b060-4d9e7ee14afd"
              },
              {
                "reference": "urn:uuid:98c69bd4-3243-4268-9698-6f3612416028"
              },
              {
                "reference": "urn:uuid:9182a3d5-0b86-43ea-8c89-3a2d16b1b0cc"
              },
              {
                "reference": "urn:uuid:d10bcc4f-c5fe-44ec-9fb6-b872b6ea915a"
              }
            ],
            "code": {
              "coding": [
                {
                  "system": "http://loinc.org",
                  "code": "30954-2",
                  "display": "Relevant diagnostic tests/laboratory data note"
                }
              ]
            },
            "title": "Relevant diagnostic tests/laboratory data"
          },
          {
            "text": {
              "status": "generated",
              "div": "<div xmlns=\"http://www.w3.org/1999/xhtml\"><table class=\"hl7__ips\"><tr><th>Device</th><th>Date (since)</th></tr><tr><td>Blood glucose meter (physical object)</td><td><span class=\"nb\">27-Jul-1979</span></td></tr></table></div>"
            },
            "entry": [
              {
                "reference": "urn:uuid:780a4ad2-3eaf-4020-a0b3-d36849c222d9"
              }
            ],
            "code": {
              "coding": [
                {
                  "system": "http://loinc.org",
                  "code": "46264-8",
                  "display": "History of medical device use"
                }
              ]
            },
            "title": "Device Use"
          }
        ],
        "title": "European Patient Summary",
        "status": "final",
        "subject": {
          "reference": "urn:uuid:ffac24e7-6d05-41a5-82bc-0db71006cfef",
          "display": "Martine Couturier"
        },
        "custodian": {
          "reference": "urn:uuid:e9683268-e0e7-45df-aebf-54750ae884b1"
        },
        "date": "2024-08-16",
        "confidentiality": "N"
      }
    },
    {
      "fullUrl": "urn:uuid:ffac24e7-6d05-41a5-82bc-0db71006cfef",
      "resource": {
        "resourceType": "Patient",
        "id": "ffac24e7-6d05-41a5-82bc-0db71006cfef",
        "meta": {
          "security": [
            {
              "system": "http://terminology.hl7.org/CodeSystem/v3-ActReason",
              "code": "HTEST"
            },
            {
              "system": "http://terminology.hl7.org/CodeSystem/v3-ActReason",
              "code": "TRAIN"
            }
          ],
          "tag": [
            {
              "system": "https://synderai.net/fhir/CodeSystem/tags",
              "code": "synthetic",
              "display": "SYNDERAI Synthetic data"
            }
          ],
          "profile": [
            "http://hl7.eu/fhir/eps/StructureDefinition/patient-eu-eps"
          ]
        },
        "identifier": [
          {
            "type": {
              "coding": [
                {
                  "code": "PT",
                  "system": "http://terminology.hl7.org/CodeSystem/v2-0203"
                }
              ]
            },
            "system": "http://ec.europa.eu/identifier/eci",
            "value": "6614-983327-0"
          },
          {
            "type": {
              "coding": [
                {
                  "code": "MR",
                  "system": "http://terminology.hl7.org/CodeSystem/v2-0203"
                }
              ]
            },
            "system": "http://local.setting.eu/identifier",
            "value": "decdc04d-a1c8-929f-4aad-63136dd70efd"
          }
        ],
        "name": [
          {
            "family": "Couturier"
          },
          {
            "given": [
              "Martine"
            ]
          },
          {
            "text": "Martine Couturier"
          }
        ],
        "address": [
          {
            "line": [
              "458, rue de Bègue"
            ],
            "use": "home",
            "type": "physical",
            "postalCode": "03110",
            "city": "Boutin",
            "country": "France"
          }
        ],
        "telecom": [
          {
            "system": "phone",
            "value": "+33 4 11 66 35 81"
          }
        ],
        "extension": [
          {
            "url": "http://hl7.org/fhir/StructureDefinition/patient-nationality",
            "valueCodeableConcept": {
              "coding": [
                {
                  "code": "FR",
                  "system": "http://hl7.org/fhir/ValueSet/country"
                }
              ]
            }
          }
        ],
        "text": {
          "status": "generated",
          "div": "<div xmlns=\"http://www.w3.org/1999/xhtml\"><table class=\"hl7__ips\"><tr><td>Martine Couturier</td><td>female</td><td>13-Nov-1961</td></tr></table></div>"
        },
        "gender": "female",
        "birthDate": "1961-11-13"
      }
    },
    {
      "fullUrl": "urn:uuid:1150ad9c-240c-4c19-bbef-c45cbe82561f",
      "resource": {
        "resourceType": "PractitionerRole",
        "id": "1150ad9c-240c-4c19-bbef-c45cbe82561f",
        "meta": {
          "profile": [
            "http://hl7.eu/fhir/base/StructureDefinition/practitionerRole-eu"
          ]
        },
        "text": {
          "status": "generated",
          "div": "<div xmlns=\"http://www.w3.org/1999/xhtml\"><table class=\"hl7__ips\">Provider Role Id 1150ad9c-240c-4c19-bbef-c45cbe82561f</table></div>"
        },
        "practitioner": {
          "reference": "urn:uuid:e648b0e4-0c41-47b8-a9be-273c6e40c263"
        },
        "organization": {
          "reference": "urn:uuid:e9683268-e0e7-45df-aebf-54750ae884b1"
        }
      }
    },
    {
      "fullUrl": "urn:uuid:e648b0e4-0c41-47b8-a9be-273c6e40c263",
      "resource": {
        "resourceType": "Practitioner",
        "id": "e648b0e4-0c41-47b8-a9be-273c6e40c263",
        "meta": {
          "profile": [
            "http://hl7.eu/fhir/base/StructureDefinition/practitioner-eu"
          ]
        },
        "name": [
          {
            "prefix": [
              "Dr."
            ],
            "given": [
              "Hel"
            ],
            "family": "Ping"
          }
        ],
        "text": {
          "status": "generated",
          "div": "<div xmlns=\"http://www.w3.org/1999/xhtml\"><table class=\"hl7__ips\">Dr. Hel Ping</table></div>"
        }
      }
    },
    {
      "fullUrl": "urn:uuid:e9683268-e0e7-45df-aebf-54750ae884b1",
      "resource": {
        "resourceType": "Organization",
        "id": "e9683268-e0e7-45df-aebf-54750ae884b1",
        "meta": {
          "profile": [
            "http://hl7.eu/fhir/base/StructureDefinition/organization-eu"
          ]
        },
        "identifier": [
          {
            "assigner": {
              "display": "HL7 Europe"
            },
            "system": "urn:oid:2.16.840.1.113883.2.51.999",
            "value": "4b8ef775-e1f2-47b7-bc24-64b43bb0d58e"
          }
        ],
        "address": [
          {
            "line": [
              "Boulevard Denière 1"
            ],
            "city": "Vichy",
            "postalCode": "03200",
            "country": "France"
          }
        ],
        "text": {
          "status": "generated",
          "div": "<div xmlns=\"http://www.w3.org/1999/xhtml\"><table class=\"hl7__ips\">Centre hospitalier Jacques Lacarin</table></div>"
        },
        "name": "Centre hospitalier Jacques Lacarin"
      }
    },
    {
      "fullUrl": "urn:uuid:9a12a7af-0af8-4293-ae5e-34b5fecc538d",
      "resource": {
        "resourceType": "Condition",
        "id": "9a12a7af-0af8-4293-ae5e-34b5fecc538d",
        "meta": {
          "profile": [
            "http://hl7.org/fhir/uv/ips/StructureDefinition/Condition-uv-ips"
          ]
        },
        "category": [
          {
            "coding": [
              {
                "code": "problem-list-item",
                "system": "http://terminology.hl7.org/CodeSystem/condition-category",
                "display": "Problem List Item"
              }
            ]
          }
        ],
        "code": {
          "coding": [
            {
              "code": "368581000119106",
              "system": "http://snomed.info/sct",
              "display": "Neuropathy due to type 2 diabetes mellitus (disorder)"
            }
          ],
          "text": "Neuropathy due to type 2 diabetes mellitus"
        },
        "text": {
          "status": "generated",
          "div": "<div xmlns=\"http://www.w3.org/1999/xhtml\"><table class=\"hl7__ips\"><tr><td>Neuropathy due to type 2 diabetes mellitus</td><td><span class=\"nb\">16-Aug-2024</span></td><td>active</td></tr></table></div>"
        },
        "onsetDateTime": "2024-08-16",
        "subject": {
          "reference": "urn:uuid:",
          "display": "Martine Couturier"
        },
        "asserter": {
          "reference": "urn:uuid:",
          "display": "Centre hospitalier Jacques Lacarin"
        }
      }
    },
    {
      "fullUrl": "urn:uuid:32fed431-8fbf-4241-ab8a-77bb5d313b06",
      "resource": {
        "resourceType": "Condition",
        "id": "32fed431-8fbf-4241-ab8a-77bb5d313b06",
        "meta": {
          "profile": [
            "http://hl7.org/fhir/uv/ips/StructureDefinition/Condition-uv-ips"
          ]
        },
        "category": [
          {
            "coding": [
              {
                "code": "problem-list-item",
                "system": "http://terminology.hl7.org/CodeSystem/condition-category",
                "display": "Problem List Item"
              }
            ]
          }
        ],
        "code": {
          "coding": [
            {
              "code": "302870006",
              "system": "http://snomed.info/sct",
              "display": "Hypertriglyceridemia (disorder)"
            }
          ],
          "text": "Hypertriglyceridemia"
        },
        "text": {
          "status": "generated",
          "div": "<div xmlns=\"http://www.w3.org/1999/xhtml\"><table class=\"hl7__ips\"><tr><td>Hypertriglyceridemia</td><td><span class=\"nb\">26-Jun-2015</span></td><td>active</td></tr></table></div>"
        },
        "onsetDateTime": "2015-06-26",
        "subject": {
          "reference": "urn:uuid:",
          "display": "Martine Couturier"
        },
        "asserter": {
          "reference": "urn:uuid:",
          "display": "Centre hospitalier Jacques Lacarin"
        }
      }
    },
    {
      "fullUrl": "urn:uuid:eb17008d-df44-41f6-97f6-2613a6cf28f7",
      "resource": {
        "resourceType": "Condition",
        "id": "eb17008d-df44-41f6-97f6-2613a6cf28f7",
        "meta": {
          "profile": [
            "http://hl7.org/fhir/uv/ips/StructureDefinition/Condition-uv-ips"
          ]
        },
        "category": [
          {
            "coding": [
              {
                "code": "problem-list-item",
                "system": "http://terminology.hl7.org/CodeSystem/condition-category",
                "display": "Problem List Item"
              }
            ]
          }
        ],
        "code": {
          "coding": [
            {
              "code": "44054006",
              "system": "http://snomed.info/sct",
              "display": "Diabetes mellitus type 2 (disorder)"
            }
          ],
          "text": "Type 2 diabetes mellitus"
        },
        "text": {
          "status": "generated",
          "div": "<div xmlns=\"http://www.w3.org/1999/xhtml\"><table class=\"hl7__ips\"><tr><td>Type 2 diabetes mellitus</td><td><span class=\"nb\">20-Jun-2014</span></td><td>active</td></tr></table></div>"
        },
        "onsetDateTime": "2014-06-20",
        "subject": {
          "reference": "urn:uuid:",
          "display": "Martine Couturier"
        },
        "asserter": {
          "reference": "urn:uuid:",
          "display": "Centre hospitalier Jacques Lacarin"
        }
      }
    },
    {
      "fullUrl": "urn:uuid:0864a8fa-319e-4f5a-9030-fc21b79ed08d",
      "resource": {
        "resourceType": "Condition",
        "id": "0864a8fa-319e-4f5a-9030-fc21b79ed08d",
        "meta": {
          "profile": [
            "http://hl7.org/fhir/uv/ips/StructureDefinition/Condition-uv-ips"
          ]
        },
        "category": [
          {
            "coding": [
              {
                "code": "problem-list-item",
                "system": "http://terminology.hl7.org/CodeSystem/condition-category",
                "display": "Problem List Item"
              }
            ]
          }
        ],
        "code": {
          "coding": [
            {
              "code": "237602007",
              "system": "http://snomed.info/sct",
              "display": "Metabolic syndrome X (disorder)"
            }
          ],
          "text": "Metabolic syndrome X"
        },
        "text": {
          "status": "generated",
          "div": "<div xmlns=\"http://www.w3.org/1999/xhtml\"><table class=\"hl7__ips\"><tr><td>Metabolic syndrome X</td><td><span class=\"nb\">20-Jun-2014</span></td><td>active</td></tr></table></div>"
        },
        "onsetDateTime": "2014-06-20",
        "subject": {
          "reference": "urn:uuid:",
          "display": "Martine Couturier"
        },
        "asserter": {
          "reference": "urn:uuid:",
          "display": "Centre hospitalier Jacques Lacarin"
        }
      }
    },
    {
      "fullUrl": "urn:uuid:b6aa4b27-2b10-4c4d-9711-c3539ead5f1c",
      "resource": {
        "resourceType": "Condition",
        "id": "b6aa4b27-2b10-4c4d-9711-c3539ead5f1c",
        "meta": {
          "profile": [
            "http://hl7.org/fhir/uv/ips/StructureDefinition/Condition-uv-ips"
          ]
        },
        "category": [
          {
            "coding": [
              {
                "code": "problem-list-item",
                "system": "http://terminology.hl7.org/CodeSystem/condition-category",
                "display": "Problem List Item"
              }
            ]
          }
        ],
        "code": {
          "coding": [
            {
              "code": "271737000",
              "system": "http://snomed.info/sct",
              "display": "Anemia (disorder)"
            }
          ],
          "text": "Anemia"
        },
        "text": {
          "status": "generated",
          "div": "<div xmlns=\"http://www.w3.org/1999/xhtml\"><table class=\"hl7__ips\"><tr><td>Anemia</td><td><span class=\"nb\">02-Aug-1985</span></td><td>active</td></tr></table></div>"
        },
        "onsetDateTime": "1985-08-02",
        "subject": {
          "reference": "urn:uuid:",
          "display": "Martine Couturier"
        },
        "asserter": {
          "reference": "urn:uuid:",
          "display": "Centre hospitalier Jacques Lacarin"
        }
      }
    },
    {
      "fullUrl": "urn:uuid:d5f35f6c-e785-4e07-b526-61aad479fad7",
      "resource": {
        "resourceType": "Condition",
        "id": "d5f35f6c-e785-4e07-b526-61aad479fad7",
        "meta": {
          "profile": [
            "http://hl7.org/fhir/uv/ips/StructureDefinition/Condition-uv-ips"
          ]
        },
        "category": [
          {
            "coding": [
              {
                "code": "problem-list-item",
                "system": "http://terminology.hl7.org/CodeSystem/condition-category",
                "display": "Problem List Item"
              }
            ]
          }
        ],
        "code": {
          "coding": [
            {
              "code": "15777000",
              "system": "http://snomed.info/sct",
              "display": "Prediabetes (disorder)"
            }
          ],
          "text": "Prediabetes"
        },
        "text": {
          "status": "generated",
          "div": "<div xmlns=\"http://www.w3.org/1999/xhtml\"><table class=\"hl7__ips\"><tr><td>Prediabetes</td><td><span class=\"nb\">27-Jul-1979</span></td><td>active</td></tr></table></div>"
        },
        "onsetDateTime": "1979-07-27",
        "subject": {
          "reference": "urn:uuid:",
          "display": "Martine Couturier"
        },
        "asserter": {
          "reference": "urn:uuid:",
          "display": "Centre hospitalier Jacques Lacarin"
        }
      }
    },
    {
      "fullUrl": "urn:uuid:8cdc7a93-d74b-4bfb-b548-d506f9ae7721",
      "resource": {
        "resourceType": "Condition",
        "id": "8cdc7a93-d74b-4bfb-b548-d506f9ae7721",
        "meta": {
          "profile": [
            "http://hl7.org/fhir/uv/ips/StructureDefinition/Condition-uv-ips"
          ]
        },
        "category": [
          {
            "coding": [
              {
                "code": "problem-list-item",
                "system": "http://terminology.hl7.org/CodeSystem/condition-category",
                "display": "Problem List Item"
              }
            ]
          }
        ],
        "code": {
          "coding": [
            {
              "code": "444814009",
              "system": "http://snomed.info/sct",
              "display": "Viral sinusitis (disorder)"
            }
          ],
          "text": "Viral sinusitis"
        },
        "text": {
          "status": "generated",
          "div": "<div xmlns=\"http://www.w3.org/1999/xhtml\"><table class=\"hl7__ips\"><tr><td><span class=\"grayedout\">Viral sinusitis</span></td><td><span class=\"nb\">25-May-2022 - 04-Jun-2022</span></td><td><span class=\"grayedout\">inactive</span></td></tr></table></div>"
        },
        "onsetDateTime": "2022-05-25",
        "abatementDateTime": "2022-06-04",
        "subject": {
          "reference": "urn:uuid:",
          "display": "Martine Couturier"
        },
        "asserter": {
          "reference": "urn:uuid:",
          "display": "Centre hospitalier Jacques Lacarin"
        }
      }
    },
    {
      "fullUrl": "urn:uuid:5ea6094a-5bd2-4876-a841-ec4c1dcafb0b",
      "resource": {
        "resourceType": "Condition",
        "id": "5ea6094a-5bd2-4876-a841-ec4c1dcafb0b",
        "meta": {
          "profile": [
            "http://hl7.org/fhir/uv/ips/StructureDefinition/Condition-uv-ips"
          ]
        },
        "category": [
          {
            "coding": [
              {
                "code": "problem-list-item",
                "system": "http://terminology.hl7.org/CodeSystem/condition-category",
                "display": "Problem List Item"
              }
            ]
          }
        ],
        "code": {
          "coding": [
            {
              "code": "68496003",
              "system": "http://snomed.info/sct",
              "display": "Polyp of colon (disorder)"
            }
          ],
          "text": "Polyp of colon"
        },
        "text": {
          "status": "generated",
          "div": "<div xmlns=\"http://www.w3.org/1999/xhtml\"><table class=\"hl7__ips\"><tr><td><span class=\"grayedout\">Polyp of colon</span></td><td><span class=\"nb\">03-Jun-2020 - 24-Jun-2021</span></td><td><span class=\"grayedout\">inactive</span></td></tr></table></div>"
        },
        "onsetDateTime": "2020-06-03",
        "abatementDateTime": "2021-06-24",
        "subject": {
          "reference": "urn:uuid:",
          "display": "Martine Couturier"
        },
        "asserter": {
          "reference": "urn:uuid:",
          "display": "Centre hospitalier Jacques Lacarin"
        }
      }
    },
    {
      "fullUrl": "urn:uuid:04a7b15c-eee3-4ff1-a45f-16c479644df9",
      "resource": {
        "resourceType": "Condition",
        "id": "04a7b15c-eee3-4ff1-a45f-16c479644df9",
        "meta": {
          "profile": [
            "http://hl7.org/fhir/uv/ips/StructureDefinition/Condition-uv-ips"
          ]
        },
        "category": [
          {
            "coding": [
              {
                "code": "problem-list-item",
                "system": "http://terminology.hl7.org/CodeSystem/condition-category",
                "display": "Problem List Item"
              }
            ]
          }
        ],
        "code": {
          "coding": [
            {
              "code": "195662009",
              "system": "http://snomed.info/sct",
              "display": "Acute viral pharyngitis (disorder)"
            }
          ],
          "text": "Acute viral pharyngitis"
        },
        "text": {
          "status": "generated",
          "div": "<div xmlns=\"http://www.w3.org/1999/xhtml\"><table class=\"hl7__ips\"><tr><td><span class=\"grayedout\">Acute viral pharyngitis</span></td><td><span class=\"nb\">20-Oct-2019 - 31-Oct-2019</span></td><td><span class=\"grayedout\">inactive</span></td></tr></table></div>"
        },
        "onsetDateTime": "2019-10-20",
        "abatementDateTime": "2019-10-31",
        "subject": {
          "reference": "urn:uuid:",
          "display": "Martine Couturier"
        },
        "asserter": {
          "reference": "urn:uuid:",
          "display": "Centre hospitalier Jacques Lacarin"
        }
      }
    },
    {
      "fullUrl": "urn:uuid:14bcf726-87e4-4b01-9ddd-5ca9a6b90c0e",
      "resource": {
        "resourceType": "Condition",
        "id": "14bcf726-87e4-4b01-9ddd-5ca9a6b90c0e",
        "meta": {
          "profile": [
            "http://hl7.org/fhir/uv/ips/StructureDefinition/Condition-uv-ips"
          ]
        },
        "category": [
          {
            "coding": [
              {
                "code": "problem-list-item",
                "system": "http://terminology.hl7.org/CodeSystem/condition-category",
                "display": "Problem List Item"
              }
            ]
          }
        ],
        "code": {
          "coding": [
            {
              "code": "444814009",
              "system": "http://snomed.info/sct",
              "display": "Viral sinusitis (disorder)"
            }
          ],
          "text": "Viral sinusitis"
        },
        "text": {
          "status": "generated",
          "div": "<div xmlns=\"http://www.w3.org/1999/xhtml\"><table class=\"hl7__ips\"><tr><td><span class=\"grayedout\">Viral sinusitis</span></td><td><span class=\"nb\">11-Aug-2018 - 03-Sep-2018</span></td><td><span class=\"grayedout\">inactive</span></td></tr></table></div>"
        },
        "onsetDateTime": "2018-08-11",
        "abatementDateTime": "2018-09-03",
        "subject": {
          "reference": "urn:uuid:",
          "display": "Martine Couturier"
        },
        "asserter": {
          "reference": "urn:uuid:",
          "display": "Centre hospitalier Jacques Lacarin"
        }
      }
    },
    {
      "fullUrl": "urn:uuid:4e8a3ce5-3d63-4490-af13-f909d2ab4fa5",
      "resource": {
        "resourceType": "Condition",
        "id": "4e8a3ce5-3d63-4490-af13-f909d2ab4fa5",
        "meta": {
          "profile": [
            "http://hl7.org/fhir/uv/ips/StructureDefinition/Condition-uv-ips"
          ]
        },
        "category": [
          {
            "coding": [
              {
                "code": "problem-list-item",
                "system": "http://terminology.hl7.org/CodeSystem/condition-category",
                "display": "Problem List Item"
              }
            ]
          }
        ],
        "code": {
          "coding": [
            {
              "code": "444814009",
              "system": "http://snomed.info/sct",
              "display": "Viral sinusitis (disorder)"
            }
          ],
          "text": "Viral sinusitis"
        },
        "text": {
          "status": "generated",
          "div": "<div xmlns=\"http://www.w3.org/1999/xhtml\"><table class=\"hl7__ips\"><tr><td><span class=\"grayedout\">Viral sinusitis</span></td><td><span class=\"nb\">22-Jun-2016 - 16-Jul-2016</span></td><td><span class=\"grayedout\">inactive</span></td></tr></table></div>"
        },
        "onsetDateTime": "2016-06-22",
        "abatementDateTime": "2016-07-16",
        "subject": {
          "reference": "urn:uuid:",
          "display": "Martine Couturier"
        },
        "asserter": {
          "reference": "urn:uuid:",
          "display": "Centre hospitalier Jacques Lacarin"
        }
      }
    },
    {
      "fullUrl": "urn:uuid:2a927280-7b98-43d5-b913-433703df3eec",
      "resource": {
        "resourceType": "Medication",
        "id": "2a927280-7b98-43d5-b913-433703df3eec",
        "meta": {
          "profile": [
            "http://hl7.eu/fhir/eps/StructureDefinition/Medication-eu-eps"
          ]
        },
        "code": {
          "coding": [
            {
              "code": "2001499",
              "system": "http://www.nlm.nih.gov/research/umls/rxnorm",
              "display": "Vitamin B12 5 MG/ML Injectable Solution"
            }
          ],
          "text": "Vitamin B12 5 MG/ML Injectable Solution"
        },
        "text": {
          "status": "generated",
          "div": "<div xmlns=\"http://www.w3.org/1999/xhtml\">Vitamin B12 5 MG/ML Injectable Solution</div>"
        }
      }
    },
    {
      "fullUrl": "urn:uuid:0c5160e7-967f-4790-8069-5d3e6cab3f70",
      "resource": {
        "resourceType": "MedicationStatement",
        "id": "0c5160e7-967f-4790-8069-5d3e6cab3f70",
        "meta": {
          "profile": [
            "http://hl7.eu/fhir/eps/StructureDefinition/MedicationStatement-eu-eps"
          ]
        },
        "effectivePeriod": {
          "start": "1985-08-09"
        },
        "dosage": [
          {
            "doseAndRate": [
              {
                "doseQuantity": {
                  "value": 1,
                  "unit": "mL",
                  "system": "$ucum",
                  "code": "mL"
                }
              }
            ],
            "timing": {
              "repeat": {
                "frequency": 1,
                "period": 1,
                "periodUnit": "wk"
              }
            },
            "text": "1 mL (5 mg) injected intramuscularly once weekly",
            "asNeededBoolean": false
          }
        ],
        "text": {
          "status": "generated",
          "div": "<div xmlns=\"http://www.w3.org/1999/xhtml\"><table class=\"hl7__ips first25\"><tr><th>Medication</th><th>Since</th><th>Form</th><th>Dosage</th><th>Reason</th></tr><tr><td>Vitamin B12 5 MG/ML Injectable Solution</td><td><span class=\"nb\">1985-08-09</span></td><td>-</td><td>1 mL (5 mg) injected intramuscularly once weekly</td><td>-</td></tr></table></div>"
        },
        "status": "active",
        "medicationReference": {
          "reference": "urn:uuid:2a927280-7b98-43d5-b913-433703df3eec",
          "display": "Vitamin B12 5 MG/ML Injectable Solution"
        },
        "subject": {
          "reference": "urn:uuid:ffac24e7-6d05-41a5-82bc-0db71006cfef",
          "display": "Martine Couturier"
        }
      }
    },
    {
      "fullUrl": "urn:uuid:e85e3694-6ff5-44ef-b315-e0dbe3220522",
      "resource": {
        "resourceType": "Immunization",
        "id": "e85e3694-6ff5-44ef-b315-e0dbe3220522",
        "meta": {
          "profile": [
            "http://hl7.org/fhir/uv/ips/StructureDefinition/Immunization-uv-ips"
          ]
        },
        "vaccineCode": {
          "coding": [
            {
              "code": "1181000221105",
              "system": "http://snomed.info/sct",
              "display": "Vaccine product containing Influenza virus antigen"
            },
            {
              "code": "J07BB02",
              "system": "http://www.whocc.no/atc",
              "display": "Influenza, inactivated, split virus"
            }
          ],
          "text": "Influenza virus antigen only vaccine product"
        },
        "site": {
          "coding": [
            {
              "code": "244979005",
              "system": "http://snomed.info/sct",
              "display": "Entire muscle of upper arm"
            }
          ],
          "text": "Entire muscle of upper arm"
        },
        "route": {
          "coding": [
            {
              "code": "78421000",
              "system": "http://snomed.info/sct",
              "display": "Intramuscular route"
            }
          ],
          "text": "Intramuscular route"
        },
        "text": {
          "status": "generated",
          "div": "<div xmlns=\"http://www.w3.org/1999/xhtml\"><table class=\"hl7__ips\"><tr><td>Influenza virus antigen only vaccine product</td><td><span class=\"nb\">16-Aug-2024</span></td></tr></table></div>"
        },
        "status": "completed",
        "patient": {
          "reference": "urn:uuid:ffac24e7-6d05-41a5-82bc-0db71006cfef",
          "display": "Martine Couturier"
        },
        "occurrenceDateTime": "2024-08-16",
        "lotNumber": "MC-Ud83Nibn",
        "expirationDate": "2024-12-16"
      }
    },
    {
      "fullUrl": "urn:uuid:33eaf0ca-154f-4c1a-a566-8729295c03f3",
      "resource": {
        "resourceType": "Immunization",
        "id": "33eaf0ca-154f-4c1a-a566-8729295c03f3",
        "meta": {
          "profile": [
            "http://hl7.org/fhir/uv/ips/StructureDefinition/Immunization-uv-ips"
          ]
        },
        "vaccineCode": {
          "coding": [
            {
              "code": "1119349007",
              "system": "http://snomed.info/sct",
              "display": "Vaccine product containing SARS-CoV-2 mRNA"
            },
            {
              "code": "J07BX03",
              "system": "http://www.whocc.no/atc",
              "display": "COVID-19 mRNA vaccines"
            }
          ],
          "text": "SARS-CoV-2 mRNA vaccine"
        },
        "site": {
          "coding": [
            {
              "code": "244979005",
              "system": "http://snomed.info/sct",
              "display": "Entire muscle of upper arm"
            }
          ],
          "text": "Entire muscle of upper arm"
        },
        "route": {
          "coding": [
            {
              "code": "78421000",
              "system": "http://snomed.info/sct",
              "display": "Intramuscular route"
            }
          ],
          "text": "Intramuscular route"
        },
        "text": {
          "status": "generated",
          "div": "<div xmlns=\"http://www.w3.org/1999/xhtml\"><table class=\"hl7__ips\"><tr><td>SARS-CoV-2 mRNA vaccine</td><td><span class=\"nb\">12-Nov-2021</span></td></tr></table></div>"
        },
        "status": "completed",
        "patient": {
          "reference": "urn:uuid:ffac24e7-6d05-41a5-82bc-0db71006cfef",
          "display": "Martine Couturier"
        },
        "occurrenceDateTime": "2021-11-12",
        "lotNumber": "WU-hOyvByR",
        "expirationDate": "2022-03-25"
      }
    },
    {
      "fullUrl": "urn:uuid:e3ee1fb9-18b6-49ef-8c32-26783b464008",
      "resource": {
        "resourceType": "Immunization",
        "id": "e3ee1fb9-18b6-49ef-8c32-26783b464008",
        "meta": {
          "profile": [
            "http://hl7.org/fhir/uv/ips/StructureDefinition/Immunization-uv-ips"
          ]
        },
        "vaccineCode": {
          "coding": [
            {
              "code": "777725002",
              "system": "http://snomed.info/sct",
              "display": "Vaccine product containing only Clostridium tetani toxoid antigen adsorbed"
            },
            {
              "code": "J07AM51",
              "system": "http://www.whocc.no/atc",
              "display": "Diphtheria-tetanus vaccines, adult type"
            }
          ],
          "text": "Clostridium tetani toxoid antigen adsorbed only vaccine product"
        },
        "site": {
          "coding": [
            {
              "code": "244979005",
              "system": "http://snomed.info/sct",
              "display": "Entire muscle of upper arm"
            }
          ],
          "text": "Entire muscle of upper arm"
        },
        "route": {
          "coding": [
            {
              "code": "78421000",
              "system": "http://snomed.info/sct",
              "display": "Intramuscular route"
            }
          ],
          "text": "Intramuscular route"
        },
        "text": {
          "status": "generated",
          "div": "<div xmlns=\"http://www.w3.org/1999/xhtml\"><table class=\"hl7__ips\"><tr><td>Clostridium tetani toxoid antigen adsorbed only vaccine product</td><td><span class=\"nb\">30-Jul-2021</span></td></tr></table></div>"
        },
        "status": "completed",
        "patient": {
          "reference": "urn:uuid:ffac24e7-6d05-41a5-82bc-0db71006cfef",
          "display": "Martine Couturier"
        },
        "occurrenceDateTime": "2021-07-30",
        "lotNumber": "OK-WWUVJ",
        "expirationDate": "2022-06-20"
      }
    },
    {
      "fullUrl": "urn:uuid:dd5a1695-d6c1-4cfd-b47b-34f73e3cdd68",
      "resource": {
        "resourceType": "AllergyIntolerance",
        "id": "dd5a1695-d6c1-4cfd-b47b-34f73e3cdd68",
        "meta": {
          "profile": [
            "http://hl7.eu/fhir/eps/StructureDefinition/allergyIntolerance-eu-eps"
          ]
        },
        "code": {
          "coding": [
            {
              "code": "777725002",
              "system": "http://snomed.info/sct",
              "display": "Vaccine product containing only Clostridium tetani toxoid antigen adsorbed"
            }
          ],
          "text": "Vaccine product containing only Clostridium tetani toxoid antigen adsorbed"
        },
        "clinicalStatus": {
          "coding": [
            {
              "code": "active",
              "system": "http://terminology.hl7.org/CodeSystem/allergyintolerance-clinical"
            }
          ]
        },
        "text": {
          "status": "generated",
          "div": "<div xmlns=\"http://www.w3.org/1999/xhtml\"><table class=\"hl7__ips\"><tr><th>Allergy/Intolerance</th><th>Onset Date</th><th>Status</th><th>Type</th><th>Reaction</th></tr><tr><td>Vaccine product containing only Clostridium tetani toxoid antigen adsorbed</td><td>?</td><td>active</td><td>?</td><td></td></tr></table></div>"
        },
        "verificationStatus": {
          "coding": [
            {
              "code": "confirmed",
              "system": "http://terminology.hl7.org/CodeSystem/allergyintolerance-verification"
            }
          ]
        },
        "patient": {
          "reference": "urn:uuid:ffac24e7-6d05-41a5-82bc-0db71006cfef",
          "display": "Martine Couturier"
        },
        "_onsetDateTime": {
          "extension": [
            {
              "url": "http://hl7.org/fhir/StructureDefinition/data-absent-reason",
              "valueCode": "unknown"
            }
          ]
        }
      }
    },
    {
      "fullUrl": "urn:uuid:3996e3c8-4d76-479a-abd8-72bf00a1c6a0",
      "resource": {
        "resourceType": "CarePlan",
        "id": "3996e3c8-4d76-479a-abd8-72bf00a1c6a0",
        "category": [
          {
            "coding": [
              {
                "code": "assess-plan",
                "system": "http://terminology.hl7.org/CodeSystem/care-plan-category",
                "display": "Assessment and Plan"
              }
            ]
          }
        ],
        "activity": [
          {
            "detail": {
              "code": {
                "coding": [
                  {
                    "code": "698360004",
                    "system": "http://snomed.info/sct",
                    "display": "Diabetes self management plan (qualifier value)"
                  }
                ]
              },
              "reasonCode": [
                {
                  "coding": [
                    {
                      "code": "15777000",
                      "system": "http://snomed.info/sct",
                      "display": "Prediabetes"
                    }
                  ]
                }
              ],
              "status": "unknown",
              "description": "Diabetes self management plan",
              "kind": "Appointment"
            }
          }
        ],
        "period": {
          "start": "1979-07-27"
        },
        "goal": [
          {
            "reference": "urn:uuid:8fd07f22-a9a6-43dd-ad50-810dabec47b0"
          }
        ],
        "text": {
          "status": "generated",
          "div": "<div xmlns=\"http://www.w3.org/1999/xhtml\"><table class=\"hl7__ips first25\"><tr><th>Active Planned Care / Goals</th><th>Start Date</th><th>Reason</th></tr><tr><td>Diabetes self management plan</td><td><span class=\"nb\">27-Jul-1979</span></td><td>Prediabetes</td></tr><tr><td><ul><li>Patient will implement and maintain a diabetes self-management plan to address prediabetes and reduce risk of progression to type 2 diabetes.</li></ul></td><td></td><td></td></tr></table></div>"
        },
        "status": "active",
        "intent": "plan",
        "subject": {
          "reference": "urn:uuid:ffac24e7-6d05-41a5-82bc-0db71006cfef",
          "display": "Martine Couturier"
        }
      }
    },
    {
      "fullUrl": "urn:uuid:3b77054a-92cc-4a8f-af7b-0c0718096416",
      "resource": {
        "resourceType": "ImmunizationRecommendation",
        "id": "3b77054a-92cc-4a8f-af7b-0c0718096416",
        "recommendation": [
          {
            "vaccineCode": [
              {
                "coding": [
                  {
                    "code": "1181000221105",
                    "system": "http://snomed.info/sct",
                    "display": "Vaccine product containing only Influenza virus antigen (medicinal product)"
                  }
                ]
              }
            ],
            "dateCriterion": [
              {
                "code": {
                  "coding": [
                    {
                      "code": "30980-7",
                      "system": "http://loinc.org",
                      "display": "Date vaccine due"
                    }
                  ]
                },
                "value": "2025-10-01"
              }
            ],
            "targetDisease": {
              "coding": [
                {
                  "code": "6142004",
                  "system": "http://snomed.info/sct",
                  "display": "Influenza (disorder)"
                }
              ]
            },
            "series": "Annual seasonal influenza vaccination",
            "forecastStatus": {
              "coding": [
                {
                  "code": "due",
                  "system": "http://terminology.hl7.org/CodeSystem/immunization-recommendation-status",
                  "display": "Due"
                }
              ]
            }
          }
        ],
        "text": {
          "status": "generated",
          "div": "<div xmlns=\"http://www.w3.org/1999/xhtml\"><table class=\"hl7__ips\"><tr><td>Vaccine product containing only Influenza virus antigen (medicinal product)</td><td><span class=\"nb\">01-Oct-2025</span></td><td>Annual seasonal influenza vaccination</td></tr></table></div>"
        },
        "date": "2025-10-22",
        "patient": {
          "reference": "urn:uuid:ffac24e7-6d05-41a5-82bc-0db71006cfef",
          "display": "Martine Couturier"
        }
      }
    },
    {
      "fullUrl": "urn:uuid:9d24fa78-50d9-4d28-ae55-8ef5f1c0aa12",
      "resource": {
        "resourceType": "Observation",
        "id": "9d24fa78-50d9-4d28-ae55-8ef5f1c0aa12",
        "meta": {
          "profile": [
            "http://hl7.org/fhir/StructureDefinition/vitalsigns"
          ]
        },
        "category": [
          {
            "coding": [
              {
                "system": "http://terminology.hl7.org/CodeSystem/observation-category",
                "code": "vital-signs",
                "display": "Vital Signs"
              }
            ]
          }
        ],
        "valueQuantity": {
          "value": 165.5,
          "code": "cm",
          "unit": "cm"
        },
        "text": {
          "status": "generated",
          "div": "<div xmlns=\"http://www.w3.org/1999/xhtml\"><table class=\"hl7__ips\"><tr><th>Vital Sign</th><th>Date</th><th>Measurement</th></tr><tr><td>Body Height</td><td>16-Aug-2024</td><td>165.5 cm</td></tr></table></div>"
        },
        "status": "final",
        "code": {
          "coding": [
            {
              "code": "$8302-2",
              "system": "http://loinc.org",
              "display": "Body Height"
            }
          ]
        },
        "subject": {
          "reference": "urn:uuid:ffac24e7-6d05-41a5-82bc-0db71006cfef",
          "display": "Martine Couturier"
        },
        "effectiveDateTime": "2024-08-16"
      }
    },
    {
      "fullUrl": "urn:uuid:756e6999-dc8e-4303-9422-25d67b2ed3a9",
      "resource": {
        "resourceType": "Observation",
        "id": "756e6999-dc8e-4303-9422-25d67b2ed3a9",
        "meta": {
          "profile": [
            "http://hl7.org/fhir/StructureDefinition/vitalsigns"
          ]
        },
        "category": [
          {
            "coding": [
              {
                "system": "http://terminology.hl7.org/CodeSystem/observation-category",
                "code": "vital-signs",
                "display": "Vital Signs"
              }
            ]
          }
        ],
        "valueQuantity": {
          "value": 3,
          "code": "{score}",
          "unit": "{score}"
        },
        "text": {
          "status": "generated",
          "div": "<div xmlns=\"http://www.w3.org/1999/xhtml\"><table class=\"hl7__ips\"><tr><th>Vital Sign</th><th>Date</th><th>Measurement</th></tr><tr><td>Pain severity - 0-10 verbal numeric rating [Score] - Reported</td><td>16-Aug-2024</td><td>3 {score}</td></tr></table></div>"
        },
        "status": "final",
        "code": {
          "coding": [
            {
              "code": "$72514-3",
              "system": "http://loinc.org",
              "display": "Pain severity - 0-10 verbal numeric rating [Score] - Reported"
            }
          ]
        },
        "subject": {
          "reference": "urn:uuid:ffac24e7-6d05-41a5-82bc-0db71006cfef",
          "display": "Martine Couturier"
        },
        "effectiveDateTime": "2024-08-16"
      }
    },
    {
      "fullUrl": "urn:uuid:84bfbb6c-fe52-4466-841f-5486d32db6b7",
      "resource": {
        "resourceType": "Observation",
        "id": "84bfbb6c-fe52-4466-841f-5486d32db6b7",
        "meta": {
          "profile": [
            "http://hl7.org/fhir/StructureDefinition/vitalsigns"
          ]
        },
        "category": [
          {
            "coding": [
              {
                "system": "http://terminology.hl7.org/CodeSystem/observation-category",
                "code": "vital-signs",
                "display": "Vital Signs"
              }
            ]
          }
        ],
        "valueQuantity": {
          "value": 76.6,
          "code": "kg",
          "unit": "kg"
        },
        "text": {
          "status": "generated",
          "div": "<div xmlns=\"http://www.w3.org/1999/xhtml\"><table class=\"hl7__ips\"><tr><th>Vital Sign</th><th>Date</th><th>Measurement</th></tr><tr><td>Body Weight</td><td>16-Aug-2024</td><td>76.6 kg</td></tr></table></div>"
        },
        "status": "final",
        "code": {
          "coding": [
            {
              "code": "$29463-7",
              "system": "http://loinc.org",
              "display": "Body Weight"
            }
          ]
        },
        "subject": {
          "reference": "urn:uuid:ffac24e7-6d05-41a5-82bc-0db71006cfef",
          "display": "Martine Couturier"
        },
        "effectiveDateTime": "2024-08-16"
      }
    },
    {
      "fullUrl": "urn:uuid:c127765b-a1b7-4537-be46-a443254c93b6",
      "resource": {
        "resourceType": "Observation",
        "id": "c127765b-a1b7-4537-be46-a443254c93b6",
        "meta": {
          "profile": [
            "http://hl7.org/fhir/StructureDefinition/vitalsigns"
          ]
        },
        "category": [
          {
            "coding": [
              {
                "system": "http://terminology.hl7.org/CodeSystem/observation-category",
                "code": "vital-signs",
                "display": "Vital Signs"
              }
            ]
          }
        ],
        "valueQuantity": {
          "value": 28,
          "code": "kg/m2",
          "unit": "kg/m2"
        },
        "text": {
          "status": "generated",
          "div": "<div xmlns=\"http://www.w3.org/1999/xhtml\"><table class=\"hl7__ips\"><tr><th>Vital Sign</th><th>Date</th><th>Measurement</th></tr><tr><td>Body mass index (BMI) [Ratio]</td><td>16-Aug-2024</td><td>28 kg/m2</td></tr></table></div>"
        },
        "status": "final",
        "code": {
          "coding": [
            {
              "code": "$39156-5",
              "system": "http://loinc.org",
              "display": "Body mass index (BMI) [Ratio]"
            }
          ]
        },
        "subject": {
          "reference": "urn:uuid:ffac24e7-6d05-41a5-82bc-0db71006cfef",
          "display": "Martine Couturier"
        },
        "effectiveDateTime": "2024-08-16"
      }
    },
    {
      "fullUrl": "urn:uuid:66817f78-ce6b-4770-b211-a3b690794c60",
      "resource": {
        "resourceType": "Observation",
        "id": "66817f78-ce6b-4770-b211-a3b690794c60",
        "meta": {
          "profile": [
            "http://hl7.org/fhir/StructureDefinition/vitalsigns"
          ]
        },
        "category": [
          {
            "coding": [
              {
                "system": "http://terminology.hl7.org/CodeSystem/observation-category",
                "code": "vital-signs",
                "display": "Vital Signs"
              }
            ]
          }
        ],
        "valueQuantity": {
          "value": 75,
          "code": "mm[Hg]",
          "unit": "mm[Hg]"
        },
        "text": {
          "status": "generated",
          "div": "<div xmlns=\"http://www.w3.org/1999/xhtml\"><table class=\"hl7__ips\"><tr><th>Vital Sign</th><th>Date</th><th>Measurement</th></tr><tr><td>Diastolic Blood Pressure</td><td>16-Aug-2024</td><td>75 mm[Hg]</td></tr></table></div>"
        },
        "status": "final",
        "code": {
          "coding": [
            {
              "code": "$8462-4",
              "system": "http://loinc.org",
              "display": "Diastolic Blood Pressure"
            }
          ]
        },
        "subject": {
          "reference": "urn:uuid:ffac24e7-6d05-41a5-82bc-0db71006cfef",
          "display": "Martine Couturier"
        },
        "effectiveDateTime": "2024-08-16"
      }
    },
    {
      "fullUrl": "urn:uuid:0425cec9-59b6-4f58-9bd0-9e5472cd7b09",
      "resource": {
        "resourceType": "Observation",
        "id": "0425cec9-59b6-4f58-9bd0-9e5472cd7b09",
        "meta": {
          "profile": [
            "http://hl7.org/fhir/StructureDefinition/vitalsigns"
          ]
        },
        "category": [
          {
            "coding": [
              {
                "system": "http://terminology.hl7.org/CodeSystem/observation-category",
                "code": "vital-signs",
                "display": "Vital Signs"
              }
            ]
          }
        ],
        "valueQuantity": {
          "value": 119,
          "code": "mm[Hg]",
          "unit": "mm[Hg]"
        },
        "text": {
          "status": "generated",
          "div": "<div xmlns=\"http://www.w3.org/1999/xhtml\"><table class=\"hl7__ips\"><tr><th>Vital Sign</th><th>Date</th><th>Measurement</th></tr><tr><td>Systolic Blood Pressure</td><td>16-Aug-2024</td><td>119 mm[Hg]</td></tr></table></div>"
        },
        "status": "final",
        "code": {
          "coding": [
            {
              "code": "$8480-6",
              "system": "http://loinc.org",
              "display": "Systolic Blood Pressure"
            }
          ]
        },
        "subject": {
          "reference": "urn:uuid:ffac24e7-6d05-41a5-82bc-0db71006cfef",
          "display": "Martine Couturier"
        },
        "effectiveDateTime": "2024-08-16"
      }
    },
    {
      "fullUrl": "urn:uuid:14c84fde-a08d-433d-bf33-0517778faa1d",
      "resource": {
        "resourceType": "Observation",
        "id": "14c84fde-a08d-433d-bf33-0517778faa1d",
        "meta": {
          "profile": [
            "http://hl7.org/fhir/StructureDefinition/vitalsigns"
          ]
        },
        "category": [
          {
            "coding": [
              {
                "system": "http://terminology.hl7.org/CodeSystem/observation-category",
                "code": "vital-signs",
                "display": "Vital Signs"
              }
            ]
          }
        ],
        "valueQuantity": {
          "value": 92,
          "code": "/min",
          "unit": "/min"
        },
        "text": {
          "status": "generated",
          "div": "<div xmlns=\"http://www.w3.org/1999/xhtml\"><table class=\"hl7__ips\"><tr><th>Vital Sign</th><th>Date</th><th>Measurement</th></tr><tr><td>Heart rate</td><td>16-Aug-2024</td><td>92 /min</td></tr></table></div>"
        },
        "status": "final",
        "code": {
          "coding": [
            {
              "code": "$8867-4",
              "system": "http://loinc.org",
              "display": "Heart rate"
            }
          ]
        },
        "subject": {
          "reference": "urn:uuid:ffac24e7-6d05-41a5-82bc-0db71006cfef",
          "display": "Martine Couturier"
        },
        "effectiveDateTime": "2024-08-16"
      }
    },
    {
      "fullUrl": "urn:uuid:508d209a-0a81-4642-bcb8-fd3d2c003e53",
      "resource": {
        "resourceType": "Observation",
        "id": "508d209a-0a81-4642-bcb8-fd3d2c003e53",
        "meta": {
          "profile": [
            "http://hl7.org/fhir/StructureDefinition/vitalsigns"
          ]
        },
        "category": [
          {
            "coding": [
              {
                "system": "http://terminology.hl7.org/CodeSystem/observation-category",
                "code": "vital-signs",
                "display": "Vital Signs"
              }
            ]
          }
        ],
        "valueQuantity": {
          "value": 12,
          "code": "/min",
          "unit": "/min"
        },
        "text": {
          "status": "generated",
          "div": "<div xmlns=\"http://www.w3.org/1999/xhtml\"><table class=\"hl7__ips\"><tr><th>Vital Sign</th><th>Date</th><th>Measurement</th></tr><tr><td>Respiratory rate</td><td>16-Aug-2024</td><td>12 /min</td></tr></table></div>"
        },
        "status": "final",
        "code": {
          "coding": [
            {
              "code": "$9279-1",
              "system": "http://loinc.org",
              "display": "Respiratory rate"
            }
          ]
        },
        "subject": {
          "reference": "urn:uuid:ffac24e7-6d05-41a5-82bc-0db71006cfef",
          "display": "Martine Couturier"
        },
        "effectiveDateTime": "2024-08-16"
      }
    },
    {
      "fullUrl": "urn:uuid:3e4850de-e0a7-4c1a-b6de-1760a51b5f4c",
      "resource": {
        "resourceType": "Observation",
        "id": "3e4850de-e0a7-4c1a-b6de-1760a51b5f4c",
        "meta": {
          "profile": [
            "http://hl7.org/fhir/StructureDefinition/vitalsigns"
          ]
        },
        "category": [
          {
            "coding": [
              {
                "system": "http://terminology.hl7.org/CodeSystem/observation-category",
                "code": "vital-signs",
                "display": "Vital Signs"
              }
            ]
          }
        ],
        "valueQuantity": {
          "value": 165.5,
          "code": "cm",
          "unit": "cm"
        },
        "text": {
          "status": "generated",
          "div": "<div xmlns=\"http://www.w3.org/1999/xhtml\"><table class=\"hl7__ips\"><tr><th>Vital Sign</th><th>Date</th><th>Measurement</th></tr><tr><td>Body Height</td><td>11-Aug-2023</td><td>165.5 cm</td></tr></table></div>"
        },
        "status": "final",
        "code": {
          "coding": [
            {
              "code": "$8302-2",
              "system": "http://loinc.org",
              "display": "Body Height"
            }
          ]
        },
        "subject": {
          "reference": "urn:uuid:ffac24e7-6d05-41a5-82bc-0db71006cfef",
          "display": "Martine Couturier"
        },
        "effectiveDateTime": "2023-08-11"
      }
    },
    {
      "fullUrl": "urn:uuid:62aeda0b-ce59-4a0d-8005-d1e97e40af27",
      "resource": {
        "resourceType": "Observation",
        "id": "62aeda0b-ce59-4a0d-8005-d1e97e40af27",
        "meta": {
          "profile": [
            "http://hl7.org/fhir/StructureDefinition/vitalsigns"
          ]
        },
        "category": [
          {
            "coding": [
              {
                "system": "http://terminology.hl7.org/CodeSystem/observation-category",
                "code": "vital-signs",
                "display": "Vital Signs"
              }
            ]
          }
        ],
        "valueQuantity": {
          "value": 1,
          "code": "{score}",
          "unit": "{score}"
        },
        "text": {
          "status": "generated",
          "div": "<div xmlns=\"http://www.w3.org/1999/xhtml\"><table class=\"hl7__ips\"><tr><th>Vital Sign</th><th>Date</th><th>Measurement</th></tr><tr><td>Pain severity - 0-10 verbal numeric rating [Score] - Reported</td><td>11-Aug-2023</td><td>1 {score}</td></tr></table></div>"
        },
        "status": "final",
        "code": {
          "coding": [
            {
              "code": "$72514-3",
              "system": "http://loinc.org",
              "display": "Pain severity - 0-10 verbal numeric rating [Score] - Reported"
            }
          ]
        },
        "subject": {
          "reference": "urn:uuid:ffac24e7-6d05-41a5-82bc-0db71006cfef",
          "display": "Martine Couturier"
        },
        "effectiveDateTime": "2023-08-11"
      }
    },
    {
      "fullUrl": "urn:uuid:b60b5c22-ce8f-496b-9841-104cf317ae5d",
      "resource": {
        "resourceType": "Observation",
        "id": "b60b5c22-ce8f-496b-9841-104cf317ae5d",
        "meta": {
          "profile": [
            "http://hl7.org/fhir/StructureDefinition/vitalsigns"
          ]
        },
        "category": [
          {
            "coding": [
              {
                "system": "http://terminology.hl7.org/CodeSystem/observation-category",
                "code": "vital-signs",
                "display": "Vital Signs"
              }
            ]
          }
        ],
        "valueQuantity": {
          "value": 76.6,
          "code": "kg",
          "unit": "kg"
        },
        "text": {
          "status": "generated",
          "div": "<div xmlns=\"http://www.w3.org/1999/xhtml\"><table class=\"hl7__ips\"><tr><th>Vital Sign</th><th>Date</th><th>Measurement</th></tr><tr><td>Body Weight</td><td>11-Aug-2023</td><td>76.6 kg</td></tr></table></div>"
        },
        "status": "final",
        "code": {
          "coding": [
            {
              "code": "$29463-7",
              "system": "http://loinc.org",
              "display": "Body Weight"
            }
          ]
        },
        "subject": {
          "reference": "urn:uuid:ffac24e7-6d05-41a5-82bc-0db71006cfef",
          "display": "Martine Couturier"
        },
        "effectiveDateTime": "2023-08-11"
      }
    },
    {
      "fullUrl": "urn:uuid:837767cb-7559-45b4-b147-e2d3eb3dc4a0",
      "resource": {
        "resourceType": "Observation",
        "id": "837767cb-7559-45b4-b147-e2d3eb3dc4a0",
        "meta": {
          "profile": [
            "http://hl7.org/fhir/StructureDefinition/vitalsigns"
          ]
        },
        "category": [
          {
            "coding": [
              {
                "system": "http://terminology.hl7.org/CodeSystem/observation-category",
                "code": "vital-signs",
                "display": "Vital Signs"
              }
            ]
          }
        ],
        "valueQuantity": {
          "value": 28,
          "code": "kg/m2",
          "unit": "kg/m2"
        },
        "text": {
          "status": "generated",
          "div": "<div xmlns=\"http://www.w3.org/1999/xhtml\"><table class=\"hl7__ips\"><tr><th>Vital Sign</th><th>Date</th><th>Measurement</th></tr><tr><td>Body mass index (BMI) [Ratio]</td><td>11-Aug-2023</td><td>28 kg/m2</td></tr></table></div>"
        },
        "status": "final",
        "code": {
          "coding": [
            {
              "code": "$39156-5",
              "system": "http://loinc.org",
              "display": "Body mass index (BMI) [Ratio]"
            }
          ]
        },
        "subject": {
          "reference": "urn:uuid:ffac24e7-6d05-41a5-82bc-0db71006cfef",
          "display": "Martine Couturier"
        },
        "effectiveDateTime": "2023-08-11"
      }
    },
    {
      "fullUrl": "urn:uuid:1dae529c-8bb1-4d1e-af67-c2951c07a98d",
      "resource": {
        "resourceType": "Observation",
        "id": "1dae529c-8bb1-4d1e-af67-c2951c07a98d",
        "meta": {
          "profile": [
            "http://hl7.org/fhir/StructureDefinition/vitalsigns"
          ]
        },
        "category": [
          {
            "coding": [
              {
                "system": "http://terminology.hl7.org/CodeSystem/observation-category",
                "code": "vital-signs",
                "display": "Vital Signs"
              }
            ]
          }
        ],
        "valueQuantity": {
          "value": 76,
          "code": "mm[Hg]",
          "unit": "mm[Hg]"
        },
        "text": {
          "status": "generated",
          "div": "<div xmlns=\"http://www.w3.org/1999/xhtml\"><table class=\"hl7__ips\"><tr><th>Vital Sign</th><th>Date</th><th>Measurement</th></tr><tr><td>Diastolic Blood Pressure</td><td>11-Aug-2023</td><td>76 mm[Hg]</td></tr></table></div>"
        },
        "status": "final",
        "code": {
          "coding": [
            {
              "code": "$8462-4",
              "system": "http://loinc.org",
              "display": "Diastolic Blood Pressure"
            }
          ]
        },
        "subject": {
          "reference": "urn:uuid:ffac24e7-6d05-41a5-82bc-0db71006cfef",
          "display": "Martine Couturier"
        },
        "effectiveDateTime": "2023-08-11"
      }
    },
    {
      "fullUrl": "urn:uuid:7b331d58-5c89-4552-aed0-2c321fca5e75",
      "resource": {
        "resourceType": "Observation",
        "id": "7b331d58-5c89-4552-aed0-2c321fca5e75",
        "meta": {
          "profile": [
            "http://hl7.org/fhir/StructureDefinition/vitalsigns"
          ]
        },
        "category": [
          {
            "coding": [
              {
                "system": "http://terminology.hl7.org/CodeSystem/observation-category",
                "code": "vital-signs",
                "display": "Vital Signs"
              }
            ]
          }
        ],
        "valueQuantity": {
          "value": 126,
          "code": "mm[Hg]",
          "unit": "mm[Hg]"
        },
        "text": {
          "status": "generated",
          "div": "<div xmlns=\"http://www.w3.org/1999/xhtml\"><table class=\"hl7__ips\"><tr><th>Vital Sign</th><th>Date</th><th>Measurement</th></tr><tr><td>Systolic Blood Pressure</td><td>11-Aug-2023</td><td>126 mm[Hg]</td></tr></table></div>"
        },
        "status": "final",
        "code": {
          "coding": [
            {
              "code": "$8480-6",
              "system": "http://loinc.org",
              "display": "Systolic Blood Pressure"
            }
          ]
        },
        "subject": {
          "reference": "urn:uuid:ffac24e7-6d05-41a5-82bc-0db71006cfef",
          "display": "Martine Couturier"
        },
        "effectiveDateTime": "2023-08-11"
      }
    },
    {
      "fullUrl": "urn:uuid:f945b8e1-9461-4793-8418-9ec7041e98dc",
      "resource": {
        "resourceType": "Observation",
        "id": "f945b8e1-9461-4793-8418-9ec7041e98dc",
        "meta": {
          "profile": [
            "http://hl7.org/fhir/StructureDefinition/vitalsigns"
          ]
        },
        "category": [
          {
            "coding": [
              {
                "system": "http://terminology.hl7.org/CodeSystem/observation-category",
                "code": "vital-signs",
                "display": "Vital Signs"
              }
            ]
          }
        ],
        "valueQuantity": {
          "value": 71,
          "code": "/min",
          "unit": "/min"
        },
        "text": {
          "status": "generated",
          "div": "<div xmlns=\"http://www.w3.org/1999/xhtml\"><table class=\"hl7__ips\"><tr><th>Vital Sign</th><th>Date</th><th>Measurement</th></tr><tr><td>Heart rate</td><td>11-Aug-2023</td><td>71 /min</td></tr></table></div>"
        },
        "status": "final",
        "code": {
          "coding": [
            {
              "code": "$8867-4",
              "system": "http://loinc.org",
              "display": "Heart rate"
            }
          ]
        },
        "subject": {
          "reference": "urn:uuid:ffac24e7-6d05-41a5-82bc-0db71006cfef",
          "display": "Martine Couturier"
        },
        "effectiveDateTime": "2023-08-11"
      }
    },
    {
      "fullUrl": "urn:uuid:4c8bab30-e7fb-4a56-899e-5fa5236d5cdd",
      "resource": {
        "resourceType": "Observation",
        "id": "4c8bab30-e7fb-4a56-899e-5fa5236d5cdd",
        "meta": {
          "profile": [
            "http://hl7.org/fhir/StructureDefinition/vitalsigns"
          ]
        },
        "category": [
          {
            "coding": [
              {
                "system": "http://terminology.hl7.org/CodeSystem/observation-category",
                "code": "vital-signs",
                "display": "Vital Signs"
              }
            ]
          }
        ],
        "valueQuantity": {
          "value": 16,
          "code": "/min",
          "unit": "/min"
        },
        "text": {
          "status": "generated",
          "div": "<div xmlns=\"http://www.w3.org/1999/xhtml\"><table class=\"hl7__ips\"><tr><th>Vital Sign</th><th>Date</th><th>Measurement</th></tr><tr><td>Respiratory rate</td><td>11-Aug-2023</td><td>16 /min</td></tr></table></div>"
        },
        "status": "final",
        "code": {
          "coding": [
            {
              "code": "$9279-1",
              "system": "http://loinc.org",
              "display": "Respiratory rate"
            }
          ]
        },
        "subject": {
          "reference": "urn:uuid:ffac24e7-6d05-41a5-82bc-0db71006cfef",
          "display": "Martine Couturier"
        },
        "effectiveDateTime": "2023-08-11"
      }
    },
    {
      "fullUrl": "urn:uuid:707ffadd-f625-4739-9fbb-aa6f3a6756b1",
      "resource": {
        "resourceType": "Observation",
        "id": "707ffadd-f625-4739-9fbb-aa6f3a6756b1",
        "meta": {
          "profile": [
            "http://hl7.eu/fhir/laboratory/StructureDefinition/Observation-resultslab-eu-lab"
          ]
        },
        "performer": [
          {
            "display": "The Central European Lab"
          }
        ],
        "category": [
          {
            "coding": [
              {
                "system": "http://terminology.hl7.org/CodeSystem/observation-category",
                "code": "laboratory"
              }
            ]
          }
        ],
        "code": {
          "coding": [
            {
              "code": "4548-4",
              "system": "http://loinc.org",
              "display": "Hemoglobin A1c/Hemoglobin.total in Blood"
            }
          ],
          "text": "Hemoglobin A1c/Hemoglobin.total in Blood"
        },
        "valueQuantity": {
          "system": "http://unitsofmeasure.org",
          "value": 7,
          "unit": "%",
          "code": "%"
        },
        "referenceRange": [
          {
            "low": {
              "value": 4,
              "code": "%",
              "system": "http://unitsofmeasure.org"
            }
          },
          {
            "high": {
              "value": 6,
              "code": "%",
              "system": "http://unitsofmeasure.org"
            }
          }
        ],
        "interpretation": [
          {
            "coding": [
              {
                "code": "H",
                "system": "http://terminology.hl7.org/CodeSystem/v3-ObservationInterpretation",
                "display": "High"
              }
            ]
          }
        ],
        "text": {
          "status": "generated",
          "div": "<div xmlns=\"http://www.w3.org/1999/xhtml\"><table class=\"hl7__eu__lab__report\"><tr><th>Test</th><th>16-Aug-2024</th><th>Reference&#xA0;Range</th><th>Unit</th></tr><tr><td>Hemoglobin A1c/Hemoglobin.total in Blood</td><td>7.0</td><td>4 - 6</td><td>H</td><td>%</td></tr></table></div>"
        },
        "status": "final",
        "subject": {
          "reference": "urn:uuid:ffac24e7-6d05-41a5-82bc-0db71006cfef",
          "display": "Martine Couturier"
        },
        "effectiveDateTime": "2024-08-16T20:13:15Z"
      }
    },
    {
      "fullUrl": "urn:uuid:f14e5bd0-f008-4ebd-b56e-4ee70a526096",
      "resource": {
        "resourceType": "Observation",
        "id": "f14e5bd0-f008-4ebd-b56e-4ee70a526096",
        "meta": {
          "profile": [
            "http://hl7.eu/fhir/laboratory/StructureDefinition/Observation-resultslab-eu-lab"
          ]
        },
        "performer": [
          {
            "display": "The Central European Lab"
          }
        ],
        "category": [
          {
            "coding": [
              {
                "system": "http://terminology.hl7.org/CodeSystem/observation-category",
                "code": "laboratory"
              }
            ]
          }
        ],
        "code": {
          "coding": [
            {
              "code": "2339-0",
              "system": "http://loinc.org",
              "display": "Glucose [Mass/volume] in Blood"
            }
          ],
          "text": "Glucose [Mass/volume] in Blood"
        },
        "valueQuantity": {
          "system": "http://unitsofmeasure.org",
          "value": 110.5,
          "unit": "mg/dL",
          "code": "mg/dL"
        },
        "referenceRange": [
          {
            "low": {
              "value": 70,
              "code": "mg/dL",
              "system": "http://unitsofmeasure.org"
            }
          },
          {
            "high": {
              "value": 140,
              "code": "mg/dL",
              "system": "http://unitsofmeasure.org"
            }
          }
        ],
        "text": {
          "status": "generated",
          "div": "<div xmlns=\"http://www.w3.org/1999/xhtml\"><table class=\"hl7__eu__lab__report\"><tr><th>Test</th><th>16-Aug-2024</th><th>Reference&#xA0;Range</th><th>Unit</th></tr><tr><td>Glucose [Mass/volume] in Blood</td><td>110.5</td><td>70 - 140</td><td></td><td>mg/dL</td></tr></table></div>"
        },
        "status": "final",
        "subject": {
          "reference": "urn:uuid:ffac24e7-6d05-41a5-82bc-0db71006cfef",
          "display": "Martine Couturier"
        },
        "effectiveDateTime": "2024-08-16T20:13:15Z"
      }
    },
    {
      "fullUrl": "urn:uuid:a44d6f22-3022-4677-8026-d6e07cf78a0e",
      "resource": {
        "resourceType": "Observation",
        "id": "a44d6f22-3022-4677-8026-d6e07cf78a0e",
        "meta": {
          "profile": [
            "http://hl7.eu/fhir/laboratory/StructureDefinition/Observation-resultslab-eu-lab"
          ]
        },
        "performer": [
          {
            "display": "The Central European Lab"
          }
        ],
        "category": [
          {
            "coding": [
              {
                "system": "http://terminology.hl7.org/CodeSystem/observation-category",
                "code": "laboratory"
              }
            ]
          }
        ],
        "code": {
          "coding": [
            {
              "code": "6299-2",
              "system": "http://loinc.org",
              "display": "Urea nitrogen [Mass/volume] in Blood"
            }
          ],
          "text": "Urea nitrogen [Mass/volume] in Blood"
        },
        "valueQuantity": {
          "system": "http://unitsofmeasure.org",
          "value": 17.2,
          "unit": "mg/dL",
          "code": "mg/dL"
        },
        "referenceRange": [
          {
            "low": {
              "value": 7,
              "code": "mg/dL",
              "system": "http://unitsofmeasure.org"
            }
          },
          {
            "high": {
              "value": 25,
              "code": "mg/dL",
              "system": "http://unitsofmeasure.org"
            }
          }
        ],
        "text": {
          "status": "generated",
          "div": "<div xmlns=\"http://www.w3.org/1999/xhtml\"><table class=\"hl7__eu__lab__report\"><tr><th>Test</th><th>16-Aug-2024</th><th>Reference&#xA0;Range</th><th>Unit</th></tr><tr><td>Urea nitrogen [Mass/volume] in Blood</td><td>17.2</td><td>7 - 25</td><td></td><td>mg/dL</td></tr></table></div>"
        },
        "status": "final",
        "subject": {
          "reference": "urn:uuid:ffac24e7-6d05-41a5-82bc-0db71006cfef",
          "display": "Martine Couturier"
        },
        "effectiveDateTime": "2024-08-16T20:13:15Z"
      }
    },
    {
      "fullUrl": "urn:uuid:57296f67-ca07-4255-b744-97a44989e3bd",
      "resource": {
        "resourceType": "Observation",
        "id": "57296f67-ca07-4255-b744-97a44989e3bd",
        "meta": {
          "profile": [
            "http://hl7.eu/fhir/laboratory/StructureDefinition/Observation-resultslab-eu-lab"
          ]
        },
        "performer": [
          {
            "display": "The Central European Lab"
          }
        ],
        "category": [
          {
            "coding": [
              {
                "system": "http://terminology.hl7.org/CodeSystem/observation-category",
                "code": "laboratory"
              }
            ]
          }
        ],
        "code": {
          "coding": [
            {
              "code": "38483-4",
              "system": "http://loinc.org",
              "display": "Creatinine [Mass/volume] in Blood"
            }
          ],
          "text": "Creatinine [Mass/volume] in Blood"
        },
        "valueQuantity": {
          "system": "http://unitsofmeasure.org",
          "value": 0.9,
          "unit": "mg/dL",
          "code": "mg/dL"
        },
        "referenceRange": [
          {
            "low": {
              "value": 0.6,
              "code": "mg/dL",
              "system": "http://unitsofmeasure.org"
            }
          },
          {
            "high": {
              "value": 1.1,
              "code": "mg/dL",
              "system": "http://unitsofmeasure.org"
            }
          }
        ],
        "text": {
          "status": "generated",
          "div": "<div xmlns=\"http://www.w3.org/1999/xhtml\"><table class=\"hl7__eu__lab__report\"><tr><th>Test</th><th>16-Aug-2024</th><th>Reference&#xA0;Range</th><th>Unit</th></tr><tr><td>Creatinine [Mass/volume] in Blood</td><td>0.9</td><td>0.6 - 1.1</td><td></td><td>mg/dL</td></tr></table></div>"
        },
        "status": "final",
        "subject": {
          "reference": "urn:uuid:ffac24e7-6d05-41a5-82bc-0db71006cfef",
          "display": "Martine Couturier"
        },
        "effectiveDateTime": "2024-08-16T20:13:15Z"
      }
    },
    {
      "fullUrl": "urn:uuid:fd0fdfd8-7b90-455f-b867-d62759646a15",
      "resource": {
        "resourceType": "Observation",
        "id": "fd0fdfd8-7b90-455f-b867-d62759646a15",
        "meta": {
          "profile": [
            "http://hl7.eu/fhir/laboratory/StructureDefinition/Observation-resultslab-eu-lab"
          ]
        },
        "performer": [
          {
            "display": "The Central European Lab"
          }
        ],
        "category": [
          {
            "coding": [
              {
                "system": "http://terminology.hl7.org/CodeSystem/observation-category",
                "code": "laboratory"
              }
            ]
          }
        ],
        "code": {
          "coding": [
            {
              "code": "49765-1",
              "system": "http://loinc.org",
              "display": "Calcium [Mass/volume] in Blood"
            }
          ],
          "text": "Calcium [Mass/volume] in Blood"
        },
        "valueQuantity": {
          "system": "http://unitsofmeasure.org",
          "value": 10.2,
          "unit": "mg/dL",
          "code": "mg/dL"
        },
        "referenceRange": [
          {
            "low": {
              "value": 8.5,
              "code": "mg/dL",
              "system": "http://unitsofmeasure.org"
            }
          },
          {
            "high": {
              "value": 10.4,
              "code": "mg/dL",
              "system": "http://unitsofmeasure.org"
            }
          }
        ],
        "text": {
          "status": "generated",
          "div": "<div xmlns=\"http://www.w3.org/1999/xhtml\"><table class=\"hl7__eu__lab__report\"><tr><th>Test</th><th>16-Aug-2024</th><th>Reference&#xA0;Range</th><th>Unit</th></tr><tr><td>Calcium [Mass/volume] in Blood</td><td>10.2</td><td>8.5 - 10.4</td><td></td><td>mg/dL</td></tr></table></div>"
        },
        "status": "final",
        "subject": {
          "reference": "urn:uuid:ffac24e7-6d05-41a5-82bc-0db71006cfef",
          "display": "Martine Couturier"
        },
        "effectiveDateTime": "2024-08-16T20:13:15Z"
      }
    },
    {
      "fullUrl": "urn:uuid:6f2d1027-6861-49f0-8afb-13800e1f753b",
      "resource": {
        "resourceType": "Observation",
        "id": "6f2d1027-6861-49f0-8afb-13800e1f753b",
        "meta": {
          "profile": [
            "http://hl7.eu/fhir/laboratory/StructureDefinition/Observation-resultslab-eu-lab"
          ]
        },
        "performer": [
          {
            "display": "The Central European Lab"
          }
        ],
        "category": [
          {
            "coding": [
              {
                "system": "http://terminology.hl7.org/CodeSystem/observation-category",
                "code": "laboratory"
              }
            ]
          }
        ],
        "code": {
          "coding": [
            {
              "code": "2947-0",
              "system": "http://loinc.org",
              "display": "Sodium [Moles/volume] in Blood"
            }
          ],
          "text": "Sodium [Moles/volume] in Blood"
        },
        "valueQuantity": {
          "system": "http://unitsofmeasure.org",
          "value": 141,
          "unit": "mmol/L",
          "code": "mmol/L"
        },
        "referenceRange": [
          {
            "low": {
              "value": 135,
              "code": "mmol/L",
              "system": "http://unitsofmeasure.org"
            }
          },
          {
            "high": {
              "value": 145,
              "code": "mmol/L",
              "system": "http://unitsofmeasure.org"
            }
          }
        ],
        "text": {
          "status": "generated",
          "div": "<div xmlns=\"http://www.w3.org/1999/xhtml\"><table class=\"hl7__eu__lab__report\"><tr><th>Test</th><th>16-Aug-2024</th><th>Reference&#xA0;Range</th><th>Unit</th></tr><tr><td>Sodium [Moles/volume] in Blood</td><td>141.0</td><td>135 - 145</td><td></td><td>mmol/L</td></tr></table></div>"
        },
        "status": "final",
        "subject": {
          "reference": "urn:uuid:ffac24e7-6d05-41a5-82bc-0db71006cfef",
          "display": "Martine Couturier"
        },
        "effectiveDateTime": "2024-08-16T20:13:15Z"
      }
    },
    {
      "fullUrl": "urn:uuid:47c07d01-c10e-485d-a91f-1488fd8da950",
      "resource": {
        "resourceType": "Observation",
        "id": "47c07d01-c10e-485d-a91f-1488fd8da950",
        "meta": {
          "profile": [
            "http://hl7.eu/fhir/laboratory/StructureDefinition/Observation-resultslab-eu-lab"
          ]
        },
        "performer": [
          {
            "display": "The Central European Lab"
          }
        ],
        "category": [
          {
            "coding": [
              {
                "system": "http://terminology.hl7.org/CodeSystem/observation-category",
                "code": "laboratory"
              }
            ]
          }
        ],
        "code": {
          "coding": [
            {
              "code": "6298-4",
              "system": "http://loinc.org",
              "display": "Potassium [Moles/volume] in Blood"
            }
          ],
          "text": "Potassium [Moles/volume] in Blood"
        },
        "valueQuantity": {
          "system": "http://unitsofmeasure.org",
          "value": 3.9,
          "unit": "mmol/L",
          "code": "mmol/L"
        },
        "referenceRange": [
          {
            "low": {
              "value": 3.5,
              "code": "mmol/L",
              "system": "http://unitsofmeasure.org"
            }
          },
          {
            "high": {
              "value": 5.1,
              "code": "mmol/L",
              "system": "http://unitsofmeasure.org"
            }
          }
        ],
        "text": {
          "status": "generated",
          "div": "<div xmlns=\"http://www.w3.org/1999/xhtml\"><table class=\"hl7__eu__lab__report\"><tr><th>Test</th><th>16-Aug-2024</th><th>Reference&#xA0;Range</th><th>Unit</th></tr><tr><td>Potassium [Moles/volume] in Blood</td><td>3.9</td><td>3.5 - 5.1</td><td></td><td>mmol/L</td></tr></table></div>"
        },
        "status": "final",
        "subject": {
          "reference": "urn:uuid:ffac24e7-6d05-41a5-82bc-0db71006cfef",
          "display": "Martine Couturier"
        },
        "effectiveDateTime": "2024-08-16T20:13:15Z"
      }
    },
    {
      "fullUrl": "urn:uuid:f86cea82-3f9e-48df-a5a5-9b0a16c7bfa9",
      "resource": {
        "resourceType": "Observation",
        "id": "f86cea82-3f9e-48df-a5a5-9b0a16c7bfa9",
        "meta": {
          "profile": [
            "http://hl7.eu/fhir/laboratory/StructureDefinition/Observation-resultslab-eu-lab"
          ]
        },
        "performer": [
          {
            "display": "The Central European Lab"
          }
        ],
        "category": [
          {
            "coding": [
              {
                "system": "http://terminology.hl7.org/CodeSystem/observation-category",
                "code": "laboratory"
              }
            ]
          }
        ],
        "code": {
          "coding": [
            {
              "code": "2069-3",
              "system": "http://loinc.org",
              "display": "Chloride [Moles/volume] in Blood"
            }
          ],
          "text": "Chloride [Moles/volume] in Blood"
        },
        "valueQuantity": {
          "system": "http://unitsofmeasure.org",
          "value": 108,
          "unit": "mmol/L",
          "code": "mmol/L"
        },
        "referenceRange": [
          {
            "low": {
              "value": 98,
              "code": "mmol/L",
              "system": "http://unitsofmeasure.org"
            }
          },
          {
            "high": {
              "value": 107,
              "code": "mmol/L",
              "system": "http://unitsofmeasure.org"
            }
          }
        ],
        "interpretation": [
          {
            "coding": [
              {
                "code": "H",
                "system": "http://terminology.hl7.org/CodeSystem/v3-ObservationInterpretation",
                "display": "High"
              }
            ]
          }
        ],
        "text": {
          "status": "generated",
          "div": "<div xmlns=\"http://www.w3.org/1999/xhtml\"><table class=\"hl7__eu__lab__report\"><tr><th>Test</th><th>16-Aug-2024</th><th>Reference&#xA0;Range</th><th>Unit</th></tr><tr><td>Chloride [Moles/volume] in Blood</td><td>108.0</td><td>98 - 107</td><td>H</td><td>mmol/L</td></tr></table></div>"
        },
        "status": "final",
        "subject": {
          "reference": "urn:uuid:ffac24e7-6d05-41a5-82bc-0db71006cfef",
          "display": "Martine Couturier"
        },
        "effectiveDateTime": "2024-08-16T20:13:15Z"
      }
    },
    {
      "fullUrl": "urn:uuid:338b995c-7bdb-48a6-b67f-ca76f53c654b",
      "resource": {
        "resourceType": "Observation",
        "id": "338b995c-7bdb-48a6-b67f-ca76f53c654b",
        "meta": {
          "profile": [
            "http://hl7.eu/fhir/laboratory/StructureDefinition/Observation-resultslab-eu-lab"
          ]
        },
        "performer": [
          {
            "display": "The Central European Lab"
          }
        ],
        "category": [
          {
            "coding": [
              {
                "system": "http://terminology.hl7.org/CodeSystem/observation-category",
                "code": "laboratory"
              }
            ]
          }
        ],
        "code": {
          "coding": [
            {
              "code": "20565-8",
              "system": "http://loinc.org",
              "display": "Carbon dioxide, total [Moles/volume] in Blood"
            }
          ],
          "text": "Carbon dioxide, total [Moles/volume] in Blood"
        },
        "valueQuantity": {
          "system": "http://unitsofmeasure.org",
          "value": 27.7,
          "unit": "mmol/L",
          "code": "mmol/L"
        },
        "referenceRange": [
          {
            "low": {
              "value": 22,
              "code": "mmol/L",
              "system": "http://unitsofmeasure.org"
            }
          },
          {
            "high": {
              "value": 29,
              "code": "mmol/L",
              "system": "http://unitsofmeasure.org"
            }
          }
        ],
        "text": {
          "status": "generated",
          "div": "<div xmlns=\"http://www.w3.org/1999/xhtml\"><table class=\"hl7__eu__lab__report\"><tr><th>Test</th><th>16-Aug-2024</th><th>Reference&#xA0;Range</th><th>Unit</th></tr><tr><td>Carbon dioxide, total [Moles/volume] in Blood</td><td>27.7</td><td>22 - 29</td><td></td><td>mmol/L</td></tr></table></div>"
        },
        "status": "final",
        "subject": {
          "reference": "urn:uuid:ffac24e7-6d05-41a5-82bc-0db71006cfef",
          "display": "Martine Couturier"
        },
        "effectiveDateTime": "2024-08-16T20:13:15Z"
      }
    },
    {
      "fullUrl": "urn:uuid:995e7157-446a-4229-86dc-a636f16f90bc",
      "resource": {
        "resourceType": "Observation",
        "id": "995e7157-446a-4229-86dc-a636f16f90bc",
        "meta": {
          "profile": [
            "http://hl7.eu/fhir/laboratory/StructureDefinition/Observation-resultslab-eu-lab"
          ]
        },
        "performer": [
          {
            "display": "The Central European Lab"
          }
        ],
        "category": [
          {
            "coding": [
              {
                "system": "http://terminology.hl7.org/CodeSystem/observation-category",
                "code": "laboratory"
              }
            ]
          }
        ],
        "code": {
          "coding": [
            {
              "code": "2093-3",
              "system": "http://loinc.org",
              "display": "Cholesterol [Mass/volume] in Serum or Plasma"
            }
          ],
          "text": "Cholesterol [Mass/volume] in Serum or Plasma"
        },
        "valueQuantity": {
          "system": "http://unitsofmeasure.org",
          "value": 215.4,
          "unit": "mg/dL",
          "code": "mg/dL"
        },
        "referenceRange": [
          {
            "low": {
              "value": 125,
              "code": "mg/dL",
              "system": "http://unitsofmeasure.org"
            }
          },
          {
            "high": {
              "value": 200,
              "code": "mg/dL",
              "system": "http://unitsofmeasure.org"
            }
          }
        ],
        "interpretation": [
          {
            "coding": [
              {
                "code": "H",
                "system": "http://terminology.hl7.org/CodeSystem/v3-ObservationInterpretation",
                "display": "High"
              }
            ]
          }
        ],
        "text": {
          "status": "generated",
          "div": "<div xmlns=\"http://www.w3.org/1999/xhtml\"><table class=\"hl7__eu__lab__report\"><tr><th>Test</th><th>16-Aug-2024</th><th>Reference&#xA0;Range</th><th>Unit</th></tr><tr><td>Cholesterol [Mass/volume] in Serum or Plasma</td><td>215.4</td><td>125 - 200</td><td>H</td><td>mg/dL</td></tr></table></div>"
        },
        "status": "final",
        "subject": {
          "reference": "urn:uuid:ffac24e7-6d05-41a5-82bc-0db71006cfef",
          "display": "Martine Couturier"
        },
        "effectiveDateTime": "2024-08-16T20:13:15Z"
      }
    },
    {
      "fullUrl": "urn:uuid:560783cc-39ea-41fe-b060-4d9e7ee14afd",
      "resource": {
        "resourceType": "Observation",
        "id": "560783cc-39ea-41fe-b060-4d9e7ee14afd",
        "meta": {
          "profile": [
            "http://hl7.eu/fhir/laboratory/StructureDefinition/Observation-resultslab-eu-lab"
          ]
        },
        "performer": [
          {
            "display": "The Central European Lab"
          }
        ],
        "category": [
          {
            "coding": [
              {
                "system": "http://terminology.hl7.org/CodeSystem/observation-category",
                "code": "laboratory"
              }
            ]
          }
        ],
        "code": {
          "coding": [
            {
              "code": "2571-8",
              "system": "http://loinc.org",
              "display": "Triglyceride [Mass/volume] in Serum or Plasma"
            }
          ],
          "text": "Triglyceride [Mass/volume] in Serum or Plasma"
        },
        "valueQuantity": {
          "system": "http://unitsofmeasure.org",
          "value": 196.9,
          "unit": "mg/dL",
          "code": "mg/dL"
        },
        "referenceRange": [
          {
            "low": {
              "value": 35,
              "code": "mg/dL",
              "system": "http://unitsofmeasure.org"
            }
          },
          {
            "high": {
              "value": 150,
              "code": "mg/dL",
              "system": "http://unitsofmeasure.org"
            }
          }
        ],
        "interpretation": [
          {
            "coding": [
              {
                "code": "H",
                "system": "http://terminology.hl7.org/CodeSystem/v3-ObservationInterpretation",
                "display": "High"
              }
            ]
          }
        ],
        "text": {
          "status": "generated",
          "div": "<div xmlns=\"http://www.w3.org/1999/xhtml\"><table class=\"hl7__eu__lab__report\"><tr><th>Test</th><th>16-Aug-2024</th><th>Reference&#xA0;Range</th><th>Unit</th></tr><tr><td>Triglyceride [Mass/volume] in Serum or Plasma</td><td>196.9</td><td>35 - 150</td><td>H</td><td>mg/dL</td></tr></table></div>"
        },
        "status": "final",
        "subject": {
          "reference": "urn:uuid:ffac24e7-6d05-41a5-82bc-0db71006cfef",
          "display": "Martine Couturier"
        },
        "effectiveDateTime": "2024-08-16T20:13:15Z"
      }
    },
    {
      "fullUrl": "urn:uuid:98c69bd4-3243-4268-9698-6f3612416028",
      "resource": {
        "resourceType": "Observation",
        "id": "98c69bd4-3243-4268-9698-6f3612416028",
        "meta": {
          "profile": [
            "http://hl7.eu/fhir/laboratory/StructureDefinition/Observation-resultslab-eu-lab"
          ]
        },
        "performer": [
          {
            "display": "The Central European Lab"
          }
        ],
        "category": [
          {
            "coding": [
              {
                "system": "http://terminology.hl7.org/CodeSystem/observation-category",
                "code": "laboratory"
              }
            ]
          }
        ],
        "code": {
          "coding": [
            {
              "code": "18262-6",
              "system": "http://loinc.org",
              "display": "Cholesterol in LDL [Mass/volume] in Serum or Plasma by Direct assay"
            }
          ],
          "text": "Cholesterol in LDL [Mass/volume] in Serum or Plasma by Direct assay"
        },
        "valueQuantity": {
          "system": "http://unitsofmeasure.org",
          "value": 128.7,
          "unit": "mg/dL",
          "code": "mg/dL"
        },
        "referenceRange": [
          {
            "low": {
              "value": 0,
              "code": "mg/dL",
              "system": "http://unitsofmeasure.org"
            }
          },
          {
            "high": {
              "value": 130,
              "code": "mg/dL",
              "system": "http://unitsofmeasure.org"
            }
          }
        ],
        "text": {
          "status": "generated",
          "div": "<div xmlns=\"http://www.w3.org/1999/xhtml\"><table class=\"hl7__eu__lab__report\"><tr><th>Test</th><th>16-Aug-2024</th><th>Reference&#xA0;Range</th><th>Unit</th></tr><tr><td>Cholesterol in LDL [Mass/volume] in Serum or Plasma by Direct assay</td><td>128.7</td><td>0 - 130</td><td></td><td>mg/dL</td></tr></table></div>"
        },
        "status": "final",
        "subject": {
          "reference": "urn:uuid:ffac24e7-6d05-41a5-82bc-0db71006cfef",
          "display": "Martine Couturier"
        },
        "effectiveDateTime": "2024-08-16T20:13:15Z"
      }
    },
    {
      "fullUrl": "urn:uuid:9182a3d5-0b86-43ea-8c89-3a2d16b1b0cc",
      "resource": {
        "resourceType": "Observation",
        "id": "9182a3d5-0b86-43ea-8c89-3a2d16b1b0cc",
        "meta": {
          "profile": [
            "http://hl7.eu/fhir/laboratory/StructureDefinition/Observation-resultslab-eu-lab"
          ]
        },
        "performer": [
          {
            "display": "The Central European Lab"
          }
        ],
        "category": [
          {
            "coding": [
              {
                "system": "http://terminology.hl7.org/CodeSystem/observation-category",
                "code": "laboratory"
              }
            ]
          }
        ],
        "code": {
          "coding": [
            {
              "code": "2085-9",
              "system": "http://loinc.org",
              "display": "Cholesterol in HDL [Mass/volume] in Serum or Plasma"
            }
          ],
          "text": "Cholesterol in HDL [Mass/volume] in Serum or Plasma"
        },
        "valueQuantity": {
          "system": "http://unitsofmeasure.org",
          "value": 47.3,
          "unit": "mg/dL",
          "code": "mg/dL"
        },
        "referenceRange": [
          {
            "low": {
              "value": 40,
              "code": "mg/dL",
              "system": "http://unitsofmeasure.org"
            }
          },
          {
            "high": {
              "value": 100,
              "code": "mg/dL",
              "system": "http://unitsofmeasure.org"
            }
          }
        ],
        "text": {
          "status": "generated",
          "div": "<div xmlns=\"http://www.w3.org/1999/xhtml\"><table class=\"hl7__eu__lab__report\"><tr><th>Test</th><th>16-Aug-2024</th><th>Reference&#xA0;Range</th><th>Unit</th></tr><tr><td>Cholesterol in HDL [Mass/volume] in Serum or Plasma</td><td>47.3</td><td>40 - 100</td><td></td><td>mg/dL</td></tr></table></div>"
        },
        "status": "final",
        "subject": {
          "reference": "urn:uuid:ffac24e7-6d05-41a5-82bc-0db71006cfef",
          "display": "Martine Couturier"
        },
        "effectiveDateTime": "2024-08-16T20:13:15Z"
      }
    },
    {
      "fullUrl": "urn:uuid:d10bcc4f-c5fe-44ec-9fb6-b872b6ea915a",
      "resource": {
        "resourceType": "Observation",
        "id": "d10bcc4f-c5fe-44ec-9fb6-b872b6ea915a",
        "meta": {
          "profile": [
            "http://hl7.eu/fhir/laboratory/StructureDefinition/Observation-resultslab-eu-lab"
          ]
        },
        "performer": [
          {
            "display": "The Central European Lab"
          }
        ],
        "category": [
          {
            "coding": [
              {
                "system": "http://terminology.hl7.org/CodeSystem/observation-category",
                "code": "laboratory"
              }
            ]
          }
        ],
        "code": {
          "coding": [
            {
              "code": "14959-1",
              "system": "http://loinc.org",
              "display": "Microalbumin/Creatinine [Mass Ratio] in Urine"
            }
          ],
          "text": "Microalbumin/Creatinine [Mass Ratio] in Urine"
        },
        "valueQuantity": {
          "system": "http://unitsofmeasure.org",
          "value": 10.7,
          "unit": "mg/g",
          "code": "mg/g"
        },
        "referenceRange": [
          {
            "low": {
              "value": 0,
              "code": "mg/g",
              "system": "http://unitsofmeasure.org"
            }
          },
          {
            "high": {
              "value": 30,
              "code": "mg/g",
              "system": "http://unitsofmeasure.org"
            }
          }
        ],
        "text": {
          "status": "generated",
          "div": "<div xmlns=\"http://www.w3.org/1999/xhtml\"><table class=\"hl7__eu__lab__report\"><tr><th>Test</th><th>16-Aug-2024</th><th>Reference&#xA0;Range</th><th>Unit</th></tr><tr><td>Microalbumin/Creatinine [Mass Ratio] in Urine</td><td>10.7</td><td>0 - 30</td><td></td><td>mg/g</td></tr></table></div>"
        },
        "status": "final",
        "subject": {
          "reference": "urn:uuid:ffac24e7-6d05-41a5-82bc-0db71006cfef",
          "display": "Martine Couturier"
        },
        "effectiveDateTime": "2024-08-16T20:13:15Z"
      }
    },
    {
      "fullUrl": "urn:uuid:780a4ad2-3eaf-4020-a0b3-d36849c222d9",
      "resource": {
        "resourceType": "DeviceUseStatement",
        "id": "780a4ad2-3eaf-4020-a0b3-d36849c222d9",
        "meta": {
          "profile": [
            "http://hl7.eu/fhir/eps/StructureDefinition/deviceUseStatement-eu-eps"
          ]
        },
        "timingPeriod": {
          "start": "1979-07-27"
        },
        "text": {
          "status": "generated",
          "div": "<div xmlns=\"http://www.w3.org/1999/xhtml\"><table class=\"hl7__ips\"><tr><td>Blood glucose meter (physical object)</td><td><span class=\"nb\">27-Jul-1979</span></td></tr></table></div>"
        },
        "status": "active",
        "device": {
          "reference": "urn:uuid:e6e03b7d-65a6-4cf0-ac26-889225b410d4",
          "display": "Blood glucose meter (physical object)"
        },
        "subject": {
          "reference": "urn:uuid:ffac24e7-6d05-41a5-82bc-0db71006cfef",
          "display": "Martine Couturier"
        }
      }
    },
    {
      "fullUrl": "urn:uuid:e6e03b7d-65a6-4cf0-ac26-889225b410d4",
      "resource": {
        "resourceType": "Device",
        "id": "e6e03b7d-65a6-4cf0-ac26-889225b410d4",
        "meta": {
          "profile": [
            "http://hl7.eu/fhir/eps/StructureDefinition/device-eu-eps"
          ]
        },
        "udiCarrier": [
          {
            "id": "(01)35644563533686(11)790706(17)040720(10)249355(21)73472411875"
          }
        ],
        "status": "active",
        "patient": {
          "reference": "urn:uuid:ffac24e7-6d05-41a5-82bc-0db71006cfef",
          "display": "Martine Couturier"
        },
        "type": {
          "coding": [
            {
              "code": "337414009",
              "system": "http://snomed.info/sct",
              "display": "Blood glucose meter (physical object)"
            }
          ]
        }
      }
    },
    {
      "fullUrl": "urn:uuid:fc191c8e-eeab-45fd-a10e-65a0b5c7808e",
      "resource": {
        "resourceType": "Device",
        "id": "fc191c8e-eeab-45fd-a10e-65a0b5c7808e",
        "deviceName": [
          {
            "name": "SYNDERAI Synthetic Generator",
            "type": "manufacturer-name"
          }
        ],
        "version": [
          {
            "value": "5.0"
          }
        ],
        "text": {
          "status": "generated",
          "div": "<div xmlns=\"http://www.w3.org/1999/xhtml\">SYNDERAI Synthetic Generator v5.0</div>"
        },
        "status": "active\"",
        "distinctIdentifier": "synderai-generator-50",
        "manufacturer": "SYNDERAI Project"
      }
    },
    {
      "fullUrl": "urn:uuid:1590f360-3508-4d69-b918-1cf6390d2427",
      "resource": {
        "resourceType": "Provenance",
        "id": "1590f360-3508-4d69-b918-1cf6390d2427",
        "target": [
          {
            "reference": "Patient/ffac24e7-6d05-41a5-82bc-0db71006cfef"
          },
          {
            "reference": "Bundle/27dd6075-9ebc-4675-9517-163aaf97fdc2"
          },
          {
            "reference": "Composition/4c7e194e-ccad-410e-a9c8-fbb44160b953"
          },
          {
            "reference": "PractitionerRole/1150ad9c-240c-4c19-bbef-c45cbe82561f"
          },
          {
            "reference": "Organization/e9683268-e0e7-45df-aebf-54750ae884b1"
          },
          {
            "reference": "Practitioner/e648b0e4-0c41-47b8-a9be-273c6e40c263"
          }
        ],
        "activity": {
          "text": "Synthetic Example Data Generation"
        },
        "policy": [
          "https://synderai.net/synderai-synthetic-data-policy"
        ],
        "agent": [
          {
            "type": {
              "text": "author"
            },
            "who": {
              "reference": "Device/fc191c8e-eeab-45fd-a10e-65a0b5c7808e"
            }
          }
        ],
        "reason": [
          {
            "text": "Interoperability Testing and Training (non-clinical use)"
          }
        ],
        "text": {
          "status": "generated",
          "div": "<div xmlns=\"http://www.w3.org/1999/xhtml\">Provenance for SYNDERAI Synthetic Example Data Resource</div>"
        },
        "recorded": "2024-08-16T20:13:15Z"
      }
    }
  ],
  "type": "document",
  "timestamp": "2024-08-16T20:13:15Z"
}
