{
  "resourceType": "Bundle",
  "id": "abad48b1-2e29-4e19-8fb8-33d9862fe9f9",
  "meta": {
    "profile": [
      "http://hl7.eu/fhir/eps/StructureDefinition/bundle-eu-eps"
    ]
  },
  "identifier": {
    "assigner": {
      "display": "HL7 Europe"
    },
    "system": "urn:oid:2.16.840.1.113883.2.51.999",
    "value": "6daf0ee6-8e2e-47b6-8d86-7295f51bc8c1"
  },
  "entry": [
    {
      "fullUrl": "urn:uuid:923e9124-80f2-4ece-bf51-dea9d36b4d54",
      "resource": {
        "resourceType": "Composition",
        "id": "923e9124-80f2-4ece-bf51-dea9d36b4d54",
        "meta": {
          "security": [
            {
              "system": "http://terminology.hl7.org/CodeSystem/v3-ActReason",
              "code": "HTEST"
            },
            {
              "system": "http://terminology.hl7.org/CodeSystem/v3-ActReason",
              "code": "TRAIN"
            }
          ],
          "tag": [
            {
              "system": "https://synderai.net/fhir/CodeSystem/tags",
              "code": "synthetic",
              "display": "SYNDERAI Synthetic data"
            }
          ],
          "profile": [
            "http://hl7.eu/fhir/eps/StructureDefinition/composition-eu-eps"
          ]
        },
        "identifier": {
          "assigner": {
            "display": "HL7 Europe"
          },
          "system": "urn:oid:2.16.840.1.113883.2.51.999",
          "value": "c0c21119-bad5-4b28-8447-99c668fc4ae0"
        },
        "type": {
          "coding": [
            {
              "system": "http://loinc.org",
              "code": "60591-5",
              "display": "Patient summary Document"
            }
          ],
          "text": "Patient summary Document"
        },
        "author": [
          {
            "reference": "urn:uuid:097bfa50-f478-479d-817d-d0ed39591b15"
          }
        ],
        "section": [
          {
            "text": {
              "status": "generated",
              "div": "<div xmlns=\"http://www.w3.org/1999/xhtml\"><table class=\"hl7__ips\"><tr><th>Condition</th><th>Onset Date</th><th>Status</th></tr><tr><td>Retinopathy due to type 2 diabetes mellitus</td><td><span class=\"nb\">20-May-2024</span></td><td>active</td></tr><tr><td>Hyperlipidemia</td><td><span class=\"nb\">15-May-2023</span></td><td>active</td></tr><tr><td>Hypertriglyceridemia</td><td><span class=\"nb\">10-Apr-2017</span></td><td>active</td></tr><tr><td>Type 2 diabetes mellitus</td><td><span class=\"nb\">04-Apr-2016</span></td><td>active</td></tr><tr><td>Ischemic heart disease</td><td><span class=\"nb\">24-Mar-2014</span></td><td>active</td></tr><tr><td>Metabolic syndrome X</td><td><span class=\"nb\">08-Jan-2001</span></td><td>active</td></tr><tr><td>Polyp of colon</td><td><span class=\"nb\">04-Jan-1999</span></td><td>active</td></tr><tr><td>Essential hypertension</td><td><span class=\"nb\">28-Dec-1998</span></td><td>active</td></tr><tr><td>Prediabetes</td><td><span class=\"nb\">07-Mar-1977</span></td><td>active</td></tr><tr><td>Anemia</td><td><span class=\"nb\">07-Mar-1977</span></td><td>active</td></tr><tr><td>Chronic sinusitis</td><td><span class=\"nb\">28-Aug-1972</span></td><td>active</td></tr></table></div>"
            },
            "entry": [
              {
                "reference": "urn:uuid:e94bbdd4-64b8-4ba7-9575-bd4a90c1db5a"
              },
              {
                "reference": "urn:uuid:88350441-72ee-4fc9-a4a8-48674aef0bfc"
              },
              {
                "reference": "urn:uuid:e3a281fd-5985-4e09-bb91-9e54b001f1b4"
              },
              {
                "reference": "urn:uuid:8f2326d3-6935-48a6-a681-d7757059bd49"
              },
              {
                "reference": "urn:uuid:dfc4aee1-4636-4c95-8e48-de981a74bef4"
              },
              {
                "reference": "urn:uuid:5fc9b55d-930c-4818-9816-b4c17cd35462"
              },
              {
                "reference": "urn:uuid:d14c134b-5d8a-4203-bff9-bc57d5b9cf20"
              },
              {
                "reference": "urn:uuid:b119f54c-480d-493a-9d6a-7af0ecbc242c"
              },
              {
                "reference": "urn:uuid:ca57eb74-4273-49e4-8f34-add538cbdaf7"
              },
              {
                "reference": "urn:uuid:9fd9ad43-df3f-41eb-bbad-53240bc07e6b"
              },
              {
                "reference": "urn:uuid:00f72d0c-cb7f-492a-9514-fdd206d474b8"
              }
            ],
            "code": {
              "coding": [
                {
                  "system": "http://loinc.org",
                  "code": "11450-4",
                  "display": "Problem list - Reported"
                }
              ]
            },
            "title": "Problem list"
          },
          {
            "text": {
              "status": "generated",
              "div": "<div xmlns=\"http://www.w3.org/1999/xhtml\"><table class=\"hl7__ips\"><tr><th>Medication</th><th>Since</th><th>Form</th><th>Dosage</th><th>Reason</th></tr><tr><td>Simvastatin 10 mg oral tablet</td><td><span class=\"nb\">2025-06-04</span></td><td>-</td><td>1 tablet (10 mg) by mouth once daily</td><td>Hyperlipidemia</td></tr><tr><td>Amlodipine (as amlodipine besylate) 2.5 mg oral tablet</td><td><span class=\"nb\">2025-05-26</span></td><td>-</td><td>1 tablet (2.5 mg) by mouth once daily</td><td>Essential hypertension (disorder)</td></tr><tr><td>Clopidogrel (as clopidogrel bisulfate) 75 mg oral tablet</td><td><span class=\"nb\">2014-03-31</span></td><td>-</td><td>1 tablet (75 mg) once daily</td><td>-</td></tr><tr><td>Simvastatin 20 mg oral tablet</td><td><span class=\"nb\">2014-03-31</span></td><td>-</td><td>1 tablet (20 mg) by mouth once daily</td><td>-</td></tr><tr><td>Nitroglycerin 400 microgram/actuation sublingual spray</td><td><span class=\"nb\">2014-03-31</span></td><td>-</td><td>400 micrograms per spray, 1 spray under the tongue as needed for chest pain, may repeat every 5 minutes as needed, up to 3 sprays in 15 minutes</td><td>-</td></tr><tr><td>Metoprolol tartrate (as metoprolol succinate) 100 mg prolonged-release oral tablet</td><td><span class=\"nb\">2014-03-31</span></td><td>-</td><td>1 tablet (100 mg) once daily</td><td>-</td></tr></table></div>"
            },
            "entry": [
              {
                "reference": "urn:uuid:2d60a425-582f-4250-b267-8a666fe4a770"
              },
              {
                "reference": "urn:uuid:499d886e-0b55-408a-9de3-2cff56dc3f66"
              },
              {
                "reference": "urn:uuid:3d0ab46e-3946-4de1-928b-d0f8b05d3b79"
              },
              {
                "reference": "urn:uuid:b3015365-3bdf-40f2-9917-237481763cdc"
              },
              {
                "reference": "urn:uuid:45c911a7-6963-46a3-a66b-1906c314eacc"
              },
              {
                "reference": "urn:uuid:c67d3e71-2b3c-4cef-a4a4-3c07af0fff35"
              }
            ],
            "code": {
              "coding": [
                {
                  "system": "http://loinc.org",
                  "code": "10160-0",
                  "display": "History of Medication use Narrative"
                }
              ]
            },
            "title": "Medication list"
          },
          {
            "text": {
              "status": "generated",
              "div": "<div xmlns=\"http://www.w3.org/1999/xhtml\"><table class=\"hl7__ips\"><tr><th>Vaccine</th><th>Date</th></tr><tr><td>Influenza virus antigen only vaccine product</td><td><span class=\"nb\">26-May-2025</span></td></tr><tr><td>SARS-CoV-2 mRNA vaccine</td><td><span class=\"nb\">22-Feb-2021</span></td></tr><tr><td>Clostridium tetani toxoid antigen adsorbed only vaccine product</td><td><span class=\"nb\">27-Apr-2020</span></td></tr></table></div>"
            },
            "entry": [
              {
                "reference": "urn:uuid:421e091e-970a-4c20-a0c4-dfabf01a90b4"
              },
              {
                "reference": "urn:uuid:7ab06bb5-5bff-4361-936e-0a2de3427d3b"
              },
              {
                "reference": "urn:uuid:2dfb5665-d205-4a2c-a7ad-cc34c13ef456"
              }
            ],
            "code": {
              "coding": [
                {
                  "system": "http://loinc.org",
                  "code": "11369-6",
                  "display": "History of Immunization note"
                }
              ]
            },
            "title": "Immunizations list"
          },
          {
            "text": {
              "status": "generated",
              "div": "<div xmlns=\"http://www.w3.org/1999/xhtml\"><table class=\"hl7__ips\"><tr><th>Procedure</th><th>Date</th><th>Reason</th></tr><tr><td>Patient discharge</td><td><span class=\"nb\">02-Jan-2024</span></td><td>-</td></tr><tr><td>Notifications</td><td><span class=\"nb\">01-Jan-2024</span></td><td>-</td></tr><tr><td>Certification procedure</td><td><span class=\"nb\">01-Jan-2024</span></td><td>-</td></tr><tr><td>Initial patient assessment</td><td><span class=\"nb\">01-Jan-2024</span></td><td>-</td></tr><tr><td>Development of individualized plan of care</td><td><span class=\"nb\">01-Jan-2024</span></td><td>-</td></tr><tr><td>Hospice care</td><td><span class=\"nb\">01-Jan-2024</span></td><td>-</td></tr></table></div>"
            },
            "entry": [
              {
                "reference": "urn:uuid:b3578862-5402-4ff2-8472-002903cac6da"
              },
              {
                "reference": "urn:uuid:4d8bcfb5-0b45-468d-8102-ea80d87ad902"
              },
              {
                "reference": "urn:uuid:094e7515-044e-499d-ac38-fe56919544f9"
              },
              {
                "reference": "urn:uuid:8d6fd57f-ee83-49fb-95ee-d617a74c3c33"
              },
              {
                "reference": "urn:uuid:91a7f3e5-8e63-4038-aeff-9007c5512bc3"
              },
              {
                "reference": "urn:uuid:43095c18-6f40-4f44-88ab-c5fd009a64f8"
              }
            ],
            "code": {
              "coding": [
                {
                  "system": "http://loinc.org",
                  "code": "47519-4",
                  "display": "History of Procedures Document"
                }
              ]
            },
            "title": "Procedure History list"
          },
          {
            "text": {
              "status": "generated",
              "div": "<div xmlns=\"http://www.w3.org/1999/xhtml\"><table class=\"hl7__ips\"><tr><th>Allergy/Intolerance</th><th>Onset Date</th><th>Status</th><th>Type</th><th>Reaction</th></tr><tr><td>Allergy to substance</td><td><span class=\"nb\">1949-11-19</span></td><td>active</td><td>environment</td><td></td></tr><tr><td>Peanut</td><td><span class=\"nb\">1949-11-19</span></td><td>active</td><td>food</td><td>Wheal (finding)<br></br>Finding of vomiting (finding)</td></tr></table></div>"
            },
            "entry": [
              {
                "reference": "urn:uuid:1467b0a5-1c81-4bc0-ac6a-7696035e6258"
              },
              {
                "reference": "urn:uuid:fb56e0ae-e34f-4206-afa8-b6b2d6b02fc5"
              }
            ],
            "code": {
              "coding": [
                {
                  "system": "http://loinc.org",
                  "code": "48765-2",
                  "display": "Allergies and adverse reactions Document"
                }
              ]
            },
            "title": "Allergies and Intolerances"
          },
          {
            "text": {
              "status": "generated",
              "div": "<div xmlns=\"http://www.w3.org/1999/xhtml\"><table class=\"hl7__ips\"><tr><th>Active Planned Care / Goals</th><th>Start Date</th><th>Reason</th></tr><tr><td>Hyperlipidemia clinical management plan</td><td><span class=\"nb\">05-Jun-2023</span></td><td>Hyperlipidemia</td></tr><tr><td><ul><li>Achieve LDL cholesterol below 1.8 mmol/L to reduce cardiovascular risk.</li><li>Achieve total cholesterol below 4.0 mmol/L.</li><li>Achieve triglycerides below 1.7 mmol/L.</li><li>Maintain HDL cholesterol above 1.0 mmol/L.</li></ul></td><td></td><td></td></tr><tr><td>Lifestyle education regarding hypertension</td><td><span class=\"nb\">28-Dec-1998</span></td><td>Essential hypertension (disorder)</td></tr><tr><td><ul><li>Maintain blood pressure below 130/80 mmHg through lifestyle modifications.</li><li>Limit daily sodium intake to less than 2.3 grams to support blood pressure control.</li><li>Engage in at least 150 minutes of moderate-intensity aerobic physical activity per week.</li><li>Achieve at least 5% reduction in body weight if overweight or obese.</li></ul></td><td></td><td></td></tr><tr><td>Diabetes self management plan</td><td><span class=\"nb\">07-Mar-1977</span></td><td>Prediabetes</td></tr><tr><td><ul><li>Patient will participate in diabetes self-management education to improve understanding and management of prediabetes and diabetes.</li><li>Achieve and maintain HbA1c at individualized target level.</li><li>Achieve and maintain fasting plasma glucose within recommended range.</li><li>Achieve weight reduction of at least 5% from baseline to improve glycemic control.</li><li>Achieve and maintain blood pressure within recommended range for diabetes.</li></ul></td><td></td><td></td></tr><tr><td>Self-care interventions</td><td><span class=\"nb\">02-Nov-1949</span></td><td>-</td></tr><tr><th>Immunization Recommendation</th><th>Due Date</th><th>Reason</th></tr><tr><td>Vaccine product containing only Influenza virus antigen (medicinal product)</td><td><span class=\"nb\">01-Oct-2025</span></td><td>Annual seasonal influenza vaccination</td></tr></table></div>"
            },
            "entry": [
              {
                "reference": "urn:uuid:4a53728d-fc80-4357-92b9-1ae309c213ac"
              },
              {
                "reference": "urn:uuid:4a9b89c3-18a5-4ad6-9f6d-39c168051d61"
              },
              {
                "reference": "urn:uuid:a6aa553d-480d-4fdd-b9bc-9fba19bb6d33"
              },
              {
                "reference": "urn:uuid:e64ae4d0-b70a-4b11-b370-7f2ccd0d08e4"
              },
              {
                "reference": "urn:uuid:d40f55a2-dcbd-40ef-ad96-54dab6d178ff"
              }
            ],
            "code": {
              "coding": [
                {
                  "system": "http://loinc.org",
                  "code": "18776-5",
                  "display": "Plan of care note"
                }
              ]
            },
            "title": "Care Plan"
          },
          {
            "text": {
              "status": "generated",
              "div": "<div xmlns=\"http://www.w3.org/1999/xhtml\"><table class=\"hl7__ips\"><tr><th>Vital Signs</th><th>2025-05-26</th><th>2024-05-20</th></tr><tr><td>Body Height</td><td>173.1 cm</td><td>173.1 cm</td></tr><tr><td>Pain severity - 0-10 verbal numeric rating [Score] - Reported</td><td>1 {score}</td><td>1 {score}</td></tr><tr><td>Body Weight</td><td>83.2 kg</td><td>83.2 kg</td></tr><tr><td>Body mass index (BMI) [Ratio]</td><td>27.8 kg/m2</td><td>27.8 kg/m2</td></tr><tr><td>Diastolic Blood Pressure</td><td>88 mm[Hg]</td><td>85 mm[Hg]</td></tr><tr><td>Systolic Blood Pressure</td><td>119 mm[Hg]</td><td>122 mm[Hg]</td></tr><tr><td>Heart rate</td><td>85 /min</td><td>85 /min</td></tr><tr><td>Respiratory rate</td><td>15 /min</td><td>13 /min</td></tr></table></div>"
            },
            "entry": [
              {
                "reference": "urn:uuid:43fabe80-cf3a-44e0-9835-becc0880e395"
              },
              {
                "reference": "urn:uuid:4c84e5fd-d2df-4c56-89df-fb79f8b3c8f8"
              },
              {
                "reference": "urn:uuid:329aa76a-2d99-4357-b494-52c462bab2da"
              },
              {
                "reference": "urn:uuid:63f7d11b-2aa9-4892-ab4c-2db8974ab8bc"
              },
              {
                "reference": "urn:uuid:78777424-e3b7-4659-9396-6d4c8e06d4f2"
              },
              {
                "reference": "urn:uuid:c10a27ed-3f62-4753-b5d4-ab2124ae90e5"
              },
              {
                "reference": "urn:uuid:554bca10-9a35-4cfe-81f9-d449305ee79d"
              },
              {
                "reference": "urn:uuid:6c3d0cf1-9337-4e89-be8b-91c93fac83ce"
              },
              {
                "reference": "urn:uuid:c55ea03d-8d40-44b8-a519-745dad0eb58d"
              },
              {
                "reference": "urn:uuid:56897ff9-1a53-456c-91d7-c2b1bec454fc"
              },
              {
                "reference": "urn:uuid:70efe471-de10-464e-934f-5f79a848c4aa"
              },
              {
                "reference": "urn:uuid:b9f69a96-1d94-428b-a6c4-1ece1dafb6c7"
              },
              {
                "reference": "urn:uuid:50e826e3-8491-4c34-b44c-0eb2734194bb"
              },
              {
                "reference": "urn:uuid:78471719-f3a6-416a-a344-a529a32ea7b2"
              },
              {
                "reference": "urn:uuid:64b0fc03-2f3e-49df-8869-4722aaab2f92"
              },
              {
                "reference": "urn:uuid:5b5e1184-ddf8-4ccf-aaa3-0180b5f8c8ff"
              }
            ],
            "code": {
              "coding": [
                {
                  "system": "http://loinc.org",
                  "code": "8716-3",
                  "display": "Vital signs note"
                }
              ]
            },
            "title": "Vital Signs"
          },
          {
            "text": {
              "status": "generated",
              "div": "<div xmlns=\"http://www.w3.org/1999/xhtml\"><table class=\"hl7__ips\"><table class=\"hl7__ips\"><thead><tr><th>Recent Lab Observations</th><th>04-JUN-2025</th><th>Reference&#xA0;Range</th><th>Unit</th></tr></thead><tbody><tr><td>Glucose [Mass/volume] in Blood</td><td>114.6</td><td>70 - 140</td><td>mg/dL</td></tr><tr><td>Urea nitrogen [Mass/volume] in Blood</td><td>7.1</td><td>7 - 20</td><td>mg/dL</td></tr><tr><td>Creatinine [Mass/volume] in Blood</td><td><strong>3.5 H</strong></td><td>0.6 - 1.3</td><td>mg/dL</td></tr><tr><td>Calcium [Mass/volume] in Blood</td><td>8.8</td><td>8.5 - 10.5</td><td>mg/dL</td></tr><tr><td>Sodium [Moles/volume] in Blood</td><td>143.6</td><td>135 - 145</td><td>mmol/L</td></tr><tr><td>Potassium [Moles/volume] in Blood</td><td>4.8</td><td>3.5 - 5.1</td><td>mmol/L</td></tr><tr><td>Chloride [Moles/volume] in Blood</td><td><strong>109.7 H</strong></td><td>98 - 108</td><td>mmol/L</td></tr><tr><td>Carbon dioxide, total [Moles/volume] in Blood</td><td><strong>20.6 L</strong></td><td>22 - 32</td><td>mmol/L</td></tr><tr><td>Protein [Mass/volume] in Serum or Plasma</td><td>7.0</td><td>6.6 - 8.3</td><td>g/dL</td></tr><tr><td>Albumin [Mass/volume] in Serum or Plasma</td><td>4.7</td><td>3.5 - 5.5</td><td>g/dL</td></tr><tr><td>Globulin [Mass/volume] in Serum by calculation</td><td>3.4</td><td>2 - 3.5</td><td>g/L</td></tr><tr><td>Bilirubin.total [Mass/volume] in Serum or Plasma</td><td>1.1</td><td>0.3 - 1.2</td><td>mg/dL</td></tr><tr><td>Alkaline phosphatase [Enzymatic activity/volume] in Serum or Plasma</td><td>92.4</td><td>53 - 130</td><td>U/L</td></tr><tr><td>Alanine aminotransferase [Enzymatic activity/volume] in Serum or Plasma</td><td>36.1</td><td>7 - 60</td><td>U/L</td></tr><tr><td>Aspartate aminotransferase [Enzymatic activity/volume] in Serum or Plasma</td><td>28.3</td><td>10 - 49</td><td>U/L</td></tr><tr><td>Cholesterol [Mass/volume] in Serum or Plasma</td><td>177.6</td><td>125 - 200</td><td>mg/dL</td></tr><tr><td>Triglyceride [Mass/volume] in Serum or Plasma</td><td><strong>175.5 H</strong></td><td>40 - 150</td><td>mg/dL</td></tr><tr><td>Cholesterol in LDL [Mass/volume] in Serum or Plasma by Direct assay</td><td>93.9</td><td>0 - 190</td><td>mg/dL</td></tr><tr><td>Cholesterol in HDL [Mass/volume] in Serum or Plasma</td><td>42.6</td><td>40 - 60</td><td>mg/dL</td></tr></tbody></table></table></div>"
            },
            "entry": [
              {
                "reference": "urn:uuid:0925ae83-40d4-466e-aca1-21627d19f0b4"
              },
              {
                "reference": "urn:uuid:0e63fb5b-0c39-4369-a799-4105bd352f7e"
              },
              {
                "reference": "urn:uuid:9c38dc6f-9087-441d-902d-afef8b6b1f6c"
              },
              {
                "reference": "urn:uuid:e26849c2-f6ca-4176-813b-65504cce0658"
              },
              {
                "reference": "urn:uuid:3dd1601e-d03b-4056-90b7-0692d36f5b6d"
              },
              {
                "reference": "urn:uuid:f449a266-d93d-4604-8969-bf8b63aa1343"
              },
              {
                "reference": "urn:uuid:1a58ae02-0c89-4485-bd22-37b959a88b7c"
              },
              {
                "reference": "urn:uuid:039ad45f-f708-4962-a848-a4cf4b856a41"
              },
              {
                "reference": "urn:uuid:e09e4417-8d9b-4026-8ab8-3459459ff716"
              },
              {
                "reference": "urn:uuid:9c6fc5e5-677b-4b8d-b1c6-badb3e5d41f4"
              },
              {
                "reference": "urn:uuid:4dad3e56-11f5-4123-b991-134cc4760cf3"
              },
              {
                "reference": "urn:uuid:ef4de292-a788-4282-b79d-a4decf0c724f"
              },
              {
                "reference": "urn:uuid:9e1961e0-c7a4-47e4-a07e-36d9d4021cc1"
              },
              {
                "reference": "urn:uuid:48210133-b7f3-4f2f-b176-d6c51a6e1018"
              },
              {
                "reference": "urn:uuid:90820b5e-6a98-4398-b95b-92704007f109"
              },
              {
                "reference": "urn:uuid:0a0bf042-b1f8-47a1-bb16-e9a36f1f0035"
              },
              {
                "reference": "urn:uuid:07784e2d-f30e-4b00-9a29-4d2471ec9c9b"
              },
              {
                "reference": "urn:uuid:9879d1cf-50ba-4540-b721-b856f718e0b7"
              },
              {
                "reference": "urn:uuid:01da51d4-4dbc-4b68-bfca-0178f3a1e6cb"
              }
            ],
            "code": {
              "coding": [
                {
                  "system": "http://loinc.org",
                  "code": "30954-2",
                  "display": "Relevant diagnostic tests/laboratory data note"
                }
              ]
            },
            "title": "Relevant diagnostic tests/laboratory data"
          },
          {
            "text": {
              "status": "generated",
              "div": "<div xmlns=\"http://www.w3.org/1999/xhtml\"><table class=\"hl7__ips\"><tr><th>Device</th><th>Date (since)</th></tr><tr><td>Blood glucose meter (physical object)</td><td><span class=\"nb\">07-Mar-1977</span></td></tr><tr><td>Home nebulizer (physical object)</td><td><span class=\"nb\">28-Aug-1972</span></td></tr></table></div>"
            },
            "entry": [
              {
                "reference": "urn:uuid:26481638-a01d-4ab1-a4e2-c7cacfb3bab3"
              },
              {
                "reference": "urn:uuid:8284182f-0821-4e84-a6bf-ad11a2a84b54"
              }
            ],
            "code": {
              "coding": [
                {
                  "system": "http://loinc.org",
                  "code": "46264-8",
                  "display": "History of medical device use"
                }
              ]
            },
            "title": "Device Use"
          }
        ],
        "title": "European Patient Summary",
        "status": "final",
        "subject": {
          "reference": "urn:uuid:c32f74ec-f559-4c50-be37-3c8de05bb2ce",
          "display": "Stephen Weinhage"
        },
        "custodian": {
          "reference": "urn:uuid:414443e5-df5a-4636-ba4f-d48f5132c439"
        },
        "date": "2025-06-04",
        "confidentiality": "N"
      }
    },
    {
      "fullUrl": "urn:uuid:c32f74ec-f559-4c50-be37-3c8de05bb2ce",
      "resource": {
        "resourceType": "Patient",
        "id": "c32f74ec-f559-4c50-be37-3c8de05bb2ce",
        "meta": {
          "security": [
            {
              "system": "http://terminology.hl7.org/CodeSystem/v3-ActReason",
              "code": "HTEST"
            },
            {
              "system": "http://terminology.hl7.org/CodeSystem/v3-ActReason",
              "code": "TRAIN"
            }
          ],
          "tag": [
            {
              "system": "https://synderai.net/fhir/CodeSystem/tags",
              "code": "synthetic",
              "display": "SYNDERAI Synthetic data"
            }
          ],
          "profile": [
            "http://hl7.eu/fhir/eps/StructureDefinition/patient-eu-eps"
          ]
        },
        "identifier": [
          {
            "type": {
              "coding": [
                {
                  "code": "PT",
                  "system": "http://terminology.hl7.org/CodeSystem/v2-0203"
                }
              ]
            },
            "system": "http://ec.europa.eu/identifier/eci",
            "value": "6413-101438-9"
          },
          {
            "type": {
              "coding": [
                {
                  "code": "MR",
                  "system": "http://terminology.hl7.org/CodeSystem/v2-0203"
                }
              ]
            },
            "system": "http://local.setting.eu/identifier",
            "value": "24ebd065-2072-c582-96d3-10256a4a5a7d"
          }
        ],
        "name": [
          {
            "family": "Weinhage"
          },
          {
            "given": [
              "Stephen"
            ]
          },
          {
            "text": "Stephen Weinhage"
          }
        ],
        "address": [
          {
            "line": [
              "Bertold-Stahr-Platz 6/3"
            ],
            "use": "home",
            "type": "physical",
            "postalCode": "31535",
            "city": "Neustadt am Rübenberge",
            "country": "Germany"
          }
        ],
        "telecom": [
          {
            "system": "phone",
            "value": "+49(0)5355171263"
          }
        ],
        "extension": [
          {
            "url": "http://hl7.org/fhir/StructureDefinition/patient-nationality",
            "valueCodeableConcept": {
              "coding": [
                {
                  "code": "DE",
                  "system": "http://hl7.org/fhir/ValueSet/country"
                }
              ]
            }
          }
        ],
        "text": {
          "status": "generated",
          "div": "<div xmlns=\"http://www.w3.org/1999/xhtml\"><table class=\"hl7__ips\"><tr><td>Stephen Weinhage</td><td>male</td><td>11-Aug-1950</td></tr></table></div>"
        },
        "gender": "male",
        "birthDate": "1950-08-11"
      }
    },
    {
      "fullUrl": "urn:uuid:097bfa50-f478-479d-817d-d0ed39591b15",
      "resource": {
        "resourceType": "PractitionerRole",
        "id": "097bfa50-f478-479d-817d-d0ed39591b15",
        "meta": {
          "profile": [
            "http://hl7.eu/fhir/base/StructureDefinition/practitionerRole-eu"
          ]
        },
        "text": {
          "status": "generated",
          "div": "<div xmlns=\"http://www.w3.org/1999/xhtml\"><table class=\"hl7__ips\">Provider Role Id 097bfa50-f478-479d-817d-d0ed39591b15</table></div>"
        },
        "practitioner": {
          "reference": "urn:uuid:fe472899-b1fd-4c66-ba06-ad2971712b5a"
        },
        "organization": {
          "reference": "urn:uuid:414443e5-df5a-4636-ba4f-d48f5132c439"
        }
      }
    },
    {
      "fullUrl": "urn:uuid:fe472899-b1fd-4c66-ba06-ad2971712b5a",
      "resource": {
        "resourceType": "Practitioner",
        "id": "fe472899-b1fd-4c66-ba06-ad2971712b5a",
        "meta": {
          "profile": [
            "http://hl7.eu/fhir/base/StructureDefinition/practitioner-eu"
          ]
        },
        "name": [
          {
            "prefix": [
              "Dr."
            ],
            "given": [
              "Hel"
            ],
            "family": "Ping"
          }
        ],
        "text": {
          "status": "generated",
          "div": "<div xmlns=\"http://www.w3.org/1999/xhtml\"><table class=\"hl7__ips\">Dr. Hel Ping</table></div>"
        }
      }
    },
    {
      "fullUrl": "urn:uuid:414443e5-df5a-4636-ba4f-d48f5132c439",
      "resource": {
        "resourceType": "Organization",
        "id": "414443e5-df5a-4636-ba4f-d48f5132c439",
        "meta": {
          "profile": [
            "http://hl7.eu/fhir/base/StructureDefinition/organization-eu"
          ]
        },
        "identifier": [
          {
            "assigner": {
              "display": "HL7 Europe"
            },
            "system": "urn:oid:2.16.840.1.113883.2.51.999",
            "value": "9332417c-f9a0-4d58-8e20-42b0128f323f"
          }
        ],
        "address": [
          {
            "line": [
              "Dudenser Straße 41A"
            ],
            "city": "Neustadt am Rübenberge",
            "postalCode": "31535",
            "country": "Germany"
          }
        ],
        "text": {
          "status": "generated",
          "div": "<div xmlns=\"http://www.w3.org/1999/xhtml\"><table class=\"hl7__ips\">Landarztpraxis Dudensen</table></div>"
        },
        "name": "Landarztpraxis Dudensen"
      }
    },
    {
      "fullUrl": "urn:uuid:e94bbdd4-64b8-4ba7-9575-bd4a90c1db5a",
      "resource": {
        "resourceType": "Condition",
        "id": "e94bbdd4-64b8-4ba7-9575-bd4a90c1db5a",
        "meta": {
          "profile": [
            "http://hl7.org/fhir/uv/ips/StructureDefinition/Condition-uv-ips"
          ]
        },
        "category": [
          {
            "coding": [
              {
                "code": "problem-list-item",
                "system": "http://terminology.hl7.org/CodeSystem/condition-category",
                "display": "Problem List Item"
              }
            ]
          }
        ],
        "code": {
          "coding": [
            {
              "code": "422034002",
              "system": "http://snomed.info/sct",
              "display": "Retinopathy due to type 2 diabetes mellitus (disorder)"
            }
          ],
          "text": "Retinopathy due to type 2 diabetes mellitus"
        },
        "text": {
          "status": "generated",
          "div": "<div xmlns=\"http://www.w3.org/1999/xhtml\"><table class=\"hl7__ips\"><tr><td>Retinopathy due to type 2 diabetes mellitus</td><td><span class=\"nb\">20-May-2024</span></td><td>active</td></tr></table></div>"
        },
        "onsetDateTime": "2024-05-20",
        "subject": {
          "reference": "urn:uuid:",
          "display": "Stephen Weinhage"
        },
        "asserter": {
          "reference": "urn:uuid:",
          "display": "Landarztpraxis Dudensen"
        }
      }
    },
    {
      "fullUrl": "urn:uuid:88350441-72ee-4fc9-a4a8-48674aef0bfc",
      "resource": {
        "resourceType": "Condition",
        "id": "88350441-72ee-4fc9-a4a8-48674aef0bfc",
        "meta": {
          "profile": [
            "http://hl7.org/fhir/uv/ips/StructureDefinition/Condition-uv-ips"
          ]
        },
        "category": [
          {
            "coding": [
              {
                "code": "problem-list-item",
                "system": "http://terminology.hl7.org/CodeSystem/condition-category",
                "display": "Problem List Item"
              }
            ]
          }
        ],
        "code": {
          "coding": [
            {
              "code": "55822004",
              "system": "http://snomed.info/sct",
              "display": "Hyperlipidemia (disorder)"
            }
          ],
          "text": "Hyperlipidemia"
        },
        "text": {
          "status": "generated",
          "div": "<div xmlns=\"http://www.w3.org/1999/xhtml\"><table class=\"hl7__ips\"><tr><td>Hyperlipidemia</td><td><span class=\"nb\">15-May-2023</span></td><td>active</td></tr></table></div>"
        },
        "onsetDateTime": "2023-05-15",
        "subject": {
          "reference": "urn:uuid:",
          "display": "Stephen Weinhage"
        },
        "asserter": {
          "reference": "urn:uuid:",
          "display": "Landarztpraxis Dudensen"
        }
      }
    },
    {
      "fullUrl": "urn:uuid:e3a281fd-5985-4e09-bb91-9e54b001f1b4",
      "resource": {
        "resourceType": "Condition",
        "id": "e3a281fd-5985-4e09-bb91-9e54b001f1b4",
        "meta": {
          "profile": [
            "http://hl7.org/fhir/uv/ips/StructureDefinition/Condition-uv-ips"
          ]
        },
        "category": [
          {
            "coding": [
              {
                "code": "problem-list-item",
                "system": "http://terminology.hl7.org/CodeSystem/condition-category",
                "display": "Problem List Item"
              }
            ]
          }
        ],
        "code": {
          "coding": [
            {
              "code": "302870006",
              "system": "http://snomed.info/sct",
              "display": "Hypertriglyceridemia (disorder)"
            }
          ],
          "text": "Hypertriglyceridemia"
        },
        "text": {
          "status": "generated",
          "div": "<div xmlns=\"http://www.w3.org/1999/xhtml\"><table class=\"hl7__ips\"><tr><td>Hypertriglyceridemia</td><td><span class=\"nb\">10-Apr-2017</span></td><td>active</td></tr></table></div>"
        },
        "onsetDateTime": "2017-04-10",
        "subject": {
          "reference": "urn:uuid:",
          "display": "Stephen Weinhage"
        },
        "asserter": {
          "reference": "urn:uuid:",
          "display": "Landarztpraxis Dudensen"
        }
      }
    },
    {
      "fullUrl": "urn:uuid:8f2326d3-6935-48a6-a681-d7757059bd49",
      "resource": {
        "resourceType": "Condition",
        "id": "8f2326d3-6935-48a6-a681-d7757059bd49",
        "meta": {
          "profile": [
            "http://hl7.org/fhir/uv/ips/StructureDefinition/Condition-uv-ips"
          ]
        },
        "category": [
          {
            "coding": [
              {
                "code": "problem-list-item",
                "system": "http://terminology.hl7.org/CodeSystem/condition-category",
                "display": "Problem List Item"
              }
            ]
          }
        ],
        "code": {
          "coding": [
            {
              "code": "44054006",
              "system": "http://snomed.info/sct",
              "display": "Diabetes mellitus type 2 (disorder)"
            }
          ],
          "text": "Type 2 diabetes mellitus"
        },
        "text": {
          "status": "generated",
          "div": "<div xmlns=\"http://www.w3.org/1999/xhtml\"><table class=\"hl7__ips\"><tr><td>Type 2 diabetes mellitus</td><td><span class=\"nb\">04-Apr-2016</span></td><td>active</td></tr></table></div>"
        },
        "onsetDateTime": "2016-04-04",
        "subject": {
          "reference": "urn:uuid:",
          "display": "Stephen Weinhage"
        },
        "asserter": {
          "reference": "urn:uuid:",
          "display": "Landarztpraxis Dudensen"
        }
      }
    },
    {
      "fullUrl": "urn:uuid:dfc4aee1-4636-4c95-8e48-de981a74bef4",
      "resource": {
        "resourceType": "Condition",
        "id": "dfc4aee1-4636-4c95-8e48-de981a74bef4",
        "meta": {
          "profile": [
            "http://hl7.org/fhir/uv/ips/StructureDefinition/Condition-uv-ips"
          ]
        },
        "category": [
          {
            "coding": [
              {
                "code": "problem-list-item",
                "system": "http://terminology.hl7.org/CodeSystem/condition-category",
                "display": "Problem List Item"
              }
            ]
          }
        ],
        "code": {
          "coding": [
            {
              "code": "414545008",
              "system": "http://snomed.info/sct",
              "display": "Ischemic heart disease (disorder)"
            }
          ],
          "text": "Ischemic heart disease"
        },
        "text": {
          "status": "generated",
          "div": "<div xmlns=\"http://www.w3.org/1999/xhtml\"><table class=\"hl7__ips\"><tr><td>Ischemic heart disease</td><td><span class=\"nb\">24-Mar-2014</span></td><td>active</td></tr></table></div>"
        },
        "onsetDateTime": "2014-03-24",
        "subject": {
          "reference": "urn:uuid:",
          "display": "Stephen Weinhage"
        },
        "asserter": {
          "reference": "urn:uuid:",
          "display": "Landarztpraxis Dudensen"
        }
      }
    },
    {
      "fullUrl": "urn:uuid:5fc9b55d-930c-4818-9816-b4c17cd35462",
      "resource": {
        "resourceType": "Condition",
        "id": "5fc9b55d-930c-4818-9816-b4c17cd35462",
        "meta": {
          "profile": [
            "http://hl7.org/fhir/uv/ips/StructureDefinition/Condition-uv-ips"
          ]
        },
        "category": [
          {
            "coding": [
              {
                "code": "problem-list-item",
                "system": "http://terminology.hl7.org/CodeSystem/condition-category",
                "display": "Problem List Item"
              }
            ]
          }
        ],
        "code": {
          "coding": [
            {
              "code": "237602007",
              "system": "http://snomed.info/sct",
              "display": "Metabolic syndrome X (disorder)"
            }
          ],
          "text": "Metabolic syndrome X"
        },
        "text": {
          "status": "generated",
          "div": "<div xmlns=\"http://www.w3.org/1999/xhtml\"><table class=\"hl7__ips\"><tr><td>Metabolic syndrome X</td><td><span class=\"nb\">08-Jan-2001</span></td><td>active</td></tr></table></div>"
        },
        "onsetDateTime": "2001-01-08",
        "subject": {
          "reference": "urn:uuid:",
          "display": "Stephen Weinhage"
        },
        "asserter": {
          "reference": "urn:uuid:",
          "display": "Landarztpraxis Dudensen"
        }
      }
    },
    {
      "fullUrl": "urn:uuid:d14c134b-5d8a-4203-bff9-bc57d5b9cf20",
      "resource": {
        "resourceType": "Condition",
        "id": "d14c134b-5d8a-4203-bff9-bc57d5b9cf20",
        "meta": {
          "profile": [
            "http://hl7.org/fhir/uv/ips/StructureDefinition/Condition-uv-ips"
          ]
        },
        "category": [
          {
            "coding": [
              {
                "code": "problem-list-item",
                "system": "http://terminology.hl7.org/CodeSystem/condition-category",
                "display": "Problem List Item"
              }
            ]
          }
        ],
        "code": {
          "coding": [
            {
              "code": "68496003",
              "system": "http://snomed.info/sct",
              "display": "Polyp of colon (disorder)"
            }
          ],
          "text": "Polyp of colon"
        },
        "text": {
          "status": "generated",
          "div": "<div xmlns=\"http://www.w3.org/1999/xhtml\"><table class=\"hl7__ips\"><tr><td>Polyp of colon</td><td><span class=\"nb\">04-Jan-1999</span></td><td>active</td></tr></table></div>"
        },
        "onsetDateTime": "1999-01-04",
        "subject": {
          "reference": "urn:uuid:",
          "display": "Stephen Weinhage"
        },
        "asserter": {
          "reference": "urn:uuid:",
          "display": "Landarztpraxis Dudensen"
        }
      }
    },
    {
      "fullUrl": "urn:uuid:b119f54c-480d-493a-9d6a-7af0ecbc242c",
      "resource": {
        "resourceType": "Condition",
        "id": "b119f54c-480d-493a-9d6a-7af0ecbc242c",
        "meta": {
          "profile": [
            "http://hl7.org/fhir/uv/ips/StructureDefinition/Condition-uv-ips"
          ]
        },
        "category": [
          {
            "coding": [
              {
                "code": "problem-list-item",
                "system": "http://terminology.hl7.org/CodeSystem/condition-category",
                "display": "Problem List Item"
              }
            ]
          }
        ],
        "code": {
          "coding": [
            {
              "code": "59621000",
              "system": "http://snomed.info/sct",
              "display": "Essential hypertension (disorder)"
            }
          ],
          "text": "Essential hypertension"
        },
        "text": {
          "status": "generated",
          "div": "<div xmlns=\"http://www.w3.org/1999/xhtml\"><table class=\"hl7__ips\"><tr><td>Essential hypertension</td><td><span class=\"nb\">28-Dec-1998</span></td><td>active</td></tr></table></div>"
        },
        "onsetDateTime": "1998-12-28",
        "subject": {
          "reference": "urn:uuid:",
          "display": "Stephen Weinhage"
        },
        "asserter": {
          "reference": "urn:uuid:",
          "display": "Landarztpraxis Dudensen"
        }
      }
    },
    {
      "fullUrl": "urn:uuid:ca57eb74-4273-49e4-8f34-add538cbdaf7",
      "resource": {
        "resourceType": "Condition",
        "id": "ca57eb74-4273-49e4-8f34-add538cbdaf7",
        "meta": {
          "profile": [
            "http://hl7.org/fhir/uv/ips/StructureDefinition/Condition-uv-ips"
          ]
        },
        "category": [
          {
            "coding": [
              {
                "code": "problem-list-item",
                "system": "http://terminology.hl7.org/CodeSystem/condition-category",
                "display": "Problem List Item"
              }
            ]
          }
        ],
        "code": {
          "coding": [
            {
              "code": "15777000",
              "system": "http://snomed.info/sct",
              "display": "Prediabetes (disorder)"
            }
          ],
          "text": "Prediabetes"
        },
        "text": {
          "status": "generated",
          "div": "<div xmlns=\"http://www.w3.org/1999/xhtml\"><table class=\"hl7__ips\"><tr><td>Prediabetes</td><td><span class=\"nb\">07-Mar-1977</span></td><td>active</td></tr></table></div>"
        },
        "onsetDateTime": "1977-03-07",
        "subject": {
          "reference": "urn:uuid:",
          "display": "Stephen Weinhage"
        },
        "asserter": {
          "reference": "urn:uuid:",
          "display": "Landarztpraxis Dudensen"
        }
      }
    },
    {
      "fullUrl": "urn:uuid:9fd9ad43-df3f-41eb-bbad-53240bc07e6b",
      "resource": {
        "resourceType": "Condition",
        "id": "9fd9ad43-df3f-41eb-bbad-53240bc07e6b",
        "meta": {
          "profile": [
            "http://hl7.org/fhir/uv/ips/StructureDefinition/Condition-uv-ips"
          ]
        },
        "category": [
          {
            "coding": [
              {
                "code": "problem-list-item",
                "system": "http://terminology.hl7.org/CodeSystem/condition-category",
                "display": "Problem List Item"
              }
            ]
          }
        ],
        "code": {
          "coding": [
            {
              "code": "271737000",
              "system": "http://snomed.info/sct",
              "display": "Anemia (disorder)"
            }
          ],
          "text": "Anemia"
        },
        "text": {
          "status": "generated",
          "div": "<div xmlns=\"http://www.w3.org/1999/xhtml\"><table class=\"hl7__ips\"><tr><td>Anemia</td><td><span class=\"nb\">07-Mar-1977</span></td><td>active</td></tr></table></div>"
        },
        "onsetDateTime": "1977-03-07",
        "subject": {
          "reference": "urn:uuid:",
          "display": "Stephen Weinhage"
        },
        "asserter": {
          "reference": "urn:uuid:",
          "display": "Landarztpraxis Dudensen"
        }
      }
    },
    {
      "fullUrl": "urn:uuid:00f72d0c-cb7f-492a-9514-fdd206d474b8",
      "resource": {
        "resourceType": "Condition",
        "id": "00f72d0c-cb7f-492a-9514-fdd206d474b8",
        "meta": {
          "profile": [
            "http://hl7.org/fhir/uv/ips/StructureDefinition/Condition-uv-ips"
          ]
        },
        "category": [
          {
            "coding": [
              {
                "code": "problem-list-item",
                "system": "http://terminology.hl7.org/CodeSystem/condition-category",
                "display": "Problem List Item"
              }
            ]
          }
        ],
        "code": {
          "coding": [
            {
              "code": "40055000",
              "system": "http://snomed.info/sct",
              "display": "Chronic sinusitis (disorder)"
            }
          ],
          "text": "Chronic sinusitis"
        },
        "text": {
          "status": "generated",
          "div": "<div xmlns=\"http://www.w3.org/1999/xhtml\"><table class=\"hl7__ips\"><tr><td>Chronic sinusitis</td><td><span class=\"nb\">28-Aug-1972</span></td><td>active</td></tr></table></div>"
        },
        "onsetDateTime": "1972-08-28",
        "subject": {
          "reference": "urn:uuid:",
          "display": "Stephen Weinhage"
        },
        "asserter": {
          "reference": "urn:uuid:",
          "display": "Landarztpraxis Dudensen"
        }
      }
    },
    {
      "fullUrl": "urn:uuid:6553cab1-b8cc-4bc3-89af-249efe321835",
      "resource": {
        "resourceType": "Condition",
        "id": "6553cab1-b8cc-4bc3-89af-249efe321835",
        "meta": {
          "profile": [
            "http://hl7.org/fhir/uv/ips/StructureDefinition/Condition-uv-ips"
          ]
        },
        "category": [
          {
            "coding": [
              {
                "code": "problem-list-item",
                "system": "http://terminology.hl7.org/CodeSystem/condition-category",
                "display": "Problem List Item"
              }
            ]
          }
        ],
        "code": {
          "coding": [
            {
              "code": "307426000",
              "system": "http://snomed.info/sct",
              "display": "Acute infective cystitis (disorder)"
            }
          ],
          "text": "Acute infective cystitis"
        },
        "text": {
          "status": "generated",
          "div": "<div xmlns=\"http://www.w3.org/1999/xhtml\"><table class=\"hl7__ips\"><tr><td><span class=\"grayedout\">Acute infective cystitis</span></td><td><span class=\"nb\">25-Nov-2021 - 29-Nov-2021</span></td><td><span class=\"grayedout\">inactive</span></td></tr></table></div>"
        },
        "onsetDateTime": "2021-11-25",
        "abatementDateTime": "2021-11-29",
        "subject": {
          "reference": "urn:uuid:",
          "display": "Stephen Weinhage"
        },
        "asserter": {
          "reference": "urn:uuid:",
          "display": "Landarztpraxis Dudensen"
        }
      }
    },
    {
      "fullUrl": "urn:uuid:5f2ab57b-e621-4fac-bc20-ebf9856012c9",
      "resource": {
        "resourceType": "Condition",
        "id": "5f2ab57b-e621-4fac-bc20-ebf9856012c9",
        "meta": {
          "profile": [
            "http://hl7.org/fhir/uv/ips/StructureDefinition/Condition-uv-ips"
          ]
        },
        "category": [
          {
            "coding": [
              {
                "code": "problem-list-item",
                "system": "http://terminology.hl7.org/CodeSystem/condition-category",
                "display": "Problem List Item"
              }
            ]
          }
        ],
        "code": {
          "coding": [
            {
              "code": "43878008",
              "system": "http://snomed.info/sct",
              "display": "Streptococcal sore throat (disorder)"
            }
          ],
          "text": "Streptococcal sore throat"
        },
        "text": {
          "status": "generated",
          "div": "<div xmlns=\"http://www.w3.org/1999/xhtml\"><table class=\"hl7__ips\"><tr><td><span class=\"grayedout\">Streptococcal sore throat</span></td><td><span class=\"nb\">14-Mar-2020 - 24-Mar-2020</span></td><td><span class=\"grayedout\">inactive</span></td></tr></table></div>"
        },
        "onsetDateTime": "2020-03-14",
        "abatementDateTime": "2020-03-24",
        "subject": {
          "reference": "urn:uuid:",
          "display": "Stephen Weinhage"
        },
        "asserter": {
          "reference": "urn:uuid:",
          "display": "Landarztpraxis Dudensen"
        }
      }
    },
    {
      "fullUrl": "urn:uuid:c847315d-67d7-4856-a2a1-6e78cd2f6391",
      "resource": {
        "resourceType": "Condition",
        "id": "c847315d-67d7-4856-a2a1-6e78cd2f6391",
        "meta": {
          "profile": [
            "http://hl7.org/fhir/uv/ips/StructureDefinition/Condition-uv-ips"
          ]
        },
        "category": [
          {
            "coding": [
              {
                "code": "problem-list-item",
                "system": "http://terminology.hl7.org/CodeSystem/condition-category",
                "display": "Problem List Item"
              }
            ]
          }
        ],
        "code": {
          "coding": [
            {
              "code": "195662009",
              "system": "http://snomed.info/sct",
              "display": "Acute viral pharyngitis (disorder)"
            }
          ],
          "text": "Acute viral pharyngitis"
        },
        "text": {
          "status": "generated",
          "div": "<div xmlns=\"http://www.w3.org/1999/xhtml\"><table class=\"hl7__ips\"><tr><td><span class=\"grayedout\">Acute viral pharyngitis</span></td><td><span class=\"nb\">03-May-2019 - 17-May-2019</span></td><td><span class=\"grayedout\">inactive</span></td></tr></table></div>"
        },
        "onsetDateTime": "2019-05-03",
        "abatementDateTime": "2019-05-17",
        "subject": {
          "reference": "urn:uuid:",
          "display": "Stephen Weinhage"
        },
        "asserter": {
          "reference": "urn:uuid:",
          "display": "Landarztpraxis Dudensen"
        }
      }
    },
    {
      "fullUrl": "urn:uuid:aa55b7c5-cded-42f5-94a6-89745b822bb8",
      "resource": {
        "resourceType": "Condition",
        "id": "aa55b7c5-cded-42f5-94a6-89745b822bb8",
        "meta": {
          "profile": [
            "http://hl7.org/fhir/uv/ips/StructureDefinition/Condition-uv-ips"
          ]
        },
        "category": [
          {
            "coding": [
              {
                "code": "problem-list-item",
                "system": "http://terminology.hl7.org/CodeSystem/condition-category",
                "display": "Problem List Item"
              }
            ]
          }
        ],
        "code": {
          "coding": [
            {
              "code": "444814009",
              "system": "http://snomed.info/sct",
              "display": "Viral sinusitis (disorder)"
            }
          ],
          "text": "Viral sinusitis"
        },
        "text": {
          "status": "generated",
          "div": "<div xmlns=\"http://www.w3.org/1999/xhtml\"><table class=\"hl7__ips\"><tr><td><span class=\"grayedout\">Viral sinusitis</span></td><td><span class=\"nb\">12-Apr-2019 - 20-Apr-2019</span></td><td><span class=\"grayedout\">inactive</span></td></tr></table></div>"
        },
        "onsetDateTime": "2019-04-12",
        "abatementDateTime": "2019-04-20",
        "subject": {
          "reference": "urn:uuid:",
          "display": "Stephen Weinhage"
        },
        "asserter": {
          "reference": "urn:uuid:",
          "display": "Landarztpraxis Dudensen"
        }
      }
    },
    {
      "fullUrl": "urn:uuid:6016666b-f48c-498d-a8a3-7ef6992d402a",
      "resource": {
        "resourceType": "Medication",
        "id": "6016666b-f48c-498d-a8a3-7ef6992d402a",
        "meta": {
          "profile": [
            "http://hl7.eu/fhir/eps/StructureDefinition/Medication-eu-eps"
          ]
        },
        "code": {
          "coding": [
            {
              "code": "319996000",
              "system": "http://snomed.info/sct",
              "display": "Simvastatin 10 mg oral tablet"
            }
          ],
          "text": "Simvastatin 10 mg oral tablet"
        },
        "text": {
          "status": "generated",
          "div": "<div xmlns=\"http://www.w3.org/1999/xhtml\">Simvastatin 10 mg oral tablet</div>"
        }
      }
    },
    {
      "fullUrl": "urn:uuid:2d60a425-582f-4250-b267-8a666fe4a770",
      "resource": {
        "resourceType": "MedicationStatement",
        "id": "2d60a425-582f-4250-b267-8a666fe4a770",
        "meta": {
          "profile": [
            "http://hl7.eu/fhir/eps/StructureDefinition/MedicationStatement-eu-eps"
          ]
        },
        "effectivePeriod": {
          "start": "2025-06-04"
        },
        "dosage": [
          {
            "doseAndRate": [
              {
                "doseQuantity": {
                  "value": 1,
                  "unit": "{tbl}",
                  "code": "{tbl}"
                }
              }
            ],
            "timing": {
              "repeat": {
                "frequency": 1,
                "period": 1,
                "periodUnit": "d"
              }
            },
            "text": "1 tablet (10 mg) by mouth once daily",
            "asNeededBoolean": false
          }
        ],
        "reasonCode": [
          {
            "coding": [
              {
                "code": "55822004",
                "system": "http://snomed.info/sct",
                "display": "Hyperlipidemia"
              }
            ]
          }
        ],
        "text": {
          "status": "generated",
          "div": "<div xmlns=\"http://www.w3.org/1999/xhtml\"><table class=\"hl7__ips first25\"><tr><th>Medication</th><th>Since</th><th>Form</th><th>Dosage</th><th>Reason</th></tr><tr><td>Simvastatin 10 mg oral tablet</td><td><span class=\"nb\">2025-06-04</span></td><td>-</td><td>1 tablet (10 mg) by mouth once daily</td><td>Hyperlipidemia</td></tr></table></div>"
        },
        "status": "active",
        "medicationReference": {
          "reference": "urn:uuid:6016666b-f48c-498d-a8a3-7ef6992d402a",
          "display": "Simvastatin 10 mg oral tablet"
        },
        "subject": {
          "reference": "urn:uuid:c32f74ec-f559-4c50-be37-3c8de05bb2ce",
          "display": "Stephen Weinhage"
        }
      }
    },
    {
      "fullUrl": "urn:uuid:0da3ee88-cf5c-4828-9714-1023b9f948d6",
      "resource": {
        "resourceType": "Medication",
        "id": "0da3ee88-cf5c-4828-9714-1023b9f948d6",
        "meta": {
          "profile": [
            "http://hl7.eu/fhir/eps/StructureDefinition/Medication-eu-eps"
          ]
        },
        "code": {
          "coding": [
            {
              "code": "1153431000",
              "system": "http://snomed.info/sct",
              "display": "Amlodipine (as amlodipine besylate) 2.5 mg oral tablet"
            }
          ],
          "text": "Amlodipine (as amlodipine besylate) 2.5 mg oral tablet"
        },
        "text": {
          "status": "generated",
          "div": "<div xmlns=\"http://www.w3.org/1999/xhtml\">Amlodipine (as amlodipine besylate) 2.5 mg oral tablet</div>"
        }
      }
    },
    {
      "fullUrl": "urn:uuid:499d886e-0b55-408a-9de3-2cff56dc3f66",
      "resource": {
        "resourceType": "MedicationStatement",
        "id": "499d886e-0b55-408a-9de3-2cff56dc3f66",
        "meta": {
          "profile": [
            "http://hl7.eu/fhir/eps/StructureDefinition/MedicationStatement-eu-eps"
          ]
        },
        "effectivePeriod": {
          "start": "2025-05-26"
        },
        "dosage": [
          {
            "doseAndRate": [
              {
                "doseQuantity": {
                  "value": 1,
                  "unit": "{tbl}",
                  "code": "{tbl}"
                }
              }
            ],
            "timing": {
              "repeat": {
                "frequency": 1,
                "period": 1,
                "periodUnit": "d"
              }
            },
            "text": "1 tablet (2.5 mg) by mouth once daily",
            "asNeededBoolean": false
          }
        ],
        "reasonCode": [
          {
            "coding": [
              {
                "code": "59621000",
                "system": "http://snomed.info/sct",
                "display": "Essential hypertension (disorder)"
              }
            ]
          }
        ],
        "text": {
          "status": "generated",
          "div": "<div xmlns=\"http://www.w3.org/1999/xhtml\"><table class=\"hl7__ips first25\"><tr><th>Medication</th><th>Since</th><th>Form</th><th>Dosage</th><th>Reason</th></tr><tr><td>Amlodipine (as amlodipine besylate) 2.5 mg oral tablet</td><td><span class=\"nb\">2025-05-26</span></td><td>-</td><td>1 tablet (2.5 mg) by mouth once daily</td><td>Essential hypertension (disorder)</td></tr></table></div>"
        },
        "status": "active",
        "medicationReference": {
          "reference": "urn:uuid:0da3ee88-cf5c-4828-9714-1023b9f948d6",
          "display": "Amlodipine (as amlodipine besylate) 2.5 mg oral tablet"
        },
        "subject": {
          "reference": "urn:uuid:c32f74ec-f559-4c50-be37-3c8de05bb2ce",
          "display": "Stephen Weinhage"
        }
      }
    },
    {
      "fullUrl": "urn:uuid:4245f911-326e-4b18-903a-6df2d33231fa",
      "resource": {
        "resourceType": "Medication",
        "id": "4245f911-326e-4b18-903a-6df2d33231fa",
        "meta": {
          "profile": [
            "http://hl7.eu/fhir/eps/StructureDefinition/Medication-eu-eps"
          ]
        },
        "code": {
          "coding": [
            {
              "code": "783586007",
              "system": "http://snomed.info/sct",
              "display": "Clopidogrel (as clopidogrel bisulfate) 75 mg oral tablet"
            }
          ],
          "text": "Clopidogrel (as clopidogrel bisulfate) 75 mg oral tablet"
        },
        "text": {
          "status": "generated",
          "div": "<div xmlns=\"http://www.w3.org/1999/xhtml\">Clopidogrel (as clopidogrel bisulfate) 75 mg oral tablet</div>"
        }
      }
    },
    {
      "fullUrl": "urn:uuid:3d0ab46e-3946-4de1-928b-d0f8b05d3b79",
      "resource": {
        "resourceType": "MedicationStatement",
        "id": "3d0ab46e-3946-4de1-928b-d0f8b05d3b79",
        "meta": {
          "profile": [
            "http://hl7.eu/fhir/eps/StructureDefinition/MedicationStatement-eu-eps"
          ]
        },
        "effectivePeriod": {
          "start": "2014-03-31"
        },
        "dosage": [
          {
            "doseAndRate": [
              {
                "doseQuantity": {
                  "value": 1,
                  "unit": "{tbl}",
                  "code": "{tbl}"
                }
              }
            ],
            "timing": {
              "repeat": {
                "frequency": 1,
                "period": 1,
                "periodUnit": "d"
              }
            },
            "text": "1 tablet (75 mg) once daily",
            "asNeededBoolean": false
          }
        ],
        "text": {
          "status": "generated",
          "div": "<div xmlns=\"http://www.w3.org/1999/xhtml\"><table class=\"hl7__ips first25\"><tr><th>Medication</th><th>Since</th><th>Form</th><th>Dosage</th><th>Reason</th></tr><tr><td>Clopidogrel (as clopidogrel bisulfate) 75 mg oral tablet</td><td><span class=\"nb\">2014-03-31</span></td><td>-</td><td>1 tablet (75 mg) once daily</td><td>-</td></tr></table></div>"
        },
        "status": "active",
        "medicationReference": {
          "reference": "urn:uuid:4245f911-326e-4b18-903a-6df2d33231fa",
          "display": "Clopidogrel (as clopidogrel bisulfate) 75 mg oral tablet"
        },
        "subject": {
          "reference": "urn:uuid:c32f74ec-f559-4c50-be37-3c8de05bb2ce",
          "display": "Stephen Weinhage"
        }
      }
    },
    {
      "fullUrl": "urn:uuid:961494cf-35a8-49ba-9af7-bd0ce608a701",
      "resource": {
        "resourceType": "Medication",
        "id": "961494cf-35a8-49ba-9af7-bd0ce608a701",
        "meta": {
          "profile": [
            "http://hl7.eu/fhir/eps/StructureDefinition/Medication-eu-eps"
          ]
        },
        "code": {
          "coding": [
            {
              "code": "319997009",
              "system": "http://snomed.info/sct",
              "display": "Simvastatin 20 mg oral tablet"
            }
          ],
          "text": "Simvastatin 20 mg oral tablet"
        },
        "text": {
          "status": "generated",
          "div": "<div xmlns=\"http://www.w3.org/1999/xhtml\">Simvastatin 20 mg oral tablet</div>"
        }
      }
    },
    {
      "fullUrl": "urn:uuid:b3015365-3bdf-40f2-9917-237481763cdc",
      "resource": {
        "resourceType": "MedicationStatement",
        "id": "b3015365-3bdf-40f2-9917-237481763cdc",
        "meta": {
          "profile": [
            "http://hl7.eu/fhir/eps/StructureDefinition/MedicationStatement-eu-eps"
          ]
        },
        "effectivePeriod": {
          "start": "2014-03-31"
        },
        "dosage": [
          {
            "doseAndRate": [
              {
                "doseQuantity": {
                  "value": 1,
                  "unit": "{tbl}",
                  "code": "{tbl}"
                }
              }
            ],
            "timing": {
              "repeat": {
                "frequency": 1,
                "period": 1,
                "periodUnit": "d"
              }
            },
            "text": "1 tablet (20 mg) by mouth once daily",
            "asNeededBoolean": false
          }
        ],
        "text": {
          "status": "generated",
          "div": "<div xmlns=\"http://www.w3.org/1999/xhtml\"><table class=\"hl7__ips first25\"><tr><th>Medication</th><th>Since</th><th>Form</th><th>Dosage</th><th>Reason</th></tr><tr><td>Simvastatin 20 mg oral tablet</td><td><span class=\"nb\">2014-03-31</span></td><td>-</td><td>1 tablet (20 mg) by mouth once daily</td><td>-</td></tr></table></div>"
        },
        "status": "active",
        "medicationReference": {
          "reference": "urn:uuid:961494cf-35a8-49ba-9af7-bd0ce608a701",
          "display": "Simvastatin 20 mg oral tablet"
        },
        "subject": {
          "reference": "urn:uuid:c32f74ec-f559-4c50-be37-3c8de05bb2ce",
          "display": "Stephen Weinhage"
        }
      }
    },
    {
      "fullUrl": "urn:uuid:20642873-d305-493b-8b66-e842fe418196",
      "resource": {
        "resourceType": "Medication",
        "id": "20642873-d305-493b-8b66-e842fe418196",
        "meta": {
          "profile": [
            "http://hl7.eu/fhir/eps/StructureDefinition/Medication-eu-eps"
          ]
        },
        "code": {
          "coding": [
            {
              "code": "425176000",
              "system": "http://snomed.info/sct",
              "display": "Nitroglycerin 400 microgram/actuation sublingual spray"
            }
          ],
          "text": "Nitroglycerin 400 microgram/actuation sublingual spray"
        },
        "text": {
          "status": "generated",
          "div": "<div xmlns=\"http://www.w3.org/1999/xhtml\">Nitroglycerin 400 microgram/actuation sublingual spray</div>"
        }
      }
    },
    {
      "fullUrl": "urn:uuid:45c911a7-6963-46a3-a66b-1906c314eacc",
      "resource": {
        "resourceType": "MedicationStatement",
        "id": "45c911a7-6963-46a3-a66b-1906c314eacc",
        "meta": {
          "profile": [
            "http://hl7.eu/fhir/eps/StructureDefinition/MedicationStatement-eu-eps"
          ]
        },
        "effectivePeriod": {
          "start": "2014-03-31"
        },
        "dosage": [
          {
            "doseAndRate": [
              {
                "doseQuantity": {
                  "value": 400,
                  "unit": "microgram",
                  "code": "ug"
                }
              }
            ],
            "timing": {
              "repeat": {
                "frequency": 1,
                "period": 5,
                "periodUnit": "min"
              }
            },
            "text": "400 micrograms per spray, 1 spray under the tongue as needed for chest pain, may repeat every 5 minutes as needed, up to 3 sprays in 15 minutes",
            "asNeededBoolean": true
          }
        ],
        "text": {
          "status": "generated",
          "div": "<div xmlns=\"http://www.w3.org/1999/xhtml\"><table class=\"hl7__ips first25\"><tr><th>Medication</th><th>Since</th><th>Form</th><th>Dosage</th><th>Reason</th></tr><tr><td>Nitroglycerin 400 microgram/actuation sublingual spray</td><td><span class=\"nb\">2014-03-31</span></td><td>-</td><td>400 micrograms per spray, 1 spray under the tongue as needed for chest pain, may repeat every 5 minutes as needed, up to 3 sprays in 15 minutes</td><td>-</td></tr></table></div>"
        },
        "status": "active",
        "medicationReference": {
          "reference": "urn:uuid:20642873-d305-493b-8b66-e842fe418196",
          "display": "Nitroglycerin 400 microgram/actuation sublingual spray"
        },
        "subject": {
          "reference": "urn:uuid:c32f74ec-f559-4c50-be37-3c8de05bb2ce",
          "display": "Stephen Weinhage"
        }
      }
    },
    {
      "fullUrl": "urn:uuid:07181df6-8eb5-4209-8972-190cd9327650",
      "resource": {
        "resourceType": "Medication",
        "id": "07181df6-8eb5-4209-8972-190cd9327650",
        "meta": {
          "profile": [
            "http://hl7.eu/fhir/eps/StructureDefinition/Medication-eu-eps"
          ]
        },
        "code": {
          "coding": [
            {
              "code": "879980009",
              "system": "http://snomed.info/sct",
              "display": "Metoprolol tartrate (as metoprolol succinate) 100 mg prolonged-release oral tablet"
            }
          ],
          "text": "Metoprolol tartrate (as metoprolol succinate) 100 mg prolonged-release oral tablet"
        },
        "text": {
          "status": "generated",
          "div": "<div xmlns=\"http://www.w3.org/1999/xhtml\">Metoprolol tartrate (as metoprolol succinate) 100 mg prolonged-release oral tablet</div>"
        }
      }
    },
    {
      "fullUrl": "urn:uuid:c67d3e71-2b3c-4cef-a4a4-3c07af0fff35",
      "resource": {
        "resourceType": "MedicationStatement",
        "id": "c67d3e71-2b3c-4cef-a4a4-3c07af0fff35",
        "meta": {
          "profile": [
            "http://hl7.eu/fhir/eps/StructureDefinition/MedicationStatement-eu-eps"
          ]
        },
        "effectivePeriod": {
          "start": "2014-03-31"
        },
        "dosage": [
          {
            "doseAndRate": [
              {
                "doseQuantity": {
                  "value": 1,
                  "unit": "{tbl}",
                  "code": "{tbl}"
                }
              }
            ],
            "timing": {
              "repeat": {
                "frequency": 1,
                "period": 1,
                "periodUnit": "d"
              }
            },
            "text": "1 tablet (100 mg) once daily",
            "asNeededBoolean": false
          }
        ],
        "text": {
          "status": "generated",
          "div": "<div xmlns=\"http://www.w3.org/1999/xhtml\"><table class=\"hl7__ips first25\"><tr><th>Medication</th><th>Since</th><th>Form</th><th>Dosage</th><th>Reason</th></tr><tr><td>Metoprolol tartrate (as metoprolol succinate) 100 mg prolonged-release oral tablet</td><td><span class=\"nb\">2014-03-31</span></td><td>-</td><td>1 tablet (100 mg) once daily</td><td>-</td></tr></table></div>"
        },
        "status": "active",
        "medicationReference": {
          "reference": "urn:uuid:07181df6-8eb5-4209-8972-190cd9327650",
          "display": "Metoprolol tartrate (as metoprolol succinate) 100 mg prolonged-release oral tablet"
        },
        "subject": {
          "reference": "urn:uuid:c32f74ec-f559-4c50-be37-3c8de05bb2ce",
          "display": "Stephen Weinhage"
        }
      }
    },
    {
      "fullUrl": "urn:uuid:421e091e-970a-4c20-a0c4-dfabf01a90b4",
      "resource": {
        "resourceType": "Immunization",
        "id": "421e091e-970a-4c20-a0c4-dfabf01a90b4",
        "meta": {
          "profile": [
            "http://hl7.org/fhir/uv/ips/StructureDefinition/Immunization-uv-ips"
          ]
        },
        "vaccineCode": {
          "coding": [
            {
              "code": "1181000221105",
              "system": "http://snomed.info/sct",
              "display": "Vaccine product containing Influenza virus antigen"
            },
            {
              "code": "J07BB02",
              "system": "http://www.whocc.no/atc",
              "display": "Influenza, inactivated, split virus"
            }
          ],
          "text": "Influenza virus antigen only vaccine product"
        },
        "site": {
          "coding": [
            {
              "code": "244979005",
              "system": "http://snomed.info/sct",
              "display": "Entire muscle of upper arm"
            }
          ],
          "text": "Entire muscle of upper arm"
        },
        "route": {
          "coding": [
            {
              "code": "78421000",
              "system": "http://snomed.info/sct",
              "display": "Intramuscular route"
            }
          ],
          "text": "Intramuscular route"
        },
        "text": {
          "status": "generated",
          "div": "<div xmlns=\"http://www.w3.org/1999/xhtml\"><table class=\"hl7__ips\"><tr><td>Influenza virus antigen only vaccine product</td><td><span class=\"nb\">26-May-2025</span></td></tr></table></div>"
        },
        "status": "completed",
        "patient": {
          "reference": "urn:uuid:c32f74ec-f559-4c50-be37-3c8de05bb2ce",
          "display": "Stephen Weinhage"
        },
        "occurrenceDateTime": "2025-05-26",
        "lotNumber": "ZP-4XhOD",
        "expirationDate": "2025-08-03"
      }
    },
    {
      "fullUrl": "urn:uuid:7ab06bb5-5bff-4361-936e-0a2de3427d3b",
      "resource": {
        "resourceType": "Immunization",
        "id": "7ab06bb5-5bff-4361-936e-0a2de3427d3b",
        "meta": {
          "profile": [
            "http://hl7.org/fhir/uv/ips/StructureDefinition/Immunization-uv-ips"
          ]
        },
        "vaccineCode": {
          "coding": [
            {
              "code": "1119349007",
              "system": "http://snomed.info/sct",
              "display": "Vaccine product containing SARS-CoV-2 mRNA"
            },
            {
              "code": "J07BX03",
              "system": "http://www.whocc.no/atc",
              "display": "COVID-19 mRNA vaccines"
            }
          ],
          "text": "SARS-CoV-2 mRNA vaccine"
        },
        "site": {
          "coding": [
            {
              "code": "244979005",
              "system": "http://snomed.info/sct",
              "display": "Entire muscle of upper arm"
            }
          ],
          "text": "Entire muscle of upper arm"
        },
        "route": {
          "coding": [
            {
              "code": "78421000",
              "system": "http://snomed.info/sct",
              "display": "Intramuscular route"
            }
          ],
          "text": "Intramuscular route"
        },
        "text": {
          "status": "generated",
          "div": "<div xmlns=\"http://www.w3.org/1999/xhtml\"><table class=\"hl7__ips\"><tr><td>SARS-CoV-2 mRNA vaccine</td><td><span class=\"nb\">22-Feb-2021</span></td></tr></table></div>"
        },
        "status": "completed",
        "patient": {
          "reference": "urn:uuid:c32f74ec-f559-4c50-be37-3c8de05bb2ce",
          "display": "Stephen Weinhage"
        },
        "occurrenceDateTime": "2021-02-22",
        "lotNumber": "PC-WAlh",
        "expirationDate": "2021-05-30"
      }
    },
    {
      "fullUrl": "urn:uuid:2dfb5665-d205-4a2c-a7ad-cc34c13ef456",
      "resource": {
        "resourceType": "Immunization",
        "id": "2dfb5665-d205-4a2c-a7ad-cc34c13ef456",
        "meta": {
          "profile": [
            "http://hl7.org/fhir/uv/ips/StructureDefinition/Immunization-uv-ips"
          ]
        },
        "vaccineCode": {
          "coding": [
            {
              "code": "777725002",
              "system": "http://snomed.info/sct",
              "display": "Vaccine product containing only Clostridium tetani toxoid antigen adsorbed"
            },
            {
              "code": "J07AM51",
              "system": "http://www.whocc.no/atc",
              "display": "Diphtheria-tetanus vaccines, adult type"
            }
          ],
          "text": "Clostridium tetani toxoid antigen adsorbed only vaccine product"
        },
        "site": {
          "coding": [
            {
              "code": "244979005",
              "system": "http://snomed.info/sct",
              "display": "Entire muscle of upper arm"
            }
          ],
          "text": "Entire muscle of upper arm"
        },
        "route": {
          "coding": [
            {
              "code": "78421000",
              "system": "http://snomed.info/sct",
              "display": "Intramuscular route"
            }
          ],
          "text": "Intramuscular route"
        },
        "text": {
          "status": "generated",
          "div": "<div xmlns=\"http://www.w3.org/1999/xhtml\"><table class=\"hl7__ips\"><tr><td>Clostridium tetani toxoid antigen adsorbed only vaccine product</td><td><span class=\"nb\">27-Apr-2020</span></td></tr></table></div>"
        },
        "status": "completed",
        "patient": {
          "reference": "urn:uuid:c32f74ec-f559-4c50-be37-3c8de05bb2ce",
          "display": "Stephen Weinhage"
        },
        "occurrenceDateTime": "2020-04-27",
        "lotNumber": "FP-EcisfIZ",
        "expirationDate": "2021-03-21"
      }
    },
    {
      "fullUrl": "urn:uuid:b3578862-5402-4ff2-8472-002903cac6da",
      "resource": {
        "resourceType": "Procedure",
        "id": "b3578862-5402-4ff2-8472-002903cac6da",
        "meta": {
          "profile": [
            "http://hl7.org/fhir/uv/ips/StructureDefinition/Procedure-uv-ips"
          ]
        },
        "code": {
          "coding": [
            {
              "code": "58000006",
              "system": "http://snomed.info/sct",
              "display": "Patient discharge (procedure)"
            }
          ],
          "text": "Patient discharge"
        },
        "text": {
          "status": "generated",
          "div": "<div xmlns=\"http://www.w3.org/1999/xhtml\"><table class=\"hl7__ips\"><tr><td>Patient discharge</td><td><span class=\"nb\">02-Jan-2024</span></td><td>-</td></tr></table></div>"
        },
        "status": "completed",
        "performedDateTime": "2024-01-02",
        "subject": {
          "reference": "urn:uuid:",
          "display": "Stephen Weinhage"
        }
      }
    },
    {
      "fullUrl": "urn:uuid:4d8bcfb5-0b45-468d-8102-ea80d87ad902",
      "resource": {
        "resourceType": "Procedure",
        "id": "4d8bcfb5-0b45-468d-8102-ea80d87ad902",
        "meta": {
          "profile": [
            "http://hl7.org/fhir/uv/ips/StructureDefinition/Procedure-uv-ips"
          ]
        },
        "code": {
          "coding": [
            {
              "code": "185087000",
              "system": "http://snomed.info/sct",
              "display": "Notifications (procedure)"
            }
          ],
          "text": "Notifications"
        },
        "text": {
          "status": "generated",
          "div": "<div xmlns=\"http://www.w3.org/1999/xhtml\"><table class=\"hl7__ips\"><tr><td>Notifications</td><td><span class=\"nb\">01-Jan-2024</span></td><td>-</td></tr></table></div>"
        },
        "status": "completed",
        "performedDateTime": "2024-01-01",
        "subject": {
          "reference": "urn:uuid:",
          "display": "Stephen Weinhage"
        }
      }
    },
    {
      "fullUrl": "urn:uuid:094e7515-044e-499d-ac38-fe56919544f9",
      "resource": {
        "resourceType": "Procedure",
        "id": "094e7515-044e-499d-ac38-fe56919544f9",
        "meta": {
          "profile": [
            "http://hl7.org/fhir/uv/ips/StructureDefinition/Procedure-uv-ips"
          ]
        },
        "code": {
          "coding": [
            {
              "code": "310417005",
              "system": "http://snomed.info/sct",
              "display": "Certification procedure (procedure)"
            }
          ],
          "text": "Certification procedure"
        },
        "text": {
          "status": "generated",
          "div": "<div xmlns=\"http://www.w3.org/1999/xhtml\"><table class=\"hl7__ips\"><tr><td>Certification procedure</td><td><span class=\"nb\">01-Jan-2024</span></td><td>-</td></tr></table></div>"
        },
        "status": "completed",
        "performedDateTime": "2024-01-01",
        "subject": {
          "reference": "urn:uuid:",
          "display": "Stephen Weinhage"
        }
      }
    },
    {
      "fullUrl": "urn:uuid:8d6fd57f-ee83-49fb-95ee-d617a74c3c33",
      "resource": {
        "resourceType": "Procedure",
        "id": "8d6fd57f-ee83-49fb-95ee-d617a74c3c33",
        "meta": {
          "profile": [
            "http://hl7.org/fhir/uv/ips/StructureDefinition/Procedure-uv-ips"
          ]
        },
        "code": {
          "coding": [
            {
              "code": "315639002",
              "system": "http://snomed.info/sct",
              "display": "Initial patient assessment (procedure)"
            }
          ],
          "text": "Initial patient assessment"
        },
        "text": {
          "status": "generated",
          "div": "<div xmlns=\"http://www.w3.org/1999/xhtml\"><table class=\"hl7__ips\"><tr><td>Initial patient assessment</td><td><span class=\"nb\">01-Jan-2024</span></td><td>-</td></tr></table></div>"
        },
        "status": "completed",
        "performedDateTime": "2024-01-01",
        "subject": {
          "reference": "urn:uuid:",
          "display": "Stephen Weinhage"
        }
      }
    },
    {
      "fullUrl": "urn:uuid:91a7f3e5-8e63-4038-aeff-9007c5512bc3",
      "resource": {
        "resourceType": "Procedure",
        "id": "91a7f3e5-8e63-4038-aeff-9007c5512bc3",
        "meta": {
          "profile": [
            "http://hl7.org/fhir/uv/ips/StructureDefinition/Procedure-uv-ips"
          ]
        },
        "code": {
          "coding": [
            {
              "code": "370789001",
              "system": "http://snomed.info/sct",
              "display": "Development of individualized plan of care (procedure)"
            }
          ],
          "text": "Development of individualized plan of care"
        },
        "text": {
          "status": "generated",
          "div": "<div xmlns=\"http://www.w3.org/1999/xhtml\"><table class=\"hl7__ips\"><tr><td>Development of individualized plan of care</td><td><span class=\"nb\">01-Jan-2024</span></td><td>-</td></tr></table></div>"
        },
        "status": "completed",
        "performedDateTime": "2024-01-01",
        "subject": {
          "reference": "urn:uuid:",
          "display": "Stephen Weinhage"
        }
      }
    },
    {
      "fullUrl": "urn:uuid:43095c18-6f40-4f44-88ab-c5fd009a64f8",
      "resource": {
        "resourceType": "Procedure",
        "id": "43095c18-6f40-4f44-88ab-c5fd009a64f8",
        "meta": {
          "profile": [
            "http://hl7.org/fhir/uv/ips/StructureDefinition/Procedure-uv-ips"
          ]
        },
        "code": {
          "coding": [
            {
              "code": "385763009",
              "system": "http://snomed.info/sct",
              "display": "Hospice care (regime/therapy)"
            }
          ],
          "text": "Hospice care"
        },
        "text": {
          "status": "generated",
          "div": "<div xmlns=\"http://www.w3.org/1999/xhtml\"><table class=\"hl7__ips\"><tr><td>Hospice care</td><td><span class=\"nb\">01-Jan-2024</span></td><td>-</td></tr></table></div>"
        },
        "status": "completed",
        "performedDateTime": "2024-01-01",
        "subject": {
          "reference": "urn:uuid:",
          "display": "Stephen Weinhage"
        }
      }
    },
    {
      "fullUrl": "urn:uuid:1467b0a5-1c81-4bc0-ac6a-7696035e6258",
      "resource": {
        "resourceType": "AllergyIntolerance",
        "id": "1467b0a5-1c81-4bc0-ac6a-7696035e6258",
        "meta": {
          "profile": [
            "http://hl7.eu/fhir/eps/StructureDefinition/allergyIntolerance-eu-eps"
          ]
        },
        "code": {
          "coding": [
            {
              "code": "419199007",
              "system": "http://snomed.info/sct",
              "display": "Allergy to substance (finding)"
            }
          ],
          "text": "Allergy to substance"
        },
        "clinicalStatus": {
          "coding": [
            {
              "code": "active",
              "system": "http://terminology.hl7.org/CodeSystem/allergyintolerance-clinical"
            }
          ]
        },
        "category": [
          "environment"
        ],
        "text": {
          "status": "generated",
          "div": "<div xmlns=\"http://www.w3.org/1999/xhtml\"><table class=\"hl7__ips\"><tr><th>Allergy/Intolerance</th><th>Onset Date</th><th>Status</th><th>Type</th><th>Reaction</th></tr><tr><td>Allergy to substance</td><td><span class=\"nb\">1949-11-19</span></td><td>active</td><td>environment</td><td></td></tr></table></div>"
        },
        "onsetDateTime": "1949-11-19",
        "verificationStatus": {
          "coding": [
            {
              "code": "confirmed",
              "system": "http://terminology.hl7.org/CodeSystem/allergyintolerance-verification"
            }
          ]
        },
        "type": "allergy",
        "patient": {
          "reference": "urn:uuid:c32f74ec-f559-4c50-be37-3c8de05bb2ce",
          "display": "Stephen Weinhage"
        }
      }
    },
    {
      "fullUrl": "urn:uuid:fb56e0ae-e34f-4206-afa8-b6b2d6b02fc5",
      "resource": {
        "resourceType": "AllergyIntolerance",
        "id": "fb56e0ae-e34f-4206-afa8-b6b2d6b02fc5",
        "meta": {
          "profile": [
            "http://hl7.eu/fhir/eps/StructureDefinition/allergyIntolerance-eu-eps"
          ]
        },
        "code": {
          "coding": [
            {
              "code": "762952008",
              "system": "http://snomed.info/sct",
              "display": "Peanut (substance)"
            }
          ],
          "text": "Peanut"
        },
        "clinicalStatus": {
          "coding": [
            {
              "code": "active",
              "system": "http://terminology.hl7.org/CodeSystem/allergyintolerance-clinical"
            }
          ]
        },
        "category": [
          "food"
        ],
        "reaction": [
          {
            "manifestation": [
              {
                "coding": [
                  {
                    "code": "247472004",
                    "system": "http://snomed.info/sct",
                    "display": "Wheal (finding)"
                  }
                ]
              }
            ],
            "severity": "moderate"
          },
          {
            "manifestation": [
              {
                "coding": [
                  {
                    "code": "300359004",
                    "system": "http://snomed.info/sct",
                    "display": "Finding of vomiting (finding)"
                  }
                ]
              }
            ],
            "severity": "mild"
          }
        ],
        "text": {
          "status": "generated",
          "div": "<div xmlns=\"http://www.w3.org/1999/xhtml\"><table class=\"hl7__ips\"><tr><th>Allergy/Intolerance</th><th>Onset Date</th><th>Status</th><th>Type</th><th>Reaction</th></tr><tr><td>Peanut</td><td><span class=\"nb\">1949-11-19</span></td><td>active</td><td>food</td><td>Wheal (finding)<br></br>Finding of vomiting (finding)</td></tr></table></div>"
        },
        "onsetDateTime": "1949-11-19",
        "verificationStatus": {
          "coding": [
            {
              "code": "confirmed",
              "system": "http://terminology.hl7.org/CodeSystem/allergyintolerance-verification"
            }
          ]
        },
        "type": "allergy",
        "patient": {
          "reference": "urn:uuid:c32f74ec-f559-4c50-be37-3c8de05bb2ce",
          "display": "Stephen Weinhage"
        }
      }
    },
    {
      "fullUrl": "urn:uuid:4a53728d-fc80-4357-92b9-1ae309c213ac",
      "resource": {
        "resourceType": "CarePlan",
        "id": "4a53728d-fc80-4357-92b9-1ae309c213ac",
        "category": [
          {
            "coding": [
              {
                "code": "assess-plan",
                "system": "http://terminology.hl7.org/CodeSystem/care-plan-category",
                "display": "Assessment and Plan"
              }
            ]
          }
        ],
        "activity": [
          {
            "detail": {
              "code": {
                "coding": [
                  {
                    "code": "736285004",
                    "system": "http://snomed.info/sct",
                    "display": "Hyperlipidemia clinical management plan (record artifact)"
                  }
                ]
              },
              "reasonCode": [
                {
                  "coding": [
                    {
                      "code": "55822004",
                      "system": "http://snomed.info/sct",
                      "display": "Hyperlipidemia"
                    }
                  ]
                }
              ],
              "status": "unknown",
              "description": "Hyperlipidemia clinical management plan",
              "kind": "Appointment"
            }
          }
        ],
        "period": {
          "start": "2023-06-05"
        },
        "goal": [
          {
            "reference": "urn:uuid:69069a80-95f5-40fa-856e-14d027d235d6"
          },
          {
            "reference": "urn:uuid:b6b23ce8-69c2-472e-ad51-60b008fc8728"
          },
          {
            "reference": "urn:uuid:0e046ec5-d70d-489a-ad17-09136a0ca451"
          },
          {
            "reference": "urn:uuid:fd922ba2-3926-40f1-8b92-3b77a7216035"
          }
        ],
        "text": {
          "status": "generated",
          "div": "<div xmlns=\"http://www.w3.org/1999/xhtml\"><table class=\"hl7__ips first25\"><tr><th>Active Planned Care / Goals</th><th>Start Date</th><th>Reason</th></tr><tr><td>Hyperlipidemia clinical management plan</td><td><span class=\"nb\">05-Jun-2023</span></td><td>Hyperlipidemia</td></tr><tr><td><ul><li>Achieve LDL cholesterol below 1.8 mmol/L to reduce cardiovascular risk.</li><li>Achieve total cholesterol below 4.0 mmol/L.</li><li>Achieve triglycerides below 1.7 mmol/L.</li><li>Maintain HDL cholesterol above 1.0 mmol/L.</li></ul></td><td></td><td></td></tr></table></div>"
        },
        "status": "active",
        "intent": "plan",
        "subject": {
          "reference": "urn:uuid:c32f74ec-f559-4c50-be37-3c8de05bb2ce",
          "display": "Stephen Weinhage"
        }
      }
    },
    {
      "fullUrl": "urn:uuid:4a9b89c3-18a5-4ad6-9f6d-39c168051d61",
      "resource": {
        "resourceType": "CarePlan",
        "id": "4a9b89c3-18a5-4ad6-9f6d-39c168051d61",
        "category": [
          {
            "coding": [
              {
                "code": "assess-plan",
                "system": "http://terminology.hl7.org/CodeSystem/care-plan-category",
                "display": "Assessment and Plan"
              }
            ]
          }
        ],
        "activity": [
          {
            "detail": {
              "code": {
                "coding": [
                  {
                    "code": "443402002",
                    "system": "http://snomed.info/sct",
                    "display": "Lifestyle education regarding hypertension (procedure)"
                  }
                ]
              },
              "reasonCode": [
                {
                  "coding": [
                    {
                      "code": "59621000",
                      "system": "http://snomed.info/sct",
                      "display": "Essential hypertension (disorder)"
                    }
                  ]
                }
              ],
              "status": "unknown",
              "description": "Lifestyle education regarding hypertension",
              "kind": "Appointment"
            }
          }
        ],
        "period": {
          "start": "1998-12-28"
        },
        "goal": [
          {
            "reference": "urn:uuid:1d1cdefe-26d7-4560-983e-5142137c6bba"
          },
          {
            "reference": "urn:uuid:6f038507-adc1-4eaf-a378-6b7ac6c235de"
          },
          {
            "reference": "urn:uuid:6c709565-8458-46cd-b9b3-f485e2cf9e06"
          },
          {
            "reference": "urn:uuid:fafb1d21-9368-4762-9c70-ba36502283f1"
          }
        ],
        "text": {
          "status": "generated",
          "div": "<div xmlns=\"http://www.w3.org/1999/xhtml\"><table class=\"hl7__ips first25\"><tr><th>Active Planned Care / Goals</th><th>Start Date</th><th>Reason</th></tr><tr><td>Lifestyle education regarding hypertension</td><td><span class=\"nb\">28-Dec-1998</span></td><td>Essential hypertension (disorder)</td></tr><tr><td><ul><li>Maintain blood pressure below 130/80 mmHg through lifestyle modifications.</li><li>Limit daily sodium intake to less than 2.3 grams to support blood pressure control.</li><li>Engage in at least 150 minutes of moderate-intensity aerobic physical activity per week.</li><li>Achieve at least 5% reduction in body weight if overweight or obese.</li></ul></td><td></td><td></td></tr></table></div>"
        },
        "status": "active",
        "intent": "plan",
        "subject": {
          "reference": "urn:uuid:c32f74ec-f559-4c50-be37-3c8de05bb2ce",
          "display": "Stephen Weinhage"
        }
      }
    },
    {
      "fullUrl": "urn:uuid:a6aa553d-480d-4fdd-b9bc-9fba19bb6d33",
      "resource": {
        "resourceType": "CarePlan",
        "id": "a6aa553d-480d-4fdd-b9bc-9fba19bb6d33",
        "category": [
          {
            "coding": [
              {
                "code": "assess-plan",
                "system": "http://terminology.hl7.org/CodeSystem/care-plan-category",
                "display": "Assessment and Plan"
              }
            ]
          }
        ],
        "activity": [
          {
            "detail": {
              "code": {
                "coding": [
                  {
                    "code": "698360004",
                    "system": "http://snomed.info/sct",
                    "display": "Diabetes self management plan (qualifier value)"
                  }
                ]
              },
              "reasonCode": [
                {
                  "coding": [
                    {
                      "code": "15777000",
                      "system": "http://snomed.info/sct",
                      "display": "Prediabetes"
                    }
                  ]
                }
              ],
              "status": "unknown",
              "description": "Diabetes self management plan",
              "kind": "Appointment"
            }
          }
        ],
        "period": {
          "start": "1977-03-07"
        },
        "goal": [
          {
            "reference": "urn:uuid:e4d873ed-be8a-4c21-9e41-20ed92d6f71a"
          },
          {
            "reference": "urn:uuid:105cfebd-d8b2-4e73-8195-4aff37ef41a0"
          },
          {
            "reference": "urn:uuid:c4e2ebb9-db93-4bd6-9d18-9440a76b558c"
          },
          {
            "reference": "urn:uuid:267c6e15-73a0-4cdb-ab5c-a9f3e47fdce2"
          },
          {
            "reference": "urn:uuid:bccbc456-105b-4fc6-ab35-f74a35dfc9a8"
          }
        ],
        "text": {
          "status": "generated",
          "div": "<div xmlns=\"http://www.w3.org/1999/xhtml\"><table class=\"hl7__ips first25\"><tr><th>Active Planned Care / Goals</th><th>Start Date</th><th>Reason</th></tr><tr><td>Diabetes self management plan</td><td><span class=\"nb\">07-Mar-1977</span></td><td>Prediabetes</td></tr><tr><td><ul><li>Patient will participate in diabetes self-management education to improve understanding and management of prediabetes and diabetes.</li><li>Achieve and maintain HbA1c at individualized target level.</li><li>Achieve and maintain fasting plasma glucose within recommended range.</li><li>Achieve weight reduction of at least 5% from baseline to improve glycemic control.</li><li>Achieve and maintain blood pressure within recommended range for diabetes.</li></ul></td><td></td><td></td></tr></table></div>"
        },
        "status": "active",
        "intent": "plan",
        "subject": {
          "reference": "urn:uuid:c32f74ec-f559-4c50-be37-3c8de05bb2ce",
          "display": "Stephen Weinhage"
        }
      }
    },
    {
      "fullUrl": "urn:uuid:e64ae4d0-b70a-4b11-b370-7f2ccd0d08e4",
      "resource": {
        "resourceType": "CarePlan",
        "id": "e64ae4d0-b70a-4b11-b370-7f2ccd0d08e4",
        "category": [
          {
            "coding": [
              {
                "code": "assess-plan",
                "system": "http://terminology.hl7.org/CodeSystem/care-plan-category",
                "display": "Assessment and Plan"
              }
            ]
          }
        ],
        "activity": [
          {
            "detail": {
              "code": {
                "coding": [
                  {
                    "code": "384758001",
                    "system": "http://snomed.info/sct",
                    "display": "Self-care interventions (procedure)"
                  }
                ]
              },
              "status": "unknown",
              "description": "Self-care interventions",
              "kind": "Appointment"
            }
          }
        ],
        "period": {
          "start": "1949-11-02"
        },
        "text": {
          "status": "generated",
          "div": "<div xmlns=\"http://www.w3.org/1999/xhtml\"><table class=\"hl7__ips first25\"><tr><th>Active Planned Care / Goals</th><th>Start Date</th><th>Reason</th></tr><tr><td>Self-care interventions</td><td><span class=\"nb\">02-Nov-1949</span></td><td>-</td></tr></table></div>"
        },
        "status": "active",
        "intent": "plan",
        "subject": {
          "reference": "urn:uuid:c32f74ec-f559-4c50-be37-3c8de05bb2ce",
          "display": "Stephen Weinhage"
        }
      }
    },
    {
      "fullUrl": "urn:uuid:d40f55a2-dcbd-40ef-ad96-54dab6d178ff",
      "resource": {
        "resourceType": "ImmunizationRecommendation",
        "id": "d40f55a2-dcbd-40ef-ad96-54dab6d178ff",
        "recommendation": [
          {
            "vaccineCode": [
              {
                "coding": [
                  {
                    "code": "1181000221105",
                    "system": "http://snomed.info/sct",
                    "display": "Vaccine product containing only Influenza virus antigen (medicinal product)"
                  }
                ]
              }
            ],
            "dateCriterion": [
              {
                "code": {
                  "coding": [
                    {
                      "code": "30980-7",
                      "system": "http://loinc.org",
                      "display": "Date vaccine due"
                    }
                  ]
                },
                "value": "2025-10-01"
              }
            ],
            "targetDisease": {
              "coding": [
                {
                  "code": "6142004",
                  "system": "http://snomed.info/sct",
                  "display": "Influenza (disorder)"
                }
              ]
            },
            "series": "Annual seasonal influenza vaccination",
            "forecastStatus": {
              "coding": [
                {
                  "code": "due",
                  "system": "http://terminology.hl7.org/CodeSystem/immunization-recommendation-status",
                  "display": "Due"
                }
              ]
            }
          }
        ],
        "text": {
          "status": "generated",
          "div": "<div xmlns=\"http://www.w3.org/1999/xhtml\"><table class=\"hl7__ips\"><tr><td>Vaccine product containing only Influenza virus antigen (medicinal product)</td><td><span class=\"nb\">01-Oct-2025</span></td><td>Annual seasonal influenza vaccination</td></tr></table></div>"
        },
        "date": "2025-10-22",
        "patient": {
          "reference": "urn:uuid:c32f74ec-f559-4c50-be37-3c8de05bb2ce",
          "display": "Stephen Weinhage"
        }
      }
    },
    {
      "fullUrl": "urn:uuid:43fabe80-cf3a-44e0-9835-becc0880e395",
      "resource": {
        "resourceType": "Observation",
        "id": "43fabe80-cf3a-44e0-9835-becc0880e395",
        "meta": {
          "profile": [
            "http://hl7.org/fhir/StructureDefinition/vitalsigns"
          ]
        },
        "category": [
          {
            "coding": [
              {
                "system": "http://terminology.hl7.org/CodeSystem/observation-category",
                "code": "vital-signs",
                "display": "Vital Signs"
              }
            ]
          }
        ],
        "valueQuantity": {
          "value": 173.1,
          "code": "cm",
          "unit": "cm"
        },
        "text": {
          "status": "generated",
          "div": "<div xmlns=\"http://www.w3.org/1999/xhtml\"><table class=\"hl7__ips\"><tr><th>Vital Sign</th><th>Date</th><th>Measurement</th></tr><tr><td>Body Height</td><td>26-May-2025</td><td>173.1 cm</td></tr></table></div>"
        },
        "status": "final",
        "code": {
          "coding": [
            {
              "code": "$8302-2",
              "system": "http://loinc.org",
              "display": "Body Height"
            }
          ]
        },
        "subject": {
          "reference": "urn:uuid:c32f74ec-f559-4c50-be37-3c8de05bb2ce",
          "display": "Stephen Weinhage"
        },
        "effectiveDateTime": "2025-05-26"
      }
    },
    {
      "fullUrl": "urn:uuid:4c84e5fd-d2df-4c56-89df-fb79f8b3c8f8",
      "resource": {
        "resourceType": "Observation",
        "id": "4c84e5fd-d2df-4c56-89df-fb79f8b3c8f8",
        "meta": {
          "profile": [
            "http://hl7.org/fhir/StructureDefinition/vitalsigns"
          ]
        },
        "category": [
          {
            "coding": [
              {
                "system": "http://terminology.hl7.org/CodeSystem/observation-category",
                "code": "vital-signs",
                "display": "Vital Signs"
              }
            ]
          }
        ],
        "valueQuantity": {
          "value": 1,
          "code": "{score}",
          "unit": "{score}"
        },
        "text": {
          "status": "generated",
          "div": "<div xmlns=\"http://www.w3.org/1999/xhtml\"><table class=\"hl7__ips\"><tr><th>Vital Sign</th><th>Date</th><th>Measurement</th></tr><tr><td>Pain severity - 0-10 verbal numeric rating [Score] - Reported</td><td>26-May-2025</td><td>1 {score}</td></tr></table></div>"
        },
        "status": "final",
        "code": {
          "coding": [
            {
              "code": "$72514-3",
              "system": "http://loinc.org",
              "display": "Pain severity - 0-10 verbal numeric rating [Score] - Reported"
            }
          ]
        },
        "subject": {
          "reference": "urn:uuid:c32f74ec-f559-4c50-be37-3c8de05bb2ce",
          "display": "Stephen Weinhage"
        },
        "effectiveDateTime": "2025-05-26"
      }
    },
    {
      "fullUrl": "urn:uuid:329aa76a-2d99-4357-b494-52c462bab2da",
      "resource": {
        "resourceType": "Observation",
        "id": "329aa76a-2d99-4357-b494-52c462bab2da",
        "meta": {
          "profile": [
            "http://hl7.org/fhir/StructureDefinition/vitalsigns"
          ]
        },
        "category": [
          {
            "coding": [
              {
                "system": "http://terminology.hl7.org/CodeSystem/observation-category",
                "code": "vital-signs",
                "display": "Vital Signs"
              }
            ]
          }
        ],
        "valueQuantity": {
          "value": 83.2,
          "code": "kg",
          "unit": "kg"
        },
        "text": {
          "status": "generated",
          "div": "<div xmlns=\"http://www.w3.org/1999/xhtml\"><table class=\"hl7__ips\"><tr><th>Vital Sign</th><th>Date</th><th>Measurement</th></tr><tr><td>Body Weight</td><td>26-May-2025</td><td>83.2 kg</td></tr></table></div>"
        },
        "status": "final",
        "code": {
          "coding": [
            {
              "code": "$29463-7",
              "system": "http://loinc.org",
              "display": "Body Weight"
            }
          ]
        },
        "subject": {
          "reference": "urn:uuid:c32f74ec-f559-4c50-be37-3c8de05bb2ce",
          "display": "Stephen Weinhage"
        },
        "effectiveDateTime": "2025-05-26"
      }
    },
    {
      "fullUrl": "urn:uuid:63f7d11b-2aa9-4892-ab4c-2db8974ab8bc",
      "resource": {
        "resourceType": "Observation",
        "id": "63f7d11b-2aa9-4892-ab4c-2db8974ab8bc",
        "meta": {
          "profile": [
            "http://hl7.org/fhir/StructureDefinition/vitalsigns"
          ]
        },
        "category": [
          {
            "coding": [
              {
                "system": "http://terminology.hl7.org/CodeSystem/observation-category",
                "code": "vital-signs",
                "display": "Vital Signs"
              }
            ]
          }
        ],
        "valueQuantity": {
          "value": 27.8,
          "code": "kg/m2",
          "unit": "kg/m2"
        },
        "text": {
          "status": "generated",
          "div": "<div xmlns=\"http://www.w3.org/1999/xhtml\"><table class=\"hl7__ips\"><tr><th>Vital Sign</th><th>Date</th><th>Measurement</th></tr><tr><td>Body mass index (BMI) [Ratio]</td><td>26-May-2025</td><td>27.8 kg/m2</td></tr></table></div>"
        },
        "status": "final",
        "code": {
          "coding": [
            {
              "code": "$39156-5",
              "system": "http://loinc.org",
              "display": "Body mass index (BMI) [Ratio]"
            }
          ]
        },
        "subject": {
          "reference": "urn:uuid:c32f74ec-f559-4c50-be37-3c8de05bb2ce",
          "display": "Stephen Weinhage"
        },
        "effectiveDateTime": "2025-05-26"
      }
    },
    {
      "fullUrl": "urn:uuid:78777424-e3b7-4659-9396-6d4c8e06d4f2",
      "resource": {
        "resourceType": "Observation",
        "id": "78777424-e3b7-4659-9396-6d4c8e06d4f2",
        "meta": {
          "profile": [
            "http://hl7.org/fhir/StructureDefinition/vitalsigns"
          ]
        },
        "category": [
          {
            "coding": [
              {
                "system": "http://terminology.hl7.org/CodeSystem/observation-category",
                "code": "vital-signs",
                "display": "Vital Signs"
              }
            ]
          }
        ],
        "valueQuantity": {
          "value": 88,
          "code": "mm[Hg]",
          "unit": "mm[Hg]"
        },
        "text": {
          "status": "generated",
          "div": "<div xmlns=\"http://www.w3.org/1999/xhtml\"><table class=\"hl7__ips\"><tr><th>Vital Sign</th><th>Date</th><th>Measurement</th></tr><tr><td>Diastolic Blood Pressure</td><td>26-May-2025</td><td>88 mm[Hg]</td></tr></table></div>"
        },
        "status": "final",
        "code": {
          "coding": [
            {
              "code": "$8462-4",
              "system": "http://loinc.org",
              "display": "Diastolic Blood Pressure"
            }
          ]
        },
        "subject": {
          "reference": "urn:uuid:c32f74ec-f559-4c50-be37-3c8de05bb2ce",
          "display": "Stephen Weinhage"
        },
        "effectiveDateTime": "2025-05-26"
      }
    },
    {
      "fullUrl": "urn:uuid:c10a27ed-3f62-4753-b5d4-ab2124ae90e5",
      "resource": {
        "resourceType": "Observation",
        "id": "c10a27ed-3f62-4753-b5d4-ab2124ae90e5",
        "meta": {
          "profile": [
            "http://hl7.org/fhir/StructureDefinition/vitalsigns"
          ]
        },
        "category": [
          {
            "coding": [
              {
                "system": "http://terminology.hl7.org/CodeSystem/observation-category",
                "code": "vital-signs",
                "display": "Vital Signs"
              }
            ]
          }
        ],
        "valueQuantity": {
          "value": 119,
          "code": "mm[Hg]",
          "unit": "mm[Hg]"
        },
        "text": {
          "status": "generated",
          "div": "<div xmlns=\"http://www.w3.org/1999/xhtml\"><table class=\"hl7__ips\"><tr><th>Vital Sign</th><th>Date</th><th>Measurement</th></tr><tr><td>Systolic Blood Pressure</td><td>26-May-2025</td><td>119 mm[Hg]</td></tr></table></div>"
        },
        "status": "final",
        "code": {
          "coding": [
            {
              "code": "$8480-6",
              "system": "http://loinc.org",
              "display": "Systolic Blood Pressure"
            }
          ]
        },
        "subject": {
          "reference": "urn:uuid:c32f74ec-f559-4c50-be37-3c8de05bb2ce",
          "display": "Stephen Weinhage"
        },
        "effectiveDateTime": "2025-05-26"
      }
    },
    {
      "fullUrl": "urn:uuid:554bca10-9a35-4cfe-81f9-d449305ee79d",
      "resource": {
        "resourceType": "Observation",
        "id": "554bca10-9a35-4cfe-81f9-d449305ee79d",
        "meta": {
          "profile": [
            "http://hl7.org/fhir/StructureDefinition/vitalsigns"
          ]
        },
        "category": [
          {
            "coding": [
              {
                "system": "http://terminology.hl7.org/CodeSystem/observation-category",
                "code": "vital-signs",
                "display": "Vital Signs"
              }
            ]
          }
        ],
        "valueQuantity": {
          "value": 85,
          "code": "/min",
          "unit": "/min"
        },
        "text": {
          "status": "generated",
          "div": "<div xmlns=\"http://www.w3.org/1999/xhtml\"><table class=\"hl7__ips\"><tr><th>Vital Sign</th><th>Date</th><th>Measurement</th></tr><tr><td>Heart rate</td><td>26-May-2025</td><td>85 /min</td></tr></table></div>"
        },
        "status": "final",
        "code": {
          "coding": [
            {
              "code": "$8867-4",
              "system": "http://loinc.org",
              "display": "Heart rate"
            }
          ]
        },
        "subject": {
          "reference": "urn:uuid:c32f74ec-f559-4c50-be37-3c8de05bb2ce",
          "display": "Stephen Weinhage"
        },
        "effectiveDateTime": "2025-05-26"
      }
    },
    {
      "fullUrl": "urn:uuid:6c3d0cf1-9337-4e89-be8b-91c93fac83ce",
      "resource": {
        "resourceType": "Observation",
        "id": "6c3d0cf1-9337-4e89-be8b-91c93fac83ce",
        "meta": {
          "profile": [
            "http://hl7.org/fhir/StructureDefinition/vitalsigns"
          ]
        },
        "category": [
          {
            "coding": [
              {
                "system": "http://terminology.hl7.org/CodeSystem/observation-category",
                "code": "vital-signs",
                "display": "Vital Signs"
              }
            ]
          }
        ],
        "valueQuantity": {
          "value": 15,
          "code": "/min",
          "unit": "/min"
        },
        "text": {
          "status": "generated",
          "div": "<div xmlns=\"http://www.w3.org/1999/xhtml\"><table class=\"hl7__ips\"><tr><th>Vital Sign</th><th>Date</th><th>Measurement</th></tr><tr><td>Respiratory rate</td><td>26-May-2025</td><td>15 /min</td></tr></table></div>"
        },
        "status": "final",
        "code": {
          "coding": [
            {
              "code": "$9279-1",
              "system": "http://loinc.org",
              "display": "Respiratory rate"
            }
          ]
        },
        "subject": {
          "reference": "urn:uuid:c32f74ec-f559-4c50-be37-3c8de05bb2ce",
          "display": "Stephen Weinhage"
        },
        "effectiveDateTime": "2025-05-26"
      }
    },
    {
      "fullUrl": "urn:uuid:c55ea03d-8d40-44b8-a519-745dad0eb58d",
      "resource": {
        "resourceType": "Observation",
        "id": "c55ea03d-8d40-44b8-a519-745dad0eb58d",
        "meta": {
          "profile": [
            "http://hl7.org/fhir/StructureDefinition/vitalsigns"
          ]
        },
        "category": [
          {
            "coding": [
              {
                "system": "http://terminology.hl7.org/CodeSystem/observation-category",
                "code": "vital-signs",
                "display": "Vital Signs"
              }
            ]
          }
        ],
        "valueQuantity": {
          "value": 173.1,
          "code": "cm",
          "unit": "cm"
        },
        "text": {
          "status": "generated",
          "div": "<div xmlns=\"http://www.w3.org/1999/xhtml\"><table class=\"hl7__ips\"><tr><th>Vital Sign</th><th>Date</th><th>Measurement</th></tr><tr><td>Body Height</td><td>20-May-2024</td><td>173.1 cm</td></tr></table></div>"
        },
        "status": "final",
        "code": {
          "coding": [
            {
              "code": "$8302-2",
              "system": "http://loinc.org",
              "display": "Body Height"
            }
          ]
        },
        "subject": {
          "reference": "urn:uuid:c32f74ec-f559-4c50-be37-3c8de05bb2ce",
          "display": "Stephen Weinhage"
        },
        "effectiveDateTime": "2024-05-20"
      }
    },
    {
      "fullUrl": "urn:uuid:56897ff9-1a53-456c-91d7-c2b1bec454fc",
      "resource": {
        "resourceType": "Observation",
        "id": "56897ff9-1a53-456c-91d7-c2b1bec454fc",
        "meta": {
          "profile": [
            "http://hl7.org/fhir/StructureDefinition/vitalsigns"
          ]
        },
        "category": [
          {
            "coding": [
              {
                "system": "http://terminology.hl7.org/CodeSystem/observation-category",
                "code": "vital-signs",
                "display": "Vital Signs"
              }
            ]
          }
        ],
        "valueQuantity": {
          "value": 1,
          "code": "{score}",
          "unit": "{score}"
        },
        "text": {
          "status": "generated",
          "div": "<div xmlns=\"http://www.w3.org/1999/xhtml\"><table class=\"hl7__ips\"><tr><th>Vital Sign</th><th>Date</th><th>Measurement</th></tr><tr><td>Pain severity - 0-10 verbal numeric rating [Score] - Reported</td><td>20-May-2024</td><td>1 {score}</td></tr></table></div>"
        },
        "status": "final",
        "code": {
          "coding": [
            {
              "code": "$72514-3",
              "system": "http://loinc.org",
              "display": "Pain severity - 0-10 verbal numeric rating [Score] - Reported"
            }
          ]
        },
        "subject": {
          "reference": "urn:uuid:c32f74ec-f559-4c50-be37-3c8de05bb2ce",
          "display": "Stephen Weinhage"
        },
        "effectiveDateTime": "2024-05-20"
      }
    },
    {
      "fullUrl": "urn:uuid:70efe471-de10-464e-934f-5f79a848c4aa",
      "resource": {
        "resourceType": "Observation",
        "id": "70efe471-de10-464e-934f-5f79a848c4aa",
        "meta": {
          "profile": [
            "http://hl7.org/fhir/StructureDefinition/vitalsigns"
          ]
        },
        "category": [
          {
            "coding": [
              {
                "system": "http://terminology.hl7.org/CodeSystem/observation-category",
                "code": "vital-signs",
                "display": "Vital Signs"
              }
            ]
          }
        ],
        "valueQuantity": {
          "value": 83.2,
          "code": "kg",
          "unit": "kg"
        },
        "text": {
          "status": "generated",
          "div": "<div xmlns=\"http://www.w3.org/1999/xhtml\"><table class=\"hl7__ips\"><tr><th>Vital Sign</th><th>Date</th><th>Measurement</th></tr><tr><td>Body Weight</td><td>20-May-2024</td><td>83.2 kg</td></tr></table></div>"
        },
        "status": "final",
        "code": {
          "coding": [
            {
              "code": "$29463-7",
              "system": "http://loinc.org",
              "display": "Body Weight"
            }
          ]
        },
        "subject": {
          "reference": "urn:uuid:c32f74ec-f559-4c50-be37-3c8de05bb2ce",
          "display": "Stephen Weinhage"
        },
        "effectiveDateTime": "2024-05-20"
      }
    },
    {
      "fullUrl": "urn:uuid:b9f69a96-1d94-428b-a6c4-1ece1dafb6c7",
      "resource": {
        "resourceType": "Observation",
        "id": "b9f69a96-1d94-428b-a6c4-1ece1dafb6c7",
        "meta": {
          "profile": [
            "http://hl7.org/fhir/StructureDefinition/vitalsigns"
          ]
        },
        "category": [
          {
            "coding": [
              {
                "system": "http://terminology.hl7.org/CodeSystem/observation-category",
                "code": "vital-signs",
                "display": "Vital Signs"
              }
            ]
          }
        ],
        "valueQuantity": {
          "value": 27.8,
          "code": "kg/m2",
          "unit": "kg/m2"
        },
        "text": {
          "status": "generated",
          "div": "<div xmlns=\"http://www.w3.org/1999/xhtml\"><table class=\"hl7__ips\"><tr><th>Vital Sign</th><th>Date</th><th>Measurement</th></tr><tr><td>Body mass index (BMI) [Ratio]</td><td>20-May-2024</td><td>27.8 kg/m2</td></tr></table></div>"
        },
        "status": "final",
        "code": {
          "coding": [
            {
              "code": "$39156-5",
              "system": "http://loinc.org",
              "display": "Body mass index (BMI) [Ratio]"
            }
          ]
        },
        "subject": {
          "reference": "urn:uuid:c32f74ec-f559-4c50-be37-3c8de05bb2ce",
          "display": "Stephen Weinhage"
        },
        "effectiveDateTime": "2024-05-20"
      }
    },
    {
      "fullUrl": "urn:uuid:50e826e3-8491-4c34-b44c-0eb2734194bb",
      "resource": {
        "resourceType": "Observation",
        "id": "50e826e3-8491-4c34-b44c-0eb2734194bb",
        "meta": {
          "profile": [
            "http://hl7.org/fhir/StructureDefinition/vitalsigns"
          ]
        },
        "category": [
          {
            "coding": [
              {
                "system": "http://terminology.hl7.org/CodeSystem/observation-category",
                "code": "vital-signs",
                "display": "Vital Signs"
              }
            ]
          }
        ],
        "valueQuantity": {
          "value": 85,
          "code": "mm[Hg]",
          "unit": "mm[Hg]"
        },
        "text": {
          "status": "generated",
          "div": "<div xmlns=\"http://www.w3.org/1999/xhtml\"><table class=\"hl7__ips\"><tr><th>Vital Sign</th><th>Date</th><th>Measurement</th></tr><tr><td>Diastolic Blood Pressure</td><td>20-May-2024</td><td>85 mm[Hg]</td></tr></table></div>"
        },
        "status": "final",
        "code": {
          "coding": [
            {
              "code": "$8462-4",
              "system": "http://loinc.org",
              "display": "Diastolic Blood Pressure"
            }
          ]
        },
        "subject": {
          "reference": "urn:uuid:c32f74ec-f559-4c50-be37-3c8de05bb2ce",
          "display": "Stephen Weinhage"
        },
        "effectiveDateTime": "2024-05-20"
      }
    },
    {
      "fullUrl": "urn:uuid:78471719-f3a6-416a-a344-a529a32ea7b2",
      "resource": {
        "resourceType": "Observation",
        "id": "78471719-f3a6-416a-a344-a529a32ea7b2",
        "meta": {
          "profile": [
            "http://hl7.org/fhir/StructureDefinition/vitalsigns"
          ]
        },
        "category": [
          {
            "coding": [
              {
                "system": "http://terminology.hl7.org/CodeSystem/observation-category",
                "code": "vital-signs",
                "display": "Vital Signs"
              }
            ]
          }
        ],
        "valueQuantity": {
          "value": 122,
          "code": "mm[Hg]",
          "unit": "mm[Hg]"
        },
        "text": {
          "status": "generated",
          "div": "<div xmlns=\"http://www.w3.org/1999/xhtml\"><table class=\"hl7__ips\"><tr><th>Vital Sign</th><th>Date</th><th>Measurement</th></tr><tr><td>Systolic Blood Pressure</td><td>20-May-2024</td><td>122 mm[Hg]</td></tr></table></div>"
        },
        "status": "final",
        "code": {
          "coding": [
            {
              "code": "$8480-6",
              "system": "http://loinc.org",
              "display": "Systolic Blood Pressure"
            }
          ]
        },
        "subject": {
          "reference": "urn:uuid:c32f74ec-f559-4c50-be37-3c8de05bb2ce",
          "display": "Stephen Weinhage"
        },
        "effectiveDateTime": "2024-05-20"
      }
    },
    {
      "fullUrl": "urn:uuid:64b0fc03-2f3e-49df-8869-4722aaab2f92",
      "resource": {
        "resourceType": "Observation",
        "id": "64b0fc03-2f3e-49df-8869-4722aaab2f92",
        "meta": {
          "profile": [
            "http://hl7.org/fhir/StructureDefinition/vitalsigns"
          ]
        },
        "category": [
          {
            "coding": [
              {
                "system": "http://terminology.hl7.org/CodeSystem/observation-category",
                "code": "vital-signs",
                "display": "Vital Signs"
              }
            ]
          }
        ],
        "valueQuantity": {
          "value": 85,
          "code": "/min",
          "unit": "/min"
        },
        "text": {
          "status": "generated",
          "div": "<div xmlns=\"http://www.w3.org/1999/xhtml\"><table class=\"hl7__ips\"><tr><th>Vital Sign</th><th>Date</th><th>Measurement</th></tr><tr><td>Heart rate</td><td>20-May-2024</td><td>85 /min</td></tr></table></div>"
        },
        "status": "final",
        "code": {
          "coding": [
            {
              "code": "$8867-4",
              "system": "http://loinc.org",
              "display": "Heart rate"
            }
          ]
        },
        "subject": {
          "reference": "urn:uuid:c32f74ec-f559-4c50-be37-3c8de05bb2ce",
          "display": "Stephen Weinhage"
        },
        "effectiveDateTime": "2024-05-20"
      }
    },
    {
      "fullUrl": "urn:uuid:5b5e1184-ddf8-4ccf-aaa3-0180b5f8c8ff",
      "resource": {
        "resourceType": "Observation",
        "id": "5b5e1184-ddf8-4ccf-aaa3-0180b5f8c8ff",
        "meta": {
          "profile": [
            "http://hl7.org/fhir/StructureDefinition/vitalsigns"
          ]
        },
        "category": [
          {
            "coding": [
              {
                "system": "http://terminology.hl7.org/CodeSystem/observation-category",
                "code": "vital-signs",
                "display": "Vital Signs"
              }
            ]
          }
        ],
        "valueQuantity": {
          "value": 13,
          "code": "/min",
          "unit": "/min"
        },
        "text": {
          "status": "generated",
          "div": "<div xmlns=\"http://www.w3.org/1999/xhtml\"><table class=\"hl7__ips\"><tr><th>Vital Sign</th><th>Date</th><th>Measurement</th></tr><tr><td>Respiratory rate</td><td>20-May-2024</td><td>13 /min</td></tr></table></div>"
        },
        "status": "final",
        "code": {
          "coding": [
            {
              "code": "$9279-1",
              "system": "http://loinc.org",
              "display": "Respiratory rate"
            }
          ]
        },
        "subject": {
          "reference": "urn:uuid:c32f74ec-f559-4c50-be37-3c8de05bb2ce",
          "display": "Stephen Weinhage"
        },
        "effectiveDateTime": "2024-05-20"
      }
    },
    {
      "fullUrl": "urn:uuid:0925ae83-40d4-466e-aca1-21627d19f0b4",
      "resource": {
        "resourceType": "Observation",
        "id": "0925ae83-40d4-466e-aca1-21627d19f0b4",
        "meta": {
          "profile": [
            "http://hl7.eu/fhir/laboratory/StructureDefinition/Observation-resultslab-eu-lab"
          ]
        },
        "performer": [
          {
            "display": "The Central European Lab"
          }
        ],
        "category": [
          {
            "coding": [
              {
                "system": "http://terminology.hl7.org/CodeSystem/observation-category",
                "code": "laboratory"
              }
            ]
          }
        ],
        "code": {
          "coding": [
            {
              "code": "2339-0",
              "system": "http://loinc.org",
              "display": "Glucose [Mass/volume] in Blood"
            }
          ],
          "text": "Glucose [Mass/volume] in Blood"
        },
        "valueQuantity": {
          "system": "http://unitsofmeasure.org",
          "value": 114.6,
          "unit": "mg/dL",
          "code": "mg/dL"
        },
        "referenceRange": [
          {
            "low": {
              "value": 70,
              "code": "mg/dL",
              "system": "http://unitsofmeasure.org"
            }
          },
          {
            "high": {
              "value": 140,
              "code": "mg/dL",
              "system": "http://unitsofmeasure.org"
            }
          }
        ],
        "text": {
          "status": "generated",
          "div": "<div xmlns=\"http://www.w3.org/1999/xhtml\"><table class=\"hl7__eu__lab__report\"><tr><th>Test</th><th>04-Jun-2025</th><th>Reference&#xA0;Range</th><th>Unit</th></tr><tr><td>Glucose [Mass/volume] in Blood</td><td>114.6</td><td>70 - 140</td><td></td><td>mg/dL</td></tr></table></div>"
        },
        "status": "final",
        "subject": {
          "reference": "urn:uuid:c32f74ec-f559-4c50-be37-3c8de05bb2ce",
          "display": "Stephen Weinhage"
        },
        "effectiveDateTime": "2025-06-04T06:55:50Z"
      }
    },
    {
      "fullUrl": "urn:uuid:0e63fb5b-0c39-4369-a799-4105bd352f7e",
      "resource": {
        "resourceType": "Observation",
        "id": "0e63fb5b-0c39-4369-a799-4105bd352f7e",
        "meta": {
          "profile": [
            "http://hl7.eu/fhir/laboratory/StructureDefinition/Observation-resultslab-eu-lab"
          ]
        },
        "performer": [
          {
            "display": "The Central European Lab"
          }
        ],
        "category": [
          {
            "coding": [
              {
                "system": "http://terminology.hl7.org/CodeSystem/observation-category",
                "code": "laboratory"
              }
            ]
          }
        ],
        "code": {
          "coding": [
            {
              "code": "6299-2",
              "system": "http://loinc.org",
              "display": "Urea nitrogen [Mass/volume] in Blood"
            }
          ],
          "text": "Urea nitrogen [Mass/volume] in Blood"
        },
        "valueQuantity": {
          "system": "http://unitsofmeasure.org",
          "value": 7.1,
          "unit": "mg/dL",
          "code": "mg/dL"
        },
        "referenceRange": [
          {
            "low": {
              "value": 7,
              "code": "mg/dL",
              "system": "http://unitsofmeasure.org"
            }
          },
          {
            "high": {
              "value": 20,
              "code": "mg/dL",
              "system": "http://unitsofmeasure.org"
            }
          }
        ],
        "text": {
          "status": "generated",
          "div": "<div xmlns=\"http://www.w3.org/1999/xhtml\"><table class=\"hl7__eu__lab__report\"><tr><th>Test</th><th>04-Jun-2025</th><th>Reference&#xA0;Range</th><th>Unit</th></tr><tr><td>Urea nitrogen [Mass/volume] in Blood</td><td>7.1</td><td>7 - 20</td><td></td><td>mg/dL</td></tr></table></div>"
        },
        "status": "final",
        "subject": {
          "reference": "urn:uuid:c32f74ec-f559-4c50-be37-3c8de05bb2ce",
          "display": "Stephen Weinhage"
        },
        "effectiveDateTime": "2025-06-04T06:55:50Z"
      }
    },
    {
      "fullUrl": "urn:uuid:9c38dc6f-9087-441d-902d-afef8b6b1f6c",
      "resource": {
        "resourceType": "Observation",
        "id": "9c38dc6f-9087-441d-902d-afef8b6b1f6c",
        "meta": {
          "profile": [
            "http://hl7.eu/fhir/laboratory/StructureDefinition/Observation-resultslab-eu-lab"
          ]
        },
        "performer": [
          {
            "display": "The Central European Lab"
          }
        ],
        "category": [
          {
            "coding": [
              {
                "system": "http://terminology.hl7.org/CodeSystem/observation-category",
                "code": "laboratory"
              }
            ]
          }
        ],
        "code": {
          "coding": [
            {
              "code": "38483-4",
              "system": "http://loinc.org",
              "display": "Creatinine [Mass/volume] in Blood"
            }
          ],
          "text": "Creatinine [Mass/volume] in Blood"
        },
        "valueQuantity": {
          "system": "http://unitsofmeasure.org",
          "value": 3.5,
          "unit": "mg/dL",
          "code": "mg/dL"
        },
        "referenceRange": [
          {
            "low": {
              "value": 0.6,
              "code": "mg/dL",
              "system": "http://unitsofmeasure.org"
            }
          },
          {
            "high": {
              "value": 1.3,
              "code": "mg/dL",
              "system": "http://unitsofmeasure.org"
            }
          }
        ],
        "interpretation": [
          {
            "coding": [
              {
                "code": "H",
                "system": "http://terminology.hl7.org/CodeSystem/v3-ObservationInterpretation",
                "display": "High"
              }
            ]
          }
        ],
        "text": {
          "status": "generated",
          "div": "<div xmlns=\"http://www.w3.org/1999/xhtml\"><table class=\"hl7__eu__lab__report\"><tr><th>Test</th><th>04-Jun-2025</th><th>Reference&#xA0;Range</th><th>Unit</th></tr><tr><td>Creatinine [Mass/volume] in Blood</td><td>3.5</td><td>0.6 - 1.3</td><td>H</td><td>mg/dL</td></tr></table></div>"
        },
        "status": "final",
        "subject": {
          "reference": "urn:uuid:c32f74ec-f559-4c50-be37-3c8de05bb2ce",
          "display": "Stephen Weinhage"
        },
        "effectiveDateTime": "2025-06-04T06:55:50Z"
      }
    },
    {
      "fullUrl": "urn:uuid:e26849c2-f6ca-4176-813b-65504cce0658",
      "resource": {
        "resourceType": "Observation",
        "id": "e26849c2-f6ca-4176-813b-65504cce0658",
        "meta": {
          "profile": [
            "http://hl7.eu/fhir/laboratory/StructureDefinition/Observation-resultslab-eu-lab"
          ]
        },
        "performer": [
          {
            "display": "The Central European Lab"
          }
        ],
        "category": [
          {
            "coding": [
              {
                "system": "http://terminology.hl7.org/CodeSystem/observation-category",
                "code": "laboratory"
              }
            ]
          }
        ],
        "code": {
          "coding": [
            {
              "code": "49765-1",
              "system": "http://loinc.org",
              "display": "Calcium [Mass/volume] in Blood"
            }
          ],
          "text": "Calcium [Mass/volume] in Blood"
        },
        "valueQuantity": {
          "system": "http://unitsofmeasure.org",
          "value": 8.8,
          "unit": "mg/dL",
          "code": "mg/dL"
        },
        "referenceRange": [
          {
            "low": {
              "value": 8.5,
              "code": "mg/dL",
              "system": "http://unitsofmeasure.org"
            }
          },
          {
            "high": {
              "value": 10.5,
              "code": "mg/dL",
              "system": "http://unitsofmeasure.org"
            }
          }
        ],
        "text": {
          "status": "generated",
          "div": "<div xmlns=\"http://www.w3.org/1999/xhtml\"><table class=\"hl7__eu__lab__report\"><tr><th>Test</th><th>04-Jun-2025</th><th>Reference&#xA0;Range</th><th>Unit</th></tr><tr><td>Calcium [Mass/volume] in Blood</td><td>8.8</td><td>8.5 - 10.5</td><td></td><td>mg/dL</td></tr></table></div>"
        },
        "status": "final",
        "subject": {
          "reference": "urn:uuid:c32f74ec-f559-4c50-be37-3c8de05bb2ce",
          "display": "Stephen Weinhage"
        },
        "effectiveDateTime": "2025-06-04T06:55:50Z"
      }
    },
    {
      "fullUrl": "urn:uuid:3dd1601e-d03b-4056-90b7-0692d36f5b6d",
      "resource": {
        "resourceType": "Observation",
        "id": "3dd1601e-d03b-4056-90b7-0692d36f5b6d",
        "meta": {
          "profile": [
            "http://hl7.eu/fhir/laboratory/StructureDefinition/Observation-resultslab-eu-lab"
          ]
        },
        "performer": [
          {
            "display": "The Central European Lab"
          }
        ],
        "category": [
          {
            "coding": [
              {
                "system": "http://terminology.hl7.org/CodeSystem/observation-category",
                "code": "laboratory"
              }
            ]
          }
        ],
        "code": {
          "coding": [
            {
              "code": "2947-0",
              "system": "http://loinc.org",
              "display": "Sodium [Moles/volume] in Blood"
            }
          ],
          "text": "Sodium [Moles/volume] in Blood"
        },
        "valueQuantity": {
          "system": "http://unitsofmeasure.org",
          "value": 143.6,
          "unit": "mmol/L",
          "code": "mmol/L"
        },
        "referenceRange": [
          {
            "low": {
              "value": 135,
              "code": "mmol/L",
              "system": "http://unitsofmeasure.org"
            }
          },
          {
            "high": {
              "value": 145,
              "code": "mmol/L",
              "system": "http://unitsofmeasure.org"
            }
          }
        ],
        "text": {
          "status": "generated",
          "div": "<div xmlns=\"http://www.w3.org/1999/xhtml\"><table class=\"hl7__eu__lab__report\"><tr><th>Test</th><th>04-Jun-2025</th><th>Reference&#xA0;Range</th><th>Unit</th></tr><tr><td>Sodium [Moles/volume] in Blood</td><td>143.6</td><td>135 - 145</td><td></td><td>mmol/L</td></tr></table></div>"
        },
        "status": "final",
        "subject": {
          "reference": "urn:uuid:c32f74ec-f559-4c50-be37-3c8de05bb2ce",
          "display": "Stephen Weinhage"
        },
        "effectiveDateTime": "2025-06-04T06:55:50Z"
      }
    },
    {
      "fullUrl": "urn:uuid:f449a266-d93d-4604-8969-bf8b63aa1343",
      "resource": {
        "resourceType": "Observation",
        "id": "f449a266-d93d-4604-8969-bf8b63aa1343",
        "meta": {
          "profile": [
            "http://hl7.eu/fhir/laboratory/StructureDefinition/Observation-resultslab-eu-lab"
          ]
        },
        "performer": [
          {
            "display": "The Central European Lab"
          }
        ],
        "category": [
          {
            "coding": [
              {
                "system": "http://terminology.hl7.org/CodeSystem/observation-category",
                "code": "laboratory"
              }
            ]
          }
        ],
        "code": {
          "coding": [
            {
              "code": "6298-4",
              "system": "http://loinc.org",
              "display": "Potassium [Moles/volume] in Blood"
            }
          ],
          "text": "Potassium [Moles/volume] in Blood"
        },
        "valueQuantity": {
          "system": "http://unitsofmeasure.org",
          "value": 4.8,
          "unit": "mmol/L",
          "code": "mmol/L"
        },
        "referenceRange": [
          {
            "low": {
              "value": 3.5,
              "code": "mmol/L",
              "system": "http://unitsofmeasure.org"
            }
          },
          {
            "high": {
              "value": 5.1,
              "code": "mmol/L",
              "system": "http://unitsofmeasure.org"
            }
          }
        ],
        "text": {
          "status": "generated",
          "div": "<div xmlns=\"http://www.w3.org/1999/xhtml\"><table class=\"hl7__eu__lab__report\"><tr><th>Test</th><th>04-Jun-2025</th><th>Reference&#xA0;Range</th><th>Unit</th></tr><tr><td>Potassium [Moles/volume] in Blood</td><td>4.8</td><td>3.5 - 5.1</td><td></td><td>mmol/L</td></tr></table></div>"
        },
        "status": "final",
        "subject": {
          "reference": "urn:uuid:c32f74ec-f559-4c50-be37-3c8de05bb2ce",
          "display": "Stephen Weinhage"
        },
        "effectiveDateTime": "2025-06-04T06:55:50Z"
      }
    },
    {
      "fullUrl": "urn:uuid:1a58ae02-0c89-4485-bd22-37b959a88b7c",
      "resource": {
        "resourceType": "Observation",
        "id": "1a58ae02-0c89-4485-bd22-37b959a88b7c",
        "meta": {
          "profile": [
            "http://hl7.eu/fhir/laboratory/StructureDefinition/Observation-resultslab-eu-lab"
          ]
        },
        "performer": [
          {
            "display": "The Central European Lab"
          }
        ],
        "category": [
          {
            "coding": [
              {
                "system": "http://terminology.hl7.org/CodeSystem/observation-category",
                "code": "laboratory"
              }
            ]
          }
        ],
        "code": {
          "coding": [
            {
              "code": "2069-3",
              "system": "http://loinc.org",
              "display": "Chloride [Moles/volume] in Blood"
            }
          ],
          "text": "Chloride [Moles/volume] in Blood"
        },
        "valueQuantity": {
          "system": "http://unitsofmeasure.org",
          "value": 109.7,
          "unit": "mmol/L",
          "code": "mmol/L"
        },
        "referenceRange": [
          {
            "low": {
              "value": 98,
              "code": "mmol/L",
              "system": "http://unitsofmeasure.org"
            }
          },
          {
            "high": {
              "value": 108,
              "code": "mmol/L",
              "system": "http://unitsofmeasure.org"
            }
          }
        ],
        "interpretation": [
          {
            "coding": [
              {
                "code": "H",
                "system": "http://terminology.hl7.org/CodeSystem/v3-ObservationInterpretation",
                "display": "High"
              }
            ]
          }
        ],
        "text": {
          "status": "generated",
          "div": "<div xmlns=\"http://www.w3.org/1999/xhtml\"><table class=\"hl7__eu__lab__report\"><tr><th>Test</th><th>04-Jun-2025</th><th>Reference&#xA0;Range</th><th>Unit</th></tr><tr><td>Chloride [Moles/volume] in Blood</td><td>109.7</td><td>98 - 108</td><td>H</td><td>mmol/L</td></tr></table></div>"
        },
        "status": "final",
        "subject": {
          "reference": "urn:uuid:c32f74ec-f559-4c50-be37-3c8de05bb2ce",
          "display": "Stephen Weinhage"
        },
        "effectiveDateTime": "2025-06-04T06:55:50Z"
      }
    },
    {
      "fullUrl": "urn:uuid:039ad45f-f708-4962-a848-a4cf4b856a41",
      "resource": {
        "resourceType": "Observation",
        "id": "039ad45f-f708-4962-a848-a4cf4b856a41",
        "meta": {
          "profile": [
            "http://hl7.eu/fhir/laboratory/StructureDefinition/Observation-resultslab-eu-lab"
          ]
        },
        "performer": [
          {
            "display": "The Central European Lab"
          }
        ],
        "category": [
          {
            "coding": [
              {
                "system": "http://terminology.hl7.org/CodeSystem/observation-category",
                "code": "laboratory"
              }
            ]
          }
        ],
        "code": {
          "coding": [
            {
              "code": "20565-8",
              "system": "http://loinc.org",
              "display": "Carbon dioxide, total [Moles/volume] in Blood"
            }
          ],
          "text": "Carbon dioxide, total [Moles/volume] in Blood"
        },
        "valueQuantity": {
          "system": "http://unitsofmeasure.org",
          "value": 20.6,
          "unit": "mmol/L",
          "code": "mmol/L"
        },
        "referenceRange": [
          {
            "low": {
              "value": 22,
              "code": "mmol/L",
              "system": "http://unitsofmeasure.org"
            }
          },
          {
            "high": {
              "value": 32,
              "code": "mmol/L",
              "system": "http://unitsofmeasure.org"
            }
          }
        ],
        "interpretation": [
          {
            "coding": [
              {
                "code": "L",
                "system": "http://terminology.hl7.org/CodeSystem/v3-ObservationInterpretation",
                "display": "Low"
              }
            ]
          }
        ],
        "text": {
          "status": "generated",
          "div": "<div xmlns=\"http://www.w3.org/1999/xhtml\"><table class=\"hl7__eu__lab__report\"><tr><th>Test</th><th>04-Jun-2025</th><th>Reference&#xA0;Range</th><th>Unit</th></tr><tr><td>Carbon dioxide, total [Moles/volume] in Blood</td><td>20.6</td><td>22 - 32</td><td>L</td><td>mmol/L</td></tr></table></div>"
        },
        "status": "final",
        "subject": {
          "reference": "urn:uuid:c32f74ec-f559-4c50-be37-3c8de05bb2ce",
          "display": "Stephen Weinhage"
        },
        "effectiveDateTime": "2025-06-04T06:55:50Z"
      }
    },
    {
      "fullUrl": "urn:uuid:e09e4417-8d9b-4026-8ab8-3459459ff716",
      "resource": {
        "resourceType": "Observation",
        "id": "e09e4417-8d9b-4026-8ab8-3459459ff716",
        "meta": {
          "profile": [
            "http://hl7.eu/fhir/laboratory/StructureDefinition/Observation-resultslab-eu-lab"
          ]
        },
        "performer": [
          {
            "display": "The Central European Lab"
          }
        ],
        "category": [
          {
            "coding": [
              {
                "system": "http://terminology.hl7.org/CodeSystem/observation-category",
                "code": "laboratory"
              }
            ]
          }
        ],
        "code": {
          "coding": [
            {
              "code": "2885-2",
              "system": "http://loinc.org",
              "display": "Protein [Mass/volume] in Serum or Plasma"
            }
          ],
          "text": "Protein [Mass/volume] in Serum or Plasma"
        },
        "valueQuantity": {
          "system": "http://unitsofmeasure.org",
          "value": 7,
          "unit": "g/dL",
          "code": "g/dL"
        },
        "referenceRange": [
          {
            "low": {
              "value": 6.6,
              "code": "g/dL",
              "system": "http://unitsofmeasure.org"
            }
          },
          {
            "high": {
              "value": 8.3,
              "code": "g/dL",
              "system": "http://unitsofmeasure.org"
            }
          }
        ],
        "text": {
          "status": "generated",
          "div": "<div xmlns=\"http://www.w3.org/1999/xhtml\"><table class=\"hl7__eu__lab__report\"><tr><th>Test</th><th>04-Jun-2025</th><th>Reference&#xA0;Range</th><th>Unit</th></tr><tr><td>Protein [Mass/volume] in Serum or Plasma</td><td>7.0</td><td>6.6 - 8.3</td><td></td><td>g/dL</td></tr></table></div>"
        },
        "status": "final",
        "subject": {
          "reference": "urn:uuid:c32f74ec-f559-4c50-be37-3c8de05bb2ce",
          "display": "Stephen Weinhage"
        },
        "effectiveDateTime": "2025-06-04T06:55:50Z"
      }
    },
    {
      "fullUrl": "urn:uuid:9c6fc5e5-677b-4b8d-b1c6-badb3e5d41f4",
      "resource": {
        "resourceType": "Observation",
        "id": "9c6fc5e5-677b-4b8d-b1c6-badb3e5d41f4",
        "meta": {
          "profile": [
            "http://hl7.eu/fhir/laboratory/StructureDefinition/Observation-resultslab-eu-lab"
          ]
        },
        "performer": [
          {
            "display": "The Central European Lab"
          }
        ],
        "category": [
          {
            "coding": [
              {
                "system": "http://terminology.hl7.org/CodeSystem/observation-category",
                "code": "laboratory"
              }
            ]
          }
        ],
        "code": {
          "coding": [
            {
              "code": "1751-7",
              "system": "http://loinc.org",
              "display": "Albumin [Mass/volume] in Serum or Plasma"
            }
          ],
          "text": "Albumin [Mass/volume] in Serum or Plasma"
        },
        "valueQuantity": {
          "system": "http://unitsofmeasure.org",
          "value": 4.7,
          "unit": "g/dL",
          "code": "g/dL"
        },
        "referenceRange": [
          {
            "low": {
              "value": 3.5,
              "code": "g/dL",
              "system": "http://unitsofmeasure.org"
            }
          },
          {
            "high": {
              "value": 5.5,
              "code": "g/dL",
              "system": "http://unitsofmeasure.org"
            }
          }
        ],
        "text": {
          "status": "generated",
          "div": "<div xmlns=\"http://www.w3.org/1999/xhtml\"><table class=\"hl7__eu__lab__report\"><tr><th>Test</th><th>04-Jun-2025</th><th>Reference&#xA0;Range</th><th>Unit</th></tr><tr><td>Albumin [Mass/volume] in Serum or Plasma</td><td>4.7</td><td>3.5 - 5.5</td><td></td><td>g/dL</td></tr></table></div>"
        },
        "status": "final",
        "subject": {
          "reference": "urn:uuid:c32f74ec-f559-4c50-be37-3c8de05bb2ce",
          "display": "Stephen Weinhage"
        },
        "effectiveDateTime": "2025-06-04T06:55:50Z"
      }
    },
    {
      "fullUrl": "urn:uuid:4dad3e56-11f5-4123-b991-134cc4760cf3",
      "resource": {
        "resourceType": "Observation",
        "id": "4dad3e56-11f5-4123-b991-134cc4760cf3",
        "meta": {
          "profile": [
            "http://hl7.eu/fhir/laboratory/StructureDefinition/Observation-resultslab-eu-lab"
          ]
        },
        "performer": [
          {
            "display": "The Central European Lab"
          }
        ],
        "category": [
          {
            "coding": [
              {
                "system": "http://terminology.hl7.org/CodeSystem/observation-category",
                "code": "laboratory"
              }
            ]
          }
        ],
        "code": {
          "coding": [
            {
              "code": "10834-0",
              "system": "http://loinc.org",
              "display": "Globulin [Mass/volume] in Serum by calculation"
            }
          ],
          "text": "Globulin [Mass/volume] in Serum by calculation"
        },
        "valueQuantity": {
          "system": "http://unitsofmeasure.org",
          "value": 3.4,
          "unit": "g/L",
          "code": "g/L"
        },
        "referenceRange": [
          {
            "low": {
              "value": 2,
              "code": "g/L",
              "system": "http://unitsofmeasure.org"
            }
          },
          {
            "high": {
              "value": 3.5,
              "code": "g/L",
              "system": "http://unitsofmeasure.org"
            }
          }
        ],
        "text": {
          "status": "generated",
          "div": "<div xmlns=\"http://www.w3.org/1999/xhtml\"><table class=\"hl7__eu__lab__report\"><tr><th>Test</th><th>04-Jun-2025</th><th>Reference&#xA0;Range</th><th>Unit</th></tr><tr><td>Globulin [Mass/volume] in Serum by calculation</td><td>3.4</td><td>2 - 3.5</td><td></td><td>g/L</td></tr></table></div>"
        },
        "status": "final",
        "subject": {
          "reference": "urn:uuid:c32f74ec-f559-4c50-be37-3c8de05bb2ce",
          "display": "Stephen Weinhage"
        },
        "effectiveDateTime": "2025-06-04T06:55:50Z"
      }
    },
    {
      "fullUrl": "urn:uuid:ef4de292-a788-4282-b79d-a4decf0c724f",
      "resource": {
        "resourceType": "Observation",
        "id": "ef4de292-a788-4282-b79d-a4decf0c724f",
        "meta": {
          "profile": [
            "http://hl7.eu/fhir/laboratory/StructureDefinition/Observation-resultslab-eu-lab"
          ]
        },
        "performer": [
          {
            "display": "The Central European Lab"
          }
        ],
        "category": [
          {
            "coding": [
              {
                "system": "http://terminology.hl7.org/CodeSystem/observation-category",
                "code": "laboratory"
              }
            ]
          }
        ],
        "code": {
          "coding": [
            {
              "code": "1975-2",
              "system": "http://loinc.org",
              "display": "Bilirubin.total [Mass/volume] in Serum or Plasma"
            }
          ],
          "text": "Bilirubin.total [Mass/volume] in Serum or Plasma"
        },
        "valueQuantity": {
          "system": "http://unitsofmeasure.org",
          "value": 1.1,
          "unit": "mg/dL",
          "code": "mg/dL"
        },
        "referenceRange": [
          {
            "low": {
              "value": 0.3,
              "code": "mg/dL",
              "system": "http://unitsofmeasure.org"
            }
          },
          {
            "high": {
              "value": 1.2,
              "code": "mg/dL",
              "system": "http://unitsofmeasure.org"
            }
          }
        ],
        "text": {
          "status": "generated",
          "div": "<div xmlns=\"http://www.w3.org/1999/xhtml\"><table class=\"hl7__eu__lab__report\"><tr><th>Test</th><th>04-Jun-2025</th><th>Reference&#xA0;Range</th><th>Unit</th></tr><tr><td>Bilirubin.total [Mass/volume] in Serum or Plasma</td><td>1.1</td><td>0.3 - 1.2</td><td></td><td>mg/dL</td></tr></table></div>"
        },
        "status": "final",
        "subject": {
          "reference": "urn:uuid:c32f74ec-f559-4c50-be37-3c8de05bb2ce",
          "display": "Stephen Weinhage"
        },
        "effectiveDateTime": "2025-06-04T06:55:50Z"
      }
    },
    {
      "fullUrl": "urn:uuid:9e1961e0-c7a4-47e4-a07e-36d9d4021cc1",
      "resource": {
        "resourceType": "Observation",
        "id": "9e1961e0-c7a4-47e4-a07e-36d9d4021cc1",
        "meta": {
          "profile": [
            "http://hl7.eu/fhir/laboratory/StructureDefinition/Observation-resultslab-eu-lab"
          ]
        },
        "performer": [
          {
            "display": "The Central European Lab"
          }
        ],
        "category": [
          {
            "coding": [
              {
                "system": "http://terminology.hl7.org/CodeSystem/observation-category",
                "code": "laboratory"
              }
            ]
          }
        ],
        "code": {
          "coding": [
            {
              "code": "6768-6",
              "system": "http://loinc.org",
              "display": "Alkaline phosphatase [Enzymatic activity/volume] in Serum or Plasma"
            }
          ],
          "text": "Alkaline phosphatase [Enzymatic activity/volume] in Serum or Plasma"
        },
        "valueQuantity": {
          "system": "http://unitsofmeasure.org",
          "value": 92.4,
          "unit": "U/L",
          "code": "U/L"
        },
        "referenceRange": [
          {
            "low": {
              "value": 53,
              "code": "U/L",
              "system": "http://unitsofmeasure.org"
            }
          },
          {
            "high": {
              "value": 130,
              "code": "U/L",
              "system": "http://unitsofmeasure.org"
            }
          }
        ],
        "text": {
          "status": "generated",
          "div": "<div xmlns=\"http://www.w3.org/1999/xhtml\"><table class=\"hl7__eu__lab__report\"><tr><th>Test</th><th>04-Jun-2025</th><th>Reference&#xA0;Range</th><th>Unit</th></tr><tr><td>Alkaline phosphatase [Enzymatic activity/volume] in Serum or Plasma</td><td>92.4</td><td>53 - 130</td><td></td><td>U/L</td></tr></table></div>"
        },
        "status": "final",
        "subject": {
          "reference": "urn:uuid:c32f74ec-f559-4c50-be37-3c8de05bb2ce",
          "display": "Stephen Weinhage"
        },
        "effectiveDateTime": "2025-06-04T06:55:50Z"
      }
    },
    {
      "fullUrl": "urn:uuid:48210133-b7f3-4f2f-b176-d6c51a6e1018",
      "resource": {
        "resourceType": "Observation",
        "id": "48210133-b7f3-4f2f-b176-d6c51a6e1018",
        "meta": {
          "profile": [
            "http://hl7.eu/fhir/laboratory/StructureDefinition/Observation-resultslab-eu-lab"
          ]
        },
        "performer": [
          {
            "display": "The Central European Lab"
          }
        ],
        "category": [
          {
            "coding": [
              {
                "system": "http://terminology.hl7.org/CodeSystem/observation-category",
                "code": "laboratory"
              }
            ]
          }
        ],
        "code": {
          "coding": [
            {
              "code": "1742-6",
              "system": "http://loinc.org",
              "display": "Alanine aminotransferase [Enzymatic activity/volume] in Serum or Plasma"
            }
          ],
          "text": "Alanine aminotransferase [Enzymatic activity/volume] in Serum or Plasma"
        },
        "valueQuantity": {
          "system": "http://unitsofmeasure.org",
          "value": 36.1,
          "unit": "U/L",
          "code": "U/L"
        },
        "referenceRange": [
          {
            "low": {
              "value": 7,
              "code": "U/L",
              "system": "http://unitsofmeasure.org"
            }
          },
          {
            "high": {
              "value": 60,
              "code": "U/L",
              "system": "http://unitsofmeasure.org"
            }
          }
        ],
        "text": {
          "status": "generated",
          "div": "<div xmlns=\"http://www.w3.org/1999/xhtml\"><table class=\"hl7__eu__lab__report\"><tr><th>Test</th><th>04-Jun-2025</th><th>Reference&#xA0;Range</th><th>Unit</th></tr><tr><td>Alanine aminotransferase [Enzymatic activity/volume] in Serum or Plasma</td><td>36.1</td><td>7 - 60</td><td></td><td>U/L</td></tr></table></div>"
        },
        "status": "final",
        "subject": {
          "reference": "urn:uuid:c32f74ec-f559-4c50-be37-3c8de05bb2ce",
          "display": "Stephen Weinhage"
        },
        "effectiveDateTime": "2025-06-04T06:55:50Z"
      }
    },
    {
      "fullUrl": "urn:uuid:90820b5e-6a98-4398-b95b-92704007f109",
      "resource": {
        "resourceType": "Observation",
        "id": "90820b5e-6a98-4398-b95b-92704007f109",
        "meta": {
          "profile": [
            "http://hl7.eu/fhir/laboratory/StructureDefinition/Observation-resultslab-eu-lab"
          ]
        },
        "performer": [
          {
            "display": "The Central European Lab"
          }
        ],
        "category": [
          {
            "coding": [
              {
                "system": "http://terminology.hl7.org/CodeSystem/observation-category",
                "code": "laboratory"
              }
            ]
          }
        ],
        "code": {
          "coding": [
            {
              "code": "1920-8",
              "system": "http://loinc.org",
              "display": "Aspartate aminotransferase [Enzymatic activity/volume] in Serum or Plasma"
            }
          ],
          "text": "Aspartate aminotransferase [Enzymatic activity/volume] in Serum or Plasma"
        },
        "valueQuantity": {
          "system": "http://unitsofmeasure.org",
          "value": 28.3,
          "unit": "U/L",
          "code": "U/L"
        },
        "referenceRange": [
          {
            "low": {
              "value": 10,
              "code": "U/L",
              "system": "http://unitsofmeasure.org"
            }
          },
          {
            "high": {
              "value": 49,
              "code": "U/L",
              "system": "http://unitsofmeasure.org"
            }
          }
        ],
        "text": {
          "status": "generated",
          "div": "<div xmlns=\"http://www.w3.org/1999/xhtml\"><table class=\"hl7__eu__lab__report\"><tr><th>Test</th><th>04-Jun-2025</th><th>Reference&#xA0;Range</th><th>Unit</th></tr><tr><td>Aspartate aminotransferase [Enzymatic activity/volume] in Serum or Plasma</td><td>28.3</td><td>10 - 49</td><td></td><td>U/L</td></tr></table></div>"
        },
        "status": "final",
        "subject": {
          "reference": "urn:uuid:c32f74ec-f559-4c50-be37-3c8de05bb2ce",
          "display": "Stephen Weinhage"
        },
        "effectiveDateTime": "2025-06-04T06:55:50Z"
      }
    },
    {
      "fullUrl": "urn:uuid:0a0bf042-b1f8-47a1-bb16-e9a36f1f0035",
      "resource": {
        "resourceType": "Observation",
        "id": "0a0bf042-b1f8-47a1-bb16-e9a36f1f0035",
        "meta": {
          "profile": [
            "http://hl7.eu/fhir/laboratory/StructureDefinition/Observation-resultslab-eu-lab"
          ]
        },
        "performer": [
          {
            "display": "The Central European Lab"
          }
        ],
        "category": [
          {
            "coding": [
              {
                "system": "http://terminology.hl7.org/CodeSystem/observation-category",
                "code": "laboratory"
              }
            ]
          }
        ],
        "code": {
          "coding": [
            {
              "code": "2093-3",
              "system": "http://loinc.org",
              "display": "Cholesterol [Mass/volume] in Serum or Plasma"
            }
          ],
          "text": "Cholesterol [Mass/volume] in Serum or Plasma"
        },
        "valueQuantity": {
          "system": "http://unitsofmeasure.org",
          "value": 177.6,
          "unit": "mg/dL",
          "code": "mg/dL"
        },
        "referenceRange": [
          {
            "low": {
              "value": 125,
              "code": "mg/dL",
              "system": "http://unitsofmeasure.org"
            }
          },
          {
            "high": {
              "value": 200,
              "code": "mg/dL",
              "system": "http://unitsofmeasure.org"
            }
          }
        ],
        "text": {
          "status": "generated",
          "div": "<div xmlns=\"http://www.w3.org/1999/xhtml\"><table class=\"hl7__eu__lab__report\"><tr><th>Test</th><th>04-Jun-2025</th><th>Reference&#xA0;Range</th><th>Unit</th></tr><tr><td>Cholesterol [Mass/volume] in Serum or Plasma</td><td>177.6</td><td>125 - 200</td><td></td><td>mg/dL</td></tr></table></div>"
        },
        "status": "final",
        "subject": {
          "reference": "urn:uuid:c32f74ec-f559-4c50-be37-3c8de05bb2ce",
          "display": "Stephen Weinhage"
        },
        "effectiveDateTime": "2025-06-04T06:55:50Z"
      }
    },
    {
      "fullUrl": "urn:uuid:07784e2d-f30e-4b00-9a29-4d2471ec9c9b",
      "resource": {
        "resourceType": "Observation",
        "id": "07784e2d-f30e-4b00-9a29-4d2471ec9c9b",
        "meta": {
          "profile": [
            "http://hl7.eu/fhir/laboratory/StructureDefinition/Observation-resultslab-eu-lab"
          ]
        },
        "performer": [
          {
            "display": "The Central European Lab"
          }
        ],
        "category": [
          {
            "coding": [
              {
                "system": "http://terminology.hl7.org/CodeSystem/observation-category",
                "code": "laboratory"
              }
            ]
          }
        ],
        "code": {
          "coding": [
            {
              "code": "2571-8",
              "system": "http://loinc.org",
              "display": "Triglyceride [Mass/volume] in Serum or Plasma"
            }
          ],
          "text": "Triglyceride [Mass/volume] in Serum or Plasma"
        },
        "valueQuantity": {
          "system": "http://unitsofmeasure.org",
          "value": 175.5,
          "unit": "mg/dL",
          "code": "mg/dL"
        },
        "referenceRange": [
          {
            "low": {
              "value": 40,
              "code": "mg/dL",
              "system": "http://unitsofmeasure.org"
            }
          },
          {
            "high": {
              "value": 150,
              "code": "mg/dL",
              "system": "http://unitsofmeasure.org"
            }
          }
        ],
        "interpretation": [
          {
            "coding": [
              {
                "code": "H",
                "system": "http://terminology.hl7.org/CodeSystem/v3-ObservationInterpretation",
                "display": "High"
              }
            ]
          }
        ],
        "text": {
          "status": "generated",
          "div": "<div xmlns=\"http://www.w3.org/1999/xhtml\"><table class=\"hl7__eu__lab__report\"><tr><th>Test</th><th>04-Jun-2025</th><th>Reference&#xA0;Range</th><th>Unit</th></tr><tr><td>Triglyceride [Mass/volume] in Serum or Plasma</td><td>175.5</td><td>40 - 150</td><td>H</td><td>mg/dL</td></tr></table></div>"
        },
        "status": "final",
        "subject": {
          "reference": "urn:uuid:c32f74ec-f559-4c50-be37-3c8de05bb2ce",
          "display": "Stephen Weinhage"
        },
        "effectiveDateTime": "2025-06-04T06:55:50Z"
      }
    },
    {
      "fullUrl": "urn:uuid:9879d1cf-50ba-4540-b721-b856f718e0b7",
      "resource": {
        "resourceType": "Observation",
        "id": "9879d1cf-50ba-4540-b721-b856f718e0b7",
        "meta": {
          "profile": [
            "http://hl7.eu/fhir/laboratory/StructureDefinition/Observation-resultslab-eu-lab"
          ]
        },
        "performer": [
          {
            "display": "The Central European Lab"
          }
        ],
        "category": [
          {
            "coding": [
              {
                "system": "http://terminology.hl7.org/CodeSystem/observation-category",
                "code": "laboratory"
              }
            ]
          }
        ],
        "code": {
          "coding": [
            {
              "code": "18262-6",
              "system": "http://loinc.org",
              "display": "Cholesterol in LDL [Mass/volume] in Serum or Plasma by Direct assay"
            }
          ],
          "text": "Cholesterol in LDL [Mass/volume] in Serum or Plasma by Direct assay"
        },
        "valueQuantity": {
          "system": "http://unitsofmeasure.org",
          "value": 93.9,
          "unit": "mg/dL",
          "code": "mg/dL"
        },
        "referenceRange": [
          {
            "low": {
              "value": 0,
              "code": "mg/dL",
              "system": "http://unitsofmeasure.org"
            }
          },
          {
            "high": {
              "value": 190,
              "code": "mg/dL",
              "system": "http://unitsofmeasure.org"
            }
          }
        ],
        "text": {
          "status": "generated",
          "div": "<div xmlns=\"http://www.w3.org/1999/xhtml\"><table class=\"hl7__eu__lab__report\"><tr><th>Test</th><th>04-Jun-2025</th><th>Reference&#xA0;Range</th><th>Unit</th></tr><tr><td>Cholesterol in LDL [Mass/volume] in Serum or Plasma by Direct assay</td><td>93.9</td><td>0 - 190</td><td></td><td>mg/dL</td></tr></table></div>"
        },
        "status": "final",
        "subject": {
          "reference": "urn:uuid:c32f74ec-f559-4c50-be37-3c8de05bb2ce",
          "display": "Stephen Weinhage"
        },
        "effectiveDateTime": "2025-06-04T06:55:50Z"
      }
    },
    {
      "fullUrl": "urn:uuid:01da51d4-4dbc-4b68-bfca-0178f3a1e6cb",
      "resource": {
        "resourceType": "Observation",
        "id": "01da51d4-4dbc-4b68-bfca-0178f3a1e6cb",
        "meta": {
          "profile": [
            "http://hl7.eu/fhir/laboratory/StructureDefinition/Observation-resultslab-eu-lab"
          ]
        },
        "performer": [
          {
            "display": "The Central European Lab"
          }
        ],
        "category": [
          {
            "coding": [
              {
                "system": "http://terminology.hl7.org/CodeSystem/observation-category",
                "code": "laboratory"
              }
            ]
          }
        ],
        "code": {
          "coding": [
            {
              "code": "2085-9",
              "system": "http://loinc.org",
              "display": "Cholesterol in HDL [Mass/volume] in Serum or Plasma"
            }
          ],
          "text": "Cholesterol in HDL [Mass/volume] in Serum or Plasma"
        },
        "valueQuantity": {
          "system": "http://unitsofmeasure.org",
          "value": 42.6,
          "unit": "mg/dL",
          "code": "mg/dL"
        },
        "referenceRange": [
          {
            "low": {
              "value": 40,
              "code": "mg/dL",
              "system": "http://unitsofmeasure.org"
            }
          },
          {
            "high": {
              "value": 60,
              "code": "mg/dL",
              "system": "http://unitsofmeasure.org"
            }
          }
        ],
        "text": {
          "status": "generated",
          "div": "<div xmlns=\"http://www.w3.org/1999/xhtml\"><table class=\"hl7__eu__lab__report\"><tr><th>Test</th><th>04-Jun-2025</th><th>Reference&#xA0;Range</th><th>Unit</th></tr><tr><td>Cholesterol in HDL [Mass/volume] in Serum or Plasma</td><td>42.6</td><td>40 - 60</td><td></td><td>mg/dL</td></tr></table></div>"
        },
        "status": "final",
        "subject": {
          "reference": "urn:uuid:c32f74ec-f559-4c50-be37-3c8de05bb2ce",
          "display": "Stephen Weinhage"
        },
        "effectiveDateTime": "2025-06-04T06:55:50Z"
      }
    },
    {
      "fullUrl": "urn:uuid:26481638-a01d-4ab1-a4e2-c7cacfb3bab3",
      "resource": {
        "resourceType": "DeviceUseStatement",
        "id": "26481638-a01d-4ab1-a4e2-c7cacfb3bab3",
        "meta": {
          "profile": [
            "http://hl7.eu/fhir/eps/StructureDefinition/deviceUseStatement-eu-eps"
          ]
        },
        "timingPeriod": {
          "start": "1977-03-07"
        },
        "text": {
          "status": "generated",
          "div": "<div xmlns=\"http://www.w3.org/1999/xhtml\"><table class=\"hl7__ips\"><tr><td>Blood glucose meter (physical object)</td><td><span class=\"nb\">07-Mar-1977</span></td></tr></table></div>"
        },
        "status": "active",
        "device": {
          "reference": "urn:uuid:85d08f7f-91f7-4846-97d3-12da521377c2",
          "display": "Blood glucose meter (physical object)"
        },
        "subject": {
          "reference": "urn:uuid:c32f74ec-f559-4c50-be37-3c8de05bb2ce",
          "display": "Stephen Weinhage"
        }
      }
    },
    {
      "fullUrl": "urn:uuid:85d08f7f-91f7-4846-97d3-12da521377c2",
      "resource": {
        "resourceType": "Device",
        "id": "85d08f7f-91f7-4846-97d3-12da521377c2",
        "meta": {
          "profile": [
            "http://hl7.eu/fhir/eps/StructureDefinition/device-eu-eps"
          ]
        },
        "udiCarrier": [
          {
            "id": "(01)40498687027769(11)770214(17)020301(10)43371(21)7459196"
          }
        ],
        "status": "active",
        "patient": {
          "reference": "urn:uuid:c32f74ec-f559-4c50-be37-3c8de05bb2ce",
          "display": "Stephen Weinhage"
        },
        "type": {
          "coding": [
            {
              "code": "337414009",
              "system": "http://snomed.info/sct",
              "display": "Blood glucose meter (physical object)"
            }
          ]
        }
      }
    },
    {
      "fullUrl": "urn:uuid:8284182f-0821-4e84-a6bf-ad11a2a84b54",
      "resource": {
        "resourceType": "DeviceUseStatement",
        "id": "8284182f-0821-4e84-a6bf-ad11a2a84b54",
        "meta": {
          "profile": [
            "http://hl7.eu/fhir/eps/StructureDefinition/deviceUseStatement-eu-eps"
          ]
        },
        "timingPeriod": {
          "start": "1972-08-28"
        },
        "text": {
          "status": "generated",
          "div": "<div xmlns=\"http://www.w3.org/1999/xhtml\"><table class=\"hl7__ips\"><tr><td>Home nebulizer (physical object)</td><td><span class=\"nb\">28-Aug-1972</span></td></tr></table></div>"
        },
        "status": "active",
        "device": {
          "reference": "urn:uuid:ea06cb8e-8c1e-424e-83b3-687a9897f648",
          "display": "Home nebulizer (physical object)"
        },
        "subject": {
          "reference": "urn:uuid:c32f74ec-f559-4c50-be37-3c8de05bb2ce",
          "display": "Stephen Weinhage"
        }
      }
    },
    {
      "fullUrl": "urn:uuid:ea06cb8e-8c1e-424e-83b3-687a9897f648",
      "resource": {
        "resourceType": "Device",
        "id": "ea06cb8e-8c1e-424e-83b3-687a9897f648",
        "meta": {
          "profile": [
            "http://hl7.eu/fhir/eps/StructureDefinition/device-eu-eps"
          ]
        },
        "udiCarrier": [
          {
            "id": "(01)15923306300454(11)720807(17)970822(10)331629086855066152(21)5621"
          }
        ],
        "status": "active",
        "patient": {
          "reference": "urn:uuid:c32f74ec-f559-4c50-be37-3c8de05bb2ce",
          "display": "Stephen Weinhage"
        },
        "type": {
          "coding": [
            {
              "code": "170615005",
              "system": "http://snomed.info/sct",
              "display": "Home nebulizer (physical object)"
            }
          ]
        }
      }
    },
    {
      "fullUrl": "urn:uuid:52f78ffc-116b-4474-953f-3e85f0e96c8c",
      "resource": {
        "resourceType": "Device",
        "id": "52f78ffc-116b-4474-953f-3e85f0e96c8c",
        "deviceName": [
          {
            "name": "SYNDERAI Synthetic Generator",
            "type": "manufacturer-name"
          }
        ],
        "version": [
          {
            "value": "5.0"
          }
        ],
        "text": {
          "status": "generated",
          "div": "<div xmlns=\"http://www.w3.org/1999/xhtml\">SYNDERAI Synthetic Generator v5.0</div>"
        },
        "status": "active\"",
        "distinctIdentifier": "synderai-generator-50",
        "manufacturer": "SYNDERAI Project"
      }
    },
    {
      "fullUrl": "urn:uuid:b2d37d53-e92c-4a3d-b3ca-9e3f290d10b5",
      "resource": {
        "resourceType": "Provenance",
        "id": "b2d37d53-e92c-4a3d-b3ca-9e3f290d10b5",
        "target": [
          {
            "reference": "Patient/c32f74ec-f559-4c50-be37-3c8de05bb2ce"
          },
          {
            "reference": "Bundle/abad48b1-2e29-4e19-8fb8-33d9862fe9f9"
          },
          {
            "reference": "Composition/923e9124-80f2-4ece-bf51-dea9d36b4d54"
          },
          {
            "reference": "PractitionerRole/097bfa50-f478-479d-817d-d0ed39591b15"
          },
          {
            "reference": "Organization/414443e5-df5a-4636-ba4f-d48f5132c439"
          },
          {
            "reference": "Practitioner/fe472899-b1fd-4c66-ba06-ad2971712b5a"
          }
        ],
        "activity": {
          "text": "Synthetic Example Data Generation"
        },
        "policy": [
          "https://synderai.net/synderai-synthetic-data-policy"
        ],
        "agent": [
          {
            "type": {
              "text": "author"
            },
            "who": {
              "reference": "Device/52f78ffc-116b-4474-953f-3e85f0e96c8c"
            }
          }
        ],
        "reason": [
          {
            "text": "Interoperability Testing and Training (non-clinical use)"
          }
        ],
        "text": {
          "status": "generated",
          "div": "<div xmlns=\"http://www.w3.org/1999/xhtml\">Provenance for SYNDERAI Synthetic Example Data Resource</div>"
        },
        "recorded": "2025-06-04T06:55:50Z"
      }
    }
  ],
  "type": "document",
  "timestamp": "2025-06-04T06:55:50Z"
}
