{
  "resourceType": "Bundle",
  "id": "3f901372-6cdb-4033-918a-7e45c704d619",
  "meta": {
    "profile": [
      "http://hl7.eu/fhir/eps/StructureDefinition/bundle-eu-eps"
    ]
  },
  "identifier": {
    "assigner": {
      "display": "HL7 Europe"
    },
    "system": "urn:oid:2.16.840.1.113883.2.51.999",
    "value": "d4c1b974-3c3b-43e2-b6a1-2f880f034844"
  },
  "entry": [
    {
      "fullUrl": "urn:uuid:f8bd5811-768b-4c7d-83e3-86d192996fed",
      "resource": {
        "resourceType": "Composition",
        "id": "f8bd5811-768b-4c7d-83e3-86d192996fed",
        "meta": {
          "security": [
            {
              "system": "http://terminology.hl7.org/CodeSystem/v3-ActReason",
              "code": "HTEST"
            },
            {
              "system": "http://terminology.hl7.org/CodeSystem/v3-ActReason",
              "code": "TRAIN"
            }
          ],
          "tag": [
            {
              "system": "https://synderai.net/fhir/CodeSystem/tags",
              "code": "synthetic",
              "display": "SYNDERAI Synthetic data"
            }
          ],
          "profile": [
            "http://hl7.eu/fhir/eps/StructureDefinition/composition-eu-eps"
          ]
        },
        "identifier": {
          "assigner": {
            "display": "HL7 Europe"
          },
          "system": "urn:oid:2.16.840.1.113883.2.51.999",
          "value": "2f5daa17-74e1-4b6f-86d4-ac762524c78a"
        },
        "type": {
          "coding": [
            {
              "system": "http://loinc.org",
              "code": "60591-5",
              "display": "Patient summary Document"
            }
          ],
          "text": "Patient summary Document"
        },
        "author": [
          {
            "reference": "urn:uuid:d3f90690-5754-487c-ad53-f0c6cff9eeeb"
          }
        ],
        "section": [
          {
            "text": {
              "status": "generated",
              "div": "<div xmlns=\"http://www.w3.org/1999/xhtml\"><table class=\"hl7__ips\"><tr><th>Condition</th><th>Onset Date</th><th>Status</th></tr><tr><td>Osteoporosis</td><td><span class=\"nb\">30-Jan-2019</span></td><td>active</td></tr><tr><td>Dependent drug abuse</td><td><span class=\"nb\">09-Jun-2006</span></td><td>active</td></tr><tr><td>Prediabetes</td><td><span class=\"nb\">05-Dec-1973</span></td><td>active</td></tr></table></div>"
            },
            "entry": [
              {
                "reference": "urn:uuid:705eae66-22ab-431b-aff8-5ecdd2399b5f"
              },
              {
                "reference": "urn:uuid:0d04b5af-1808-434e-862e-da4ef696dfb4"
              },
              {
                "reference": "urn:uuid:555ffab1-c3eb-4bed-97f3-2dbb3c5a08d6"
              }
            ],
            "code": {
              "coding": [
                {
                  "system": "http://loinc.org",
                  "code": "11450-4",
                  "display": "Problem list - Reported"
                }
              ]
            },
            "title": "Problem list"
          },
          {
            "text": {
              "status": "generated",
              "div": "<div xmlns=\"http://www.w3.org/1999/xhtml\"><table class=\"hl7__ips\"><tr><th>Medication</th><th>Since</th><th>Form</th><th>Dosage</th><th>Reason</th></tr><tr><td>Alendronic acid (as alendronate sodium) 10 mg oral tablet</td><td><span class=\"nb\">2025-03-05</span></td><td>-</td><td>1 tablet (10 mg) once daily</td><td>Osteoporosis (disorder)</td></tr><tr><td>Acetaminophen 300 mg and hydrocodone bitartrate 5 mg oral tablet</td><td><span class=\"nb\">2014-03-18</span></td><td>-</td><td>1 tablet (300 mg/5 mg) by mouth every 4 to 6 hours as needed for pain</td><td>-</td></tr><tr><td>Vitamin B12 5 MG/ML Injectable Solution</td><td><span class=\"nb\">1974-10-02</span></td><td>-</td><td>1 mL (5 mg) intramuscularly once weekly</td><td>-</td></tr></table></div>"
            },
            "entry": [
              {
                "reference": "urn:uuid:7780aa46-9ea6-4c4f-bf00-189ae8a46c18"
              },
              {
                "reference": "urn:uuid:9f3d20f8-aaa3-4d01-8e6b-90985c8ed106"
              },
              {
                "reference": "urn:uuid:b65e7068-d7d1-42b1-ae30-3ddf4ffd8f1b"
              }
            ],
            "code": {
              "coding": [
                {
                  "system": "http://loinc.org",
                  "code": "10160-0",
                  "display": "History of Medication use Narrative"
                }
              ]
            },
            "title": "Medication list"
          },
          {
            "text": {
              "status": "generated",
              "div": "<div xmlns=\"http://www.w3.org/1999/xhtml\"><table class=\"hl7__ips\"><tr><th>Vaccine</th><th>Date</th></tr><tr><td>Influenza virus antigen only vaccine product</td><td><span class=\"nb\">05-Mar-2025</span></td></tr><tr><td>Clostridium tetani toxoid antigen adsorbed only vaccine product</td><td><span class=\"nb\">05-Feb-2020</span></td></tr></table></div>"
            },
            "entry": [
              {
                "reference": "urn:uuid:5bc1fc50-8eb8-4874-9ba0-56e793fb7ae5"
              },
              {
                "reference": "urn:uuid:5048203e-45e4-46e3-99fc-013108d83999"
              }
            ],
            "code": {
              "coding": [
                {
                  "system": "http://loinc.org",
                  "code": "11369-6",
                  "display": "History of Immunization note"
                }
              ]
            },
            "title": "Immunizations list"
          },
          {
            "text": {
              "status": "generated",
              "div": "<div xmlns=\"http://www.w3.org/1999/xhtml\"><table class=\"hl7__ips\"><tr><th>Procedure</th><th>Date</th><th>Reason</th></tr><tr><td>Depression screening</td><td><span class=\"nb\">05-Jul-2023</span></td><td>-</td></tr><tr><td>Assessment of health and social care needs</td><td><span class=\"nb\">05-Jul-2023</span></td><td>-</td></tr><tr><td>Assessment using Morse Fall Scale</td><td><span class=\"nb\">05-Jul-2023</span></td><td>-</td></tr><tr><td>Screening for domestic abuse</td><td><span class=\"nb\">05-Jul-2023</span></td><td>-</td></tr><tr><td>Depression screening using Patient Health Questionnaire Two-Item score (procedure)</td><td><span class=\"nb\">05-Jul-2023</span></td><td>-</td></tr></table></div>"
            },
            "entry": [
              {
                "reference": "urn:uuid:4cbb8517-2228-4abe-8751-894f48b90992"
              },
              {
                "reference": "urn:uuid:18de8c86-4273-4cb7-895b-0965408b6170"
              },
              {
                "reference": "urn:uuid:39e8e7bd-1159-4fca-b5d2-1b4a7d6fbe73"
              },
              {
                "reference": "urn:uuid:c924f7ec-de84-49ea-bb2e-62619dba290a"
              },
              {
                "reference": "urn:uuid:4fb90645-1c82-4ecb-a9ee-e17f678172cb"
              }
            ],
            "code": {
              "coding": [
                {
                  "system": "http://loinc.org",
                  "code": "47519-4",
                  "display": "History of Procedures Document"
                }
              ]
            },
            "title": "Procedure History list"
          },
          {
            "text": {
              "status": "generated",
              "div": "<div xmlns=\"http://www.w3.org/1999/xhtml\"><table class=\"hl7__ips\"><tr><th>Allergy/Intolerance</th><th>Onset Date</th><th>Status</th><th>Type</th><th>Reaction</th></tr><tr><td></td><td>?</td><td>active</td><td>?</td><td></td></tr></table></div>"
            },
            "entry": [
              {
                "reference": "urn:uuid:12bec645-731d-443c-93f5-b333d2551457"
              }
            ],
            "code": {
              "coding": [
                {
                  "system": "http://loinc.org",
                  "code": "48765-2",
                  "display": "Allergies and adverse reactions Document"
                }
              ]
            },
            "title": "Allergies and Intolerances"
          },
          {
            "text": {
              "status": "generated",
              "div": "<div xmlns=\"http://www.w3.org/1999/xhtml\"><table class=\"hl7__ips\"><tr><th>Active Planned Care / Goals</th><th>Start Date</th><th>Reason</th></tr><tr><td>Therapy</td><td><span class=\"nb\">18-Mar-2014</span></td><td>-</td></tr><tr><td>Care plan</td><td><span class=\"nb\">05-May-2009</span></td><td>-</td></tr><tr><td>Diabetes self management plan</td><td><span class=\"nb\">05-Dec-1973</span></td><td>Prediabetes</td></tr><tr><td><ul><li>Patient will implement and maintain a diabetes self-management plan to reduce risk of progression to diabetes.</li></ul></td><td></td><td></td></tr><tr><th>Immunization Recommendation</th><th>Due Date</th><th>Reason</th></tr><tr><td>Vaccine product containing only Influenza virus antigen (medicinal product)</td><td><span class=\"nb\">01-Oct-2025</span></td><td>Annual seasonal influenza vaccination</td></tr></table></div>"
            },
            "entry": [
              {
                "reference": "urn:uuid:1e7f12e2-2bfd-4f74-811e-3006d248dd27"
              },
              {
                "reference": "urn:uuid:6af53a31-e89b-4dad-a87f-f9871921078c"
              },
              {
                "reference": "urn:uuid:b36e4261-98f3-4869-9aef-ae8ee6d7179c"
              },
              {
                "reference": "urn:uuid:478121ab-3f82-49f4-9ce2-0deac74f137f"
              }
            ],
            "code": {
              "coding": [
                {
                  "system": "http://loinc.org",
                  "code": "18776-5",
                  "display": "Plan of care note"
                }
              ]
            },
            "title": "Care Plan"
          },
          {
            "text": {
              "status": "generated",
              "div": "<div xmlns=\"http://www.w3.org/1999/xhtml\"><table class=\"hl7__ips\"><tr><th>Vital Signs</th><th>2025-03-05</th><th>2024-02-28</th></tr><tr><td>Body Height</td><td>160.8 cm</td><td>160.8 cm</td></tr><tr><td>Pain severity - 0-10 verbal numeric rating [Score] - Reported</td><td>1 {score}</td><td>2 {score}</td></tr><tr><td>Body Weight</td><td>75.6 kg</td><td>74.1 kg</td></tr><tr><td>Body mass index (BMI) [Ratio]</td><td>29.2 kg/m2</td><td>28.7 kg/m2</td></tr><tr><td>Diastolic Blood Pressure</td><td>81 mm[Hg]</td><td>82 mm[Hg]</td></tr><tr><td>Systolic Blood Pressure</td><td>106 mm[Hg]</td><td>112 mm[Hg]</td></tr><tr><td>Heart rate</td><td>77 /min</td><td>71 /min</td></tr><tr><td>Respiratory rate</td><td>13 /min</td><td>14 /min</td></tr></table></div>"
            },
            "entry": [
              {
                "reference": "urn:uuid:62ec486e-d009-4c6b-9394-4eabec71acf1"
              },
              {
                "reference": "urn:uuid:d4554bb6-8965-4706-bb57-e98d508f7107"
              },
              {
                "reference": "urn:uuid:caa1f0e0-fe0c-4848-9902-548e5be8faf7"
              },
              {
                "reference": "urn:uuid:97264665-8392-4bad-9f6c-f5371bd72068"
              },
              {
                "reference": "urn:uuid:f5eda9e5-f15a-4cb3-acfb-174de6a4bd3b"
              },
              {
                "reference": "urn:uuid:d8bfa896-a32b-40e9-a7a2-a3303b3a10d4"
              },
              {
                "reference": "urn:uuid:8fc14e3b-3d85-4db4-b786-f6a83737301b"
              },
              {
                "reference": "urn:uuid:c37f1c4e-7641-4a3d-b442-a3bbc0ca25b7"
              },
              {
                "reference": "urn:uuid:cea7fbba-7ab6-45b3-97e8-3bbe373ccdb6"
              },
              {
                "reference": "urn:uuid:fb3a3603-2161-4726-a84b-fec8af07ca9e"
              },
              {
                "reference": "urn:uuid:1c671ad7-e9f5-43e6-be6d-cbf960097475"
              },
              {
                "reference": "urn:uuid:2fadc43c-aeae-44f6-941a-6b9a874d1512"
              },
              {
                "reference": "urn:uuid:fc984221-08b6-4721-89ce-e4739b7097e1"
              },
              {
                "reference": "urn:uuid:f8352978-cf44-4397-baf2-4a10656d18d3"
              },
              {
                "reference": "urn:uuid:5d8d0c74-43f9-472f-b69b-29563c8842b8"
              },
              {
                "reference": "urn:uuid:0d6eafa3-a787-454f-a41c-5c9a5cf99f7f"
              }
            ],
            "code": {
              "coding": [
                {
                  "system": "http://loinc.org",
                  "code": "8716-3",
                  "display": "Vital signs note"
                }
              ]
            },
            "title": "Vital Signs"
          },
          {
            "text": {
              "status": "generated",
              "div": "<div xmlns=\"http://www.w3.org/1999/xhtml\"><table class=\"hl7__ips\"><table class=\"hl7__ips\"><thead><tr><th>Recent Lab Observations</th><th>05-MAR-2025</th><th>Reference&#xA0;Range</th><th>Unit</th></tr></thead><tbody><tr><td>Hemoglobin A1c/Hemoglobin.total in Blood</td><td><strong>6.3 H</strong></td><td>4 - 6</td><td>%</td></tr><tr><td>Glucose [Mass/volume] in Blood</td><td>88.8</td><td>70 - 140</td><td>mg/dL</td></tr><tr><td>Urea nitrogen [Mass/volume] in Blood</td><td>7.8</td><td>7 - 50</td><td>mg/dL</td></tr><tr><td>Creatinine [Mass/volume] in Blood</td><td>0.6</td><td>0.5 - 1.3</td><td>mg/dL</td></tr><tr><td>Calcium [Mass/volume] in Blood</td><td>10.0</td><td>8.5 - 10.4</td><td>mg/dL</td></tr><tr><td>Sodium [Moles/volume] in Blood</td><td>142.1</td><td>135 - 145</td><td>mmol/L</td></tr><tr><td>Potassium [Moles/volume] in Blood</td><td>4.8</td><td>3.5 - 5.3</td><td>mmol/L</td></tr><tr><td>Chloride [Moles/volume] in Blood</td><td>103.4</td><td>98 - 110</td><td>mmol/L</td></tr><tr><td>Carbon dioxide, total [Moles/volume] in Blood</td><td>24.6</td><td>22 - 32</td><td>mmol/L</td></tr></tbody></table></table></div>"
            },
            "entry": [
              {
                "reference": "urn:uuid:8bc620b5-a9f1-4351-965e-84e16dd8d649"
              },
              {
                "reference": "urn:uuid:e8192576-9f07-4254-af10-88c505d05d93"
              },
              {
                "reference": "urn:uuid:5feff4d5-9649-45b7-ad31-436bcae5a447"
              },
              {
                "reference": "urn:uuid:ff290f4a-7eba-48de-9114-16966326d766"
              },
              {
                "reference": "urn:uuid:bc567b87-c950-4055-bbae-b34ea17772ff"
              },
              {
                "reference": "urn:uuid:26cf85a2-d16b-412c-9f06-9d48142b3ec1"
              },
              {
                "reference": "urn:uuid:9d149d55-303e-43a9-ac54-5f1331132c14"
              },
              {
                "reference": "urn:uuid:cc7265e4-907c-49c5-beae-ecb660b0c3a8"
              },
              {
                "reference": "urn:uuid:020400f9-01e0-41d8-8d61-81d671aac6a6"
              }
            ],
            "code": {
              "coding": [
                {
                  "system": "http://loinc.org",
                  "code": "30954-2",
                  "display": "Relevant diagnostic tests/laboratory data note"
                }
              ]
            },
            "title": "Relevant diagnostic tests/laboratory data"
          },
          {
            "text": {
              "status": "generated",
              "div": "<div xmlns=\"http://www.w3.org/1999/xhtml\"><table class=\"hl7__ips\"><tr><th>Device</th><th>Date (since)</th></tr><tr><td>Blood glucose meter (physical object)</td><td><span class=\"nb\">05-Dec-1973</span></td></tr></table></div>"
            },
            "entry": [
              {
                "reference": "urn:uuid:a5107fde-2a28-4949-8fd4-c556d0529b97"
              }
            ],
            "code": {
              "coding": [
                {
                  "system": "http://loinc.org",
                  "code": "46264-8",
                  "display": "History of medical device use"
                }
              ]
            },
            "title": "Device Use"
          }
        ],
        "title": "European Patient Summary",
        "status": "final",
        "subject": {
          "reference": "urn:uuid:bcef1bb7-bb27-45c9-82a0-86d5a256e93d",
          "display": "Jele Jurković"
        },
        "custodian": {
          "reference": "urn:uuid:a2f91b0f-3092-4048-9498-4e73153252b7"
        },
        "date": "2025-03-05",
        "confidentiality": "N"
      }
    },
    {
      "fullUrl": "urn:uuid:bcef1bb7-bb27-45c9-82a0-86d5a256e93d",
      "resource": {
        "resourceType": "Patient",
        "id": "bcef1bb7-bb27-45c9-82a0-86d5a256e93d",
        "meta": {
          "security": [
            {
              "system": "http://terminology.hl7.org/CodeSystem/v3-ActReason",
              "code": "HTEST"
            },
            {
              "system": "http://terminology.hl7.org/CodeSystem/v3-ActReason",
              "code": "TRAIN"
            }
          ],
          "tag": [
            {
              "system": "https://synderai.net/fhir/CodeSystem/tags",
              "code": "synthetic",
              "display": "SYNDERAI Synthetic data"
            }
          ],
          "profile": [
            "http://hl7.eu/fhir/eps/StructureDefinition/patient-eu-eps"
          ]
        },
        "identifier": [
          {
            "type": {
              "coding": [
                {
                  "code": "PT",
                  "system": "http://terminology.hl7.org/CodeSystem/v2-0203"
                }
              ]
            },
            "system": "http://ec.europa.eu/identifier/eci",
            "value": "3583-291434-1"
          },
          {
            "type": {
              "coding": [
                {
                  "code": "MR",
                  "system": "http://terminology.hl7.org/CodeSystem/v2-0203"
                }
              ]
            },
            "system": "http://local.setting.eu/identifier",
            "value": "9d4fea2d-eece-b99f-3e16-832f0f5813f5"
          }
        ],
        "name": [
          {
            "family": "Jurković"
          },
          {
            "given": [
              "Jele"
            ]
          },
          {
            "text": "Jele Jurković"
          }
        ],
        "address": [
          {
            "line": [
              "Klesarski put 7b/8"
            ],
            "use": "home",
            "type": "physical",
            "postalCode": "34310",
            "city": "Pleternica",
            "country": "Croatia"
          }
        ],
        "telecom": [
          {
            "system": "phone",
            "value": "021 083 354"
          }
        ],
        "extension": [
          {
            "url": "http://hl7.org/fhir/StructureDefinition/patient-nationality",
            "valueCodeableConcept": {
              "coding": [
                {
                  "code": "HR",
                  "system": "http://hl7.org/fhir/ValueSet/country"
                }
              ]
            }
          }
        ],
        "text": {
          "status": "generated",
          "div": "<div xmlns=\"http://www.w3.org/1999/xhtml\"><table class=\"hl7__ips\"><tr><td>Jele Jurković</td><td>female</td><td>07-Jan-1953</td></tr></table></div>"
        },
        "gender": "female",
        "birthDate": "1953-01-07"
      }
    },
    {
      "fullUrl": "urn:uuid:d3f90690-5754-487c-ad53-f0c6cff9eeeb",
      "resource": {
        "resourceType": "PractitionerRole",
        "id": "d3f90690-5754-487c-ad53-f0c6cff9eeeb",
        "meta": {
          "profile": [
            "http://hl7.eu/fhir/base/StructureDefinition/practitionerRole-eu"
          ]
        },
        "text": {
          "status": "generated",
          "div": "<div xmlns=\"http://www.w3.org/1999/xhtml\"><table class=\"hl7__ips\">Provider Role Id d3f90690-5754-487c-ad53-f0c6cff9eeeb</table></div>"
        },
        "practitioner": {
          "reference": "urn:uuid:7995c38b-dc81-4919-9125-fe6138ec5126"
        },
        "organization": {
          "reference": "urn:uuid:a2f91b0f-3092-4048-9498-4e73153252b7"
        }
      }
    },
    {
      "fullUrl": "urn:uuid:7995c38b-dc81-4919-9125-fe6138ec5126",
      "resource": {
        "resourceType": "Practitioner",
        "id": "7995c38b-dc81-4919-9125-fe6138ec5126",
        "meta": {
          "profile": [
            "http://hl7.eu/fhir/base/StructureDefinition/practitioner-eu"
          ]
        },
        "name": [
          {
            "prefix": [
              "Dr."
            ],
            "given": [
              "Hel"
            ],
            "family": "Ping"
          }
        ],
        "text": {
          "status": "generated",
          "div": "<div xmlns=\"http://www.w3.org/1999/xhtml\"><table class=\"hl7__ips\">Dr. Hel Ping</table></div>"
        }
      }
    },
    {
      "fullUrl": "urn:uuid:a2f91b0f-3092-4048-9498-4e73153252b7",
      "resource": {
        "resourceType": "Organization",
        "id": "a2f91b0f-3092-4048-9498-4e73153252b7",
        "meta": {
          "profile": [
            "http://hl7.eu/fhir/base/StructureDefinition/organization-eu"
          ]
        },
        "identifier": [
          {
            "assigner": {
              "display": "HL7 Europe"
            },
            "system": "urn:oid:2.16.840.1.113883.2.51.999",
            "value": "7eae03c5-155f-4acd-858b-09beee76e934"
          }
        ],
        "address": [
          {
            "line": [
              "Osječka ulica 107"
            ],
            "city": "Požega",
            "postalCode": "34000",
            "country": "Croatia"
          }
        ],
        "text": {
          "status": "generated",
          "div": "<div xmlns=\"http://www.w3.org/1999/xhtml\"><table class=\"hl7__ips\">Opća županijska bolnica Požega</table></div>"
        },
        "name": "Opća županijska bolnica Požega"
      }
    },
    {
      "fullUrl": "urn:uuid:705eae66-22ab-431b-aff8-5ecdd2399b5f",
      "resource": {
        "resourceType": "Condition",
        "id": "705eae66-22ab-431b-aff8-5ecdd2399b5f",
        "meta": {
          "profile": [
            "http://hl7.org/fhir/uv/ips/StructureDefinition/Condition-uv-ips"
          ]
        },
        "category": [
          {
            "coding": [
              {
                "code": "problem-list-item",
                "system": "http://terminology.hl7.org/CodeSystem/condition-category",
                "display": "Problem List Item"
              }
            ]
          }
        ],
        "code": {
          "coding": [
            {
              "code": "64859006",
              "system": "http://snomed.info/sct",
              "display": "Osteoporosis (disorder)"
            }
          ],
          "text": "Osteoporosis"
        },
        "text": {
          "status": "generated",
          "div": "<div xmlns=\"http://www.w3.org/1999/xhtml\"><table class=\"hl7__ips\"><tr><td>Osteoporosis</td><td><span class=\"nb\">30-Jan-2019</span></td><td>active</td></tr></table></div>"
        },
        "onsetDateTime": "2019-01-30",
        "subject": {
          "reference": "urn:uuid:",
          "display": "Jele Jurković"
        },
        "asserter": {
          "reference": "urn:uuid:",
          "display": "Opća županijska bolnica Požega"
        }
      }
    },
    {
      "fullUrl": "urn:uuid:0d04b5af-1808-434e-862e-da4ef696dfb4",
      "resource": {
        "resourceType": "Condition",
        "id": "0d04b5af-1808-434e-862e-da4ef696dfb4",
        "meta": {
          "profile": [
            "http://hl7.org/fhir/uv/ips/StructureDefinition/Condition-uv-ips"
          ]
        },
        "category": [
          {
            "coding": [
              {
                "code": "problem-list-item",
                "system": "http://terminology.hl7.org/CodeSystem/condition-category",
                "display": "Problem List Item"
              }
            ]
          }
        ],
        "code": {
          "coding": [
            {
              "code": "6525002",
              "system": "http://snomed.info/sct",
              "display": "Dependent drug abuse (disorder)"
            }
          ],
          "text": "Dependent drug abuse"
        },
        "text": {
          "status": "generated",
          "div": "<div xmlns=\"http://www.w3.org/1999/xhtml\"><table class=\"hl7__ips\"><tr><td>Dependent drug abuse</td><td><span class=\"nb\">09-Jun-2006</span></td><td>active</td></tr></table></div>"
        },
        "onsetDateTime": "2006-06-09",
        "subject": {
          "reference": "urn:uuid:",
          "display": "Jele Jurković"
        },
        "asserter": {
          "reference": "urn:uuid:",
          "display": "Opća županijska bolnica Požega"
        }
      }
    },
    {
      "fullUrl": "urn:uuid:555ffab1-c3eb-4bed-97f3-2dbb3c5a08d6",
      "resource": {
        "resourceType": "Condition",
        "id": "555ffab1-c3eb-4bed-97f3-2dbb3c5a08d6",
        "meta": {
          "profile": [
            "http://hl7.org/fhir/uv/ips/StructureDefinition/Condition-uv-ips"
          ]
        },
        "category": [
          {
            "coding": [
              {
                "code": "problem-list-item",
                "system": "http://terminology.hl7.org/CodeSystem/condition-category",
                "display": "Problem List Item"
              }
            ]
          }
        ],
        "code": {
          "coding": [
            {
              "code": "15777000",
              "system": "http://snomed.info/sct",
              "display": "Prediabetes (disorder)"
            }
          ],
          "text": "Prediabetes"
        },
        "text": {
          "status": "generated",
          "div": "<div xmlns=\"http://www.w3.org/1999/xhtml\"><table class=\"hl7__ips\"><tr><td>Prediabetes</td><td><span class=\"nb\">05-Dec-1973</span></td><td>active</td></tr></table></div>"
        },
        "onsetDateTime": "1973-12-05",
        "subject": {
          "reference": "urn:uuid:",
          "display": "Jele Jurković"
        },
        "asserter": {
          "reference": "urn:uuid:",
          "display": "Opća županijska bolnica Požega"
        }
      }
    },
    {
      "fullUrl": "urn:uuid:b92fd663-a8ad-479c-8f25-de0f87089ce2",
      "resource": {
        "resourceType": "Condition",
        "id": "b92fd663-a8ad-479c-8f25-de0f87089ce2",
        "meta": {
          "profile": [
            "http://hl7.org/fhir/uv/ips/StructureDefinition/Condition-uv-ips"
          ]
        },
        "category": [
          {
            "coding": [
              {
                "code": "problem-list-item",
                "system": "http://terminology.hl7.org/CodeSystem/condition-category",
                "display": "Problem List Item"
              }
            ]
          }
        ],
        "code": {
          "coding": [
            {
              "code": "444814009",
              "system": "http://snomed.info/sct",
              "display": "Viral sinusitis (disorder)"
            }
          ],
          "text": "Viral sinusitis"
        },
        "text": {
          "status": "generated",
          "div": "<div xmlns=\"http://www.w3.org/1999/xhtml\"><table class=\"hl7__ips\"><tr><td><span class=\"grayedout\">Viral sinusitis</span></td><td><span class=\"nb\">28-Jun-2023 - 17-Jul-2023</span></td><td><span class=\"grayedout\">inactive</span></td></tr></table></div>"
        },
        "onsetDateTime": "2023-06-28",
        "abatementDateTime": "2023-07-17",
        "subject": {
          "reference": "urn:uuid:",
          "display": "Jele Jurković"
        },
        "asserter": {
          "reference": "urn:uuid:",
          "display": "Opća županijska bolnica Požega"
        }
      }
    },
    {
      "fullUrl": "urn:uuid:12881005-188c-4455-9322-d433ab6d7d8e",
      "resource": {
        "resourceType": "Condition",
        "id": "12881005-188c-4455-9322-d433ab6d7d8e",
        "meta": {
          "profile": [
            "http://hl7.org/fhir/uv/ips/StructureDefinition/Condition-uv-ips"
          ]
        },
        "category": [
          {
            "coding": [
              {
                "code": "problem-list-item",
                "system": "http://terminology.hl7.org/CodeSystem/condition-category",
                "display": "Problem List Item"
              }
            ]
          }
        ],
        "code": {
          "coding": [
            {
              "code": "10509002",
              "system": "http://snomed.info/sct",
              "display": "Acute bronchitis (disorder)"
            }
          ],
          "text": "Acute bronchitis"
        },
        "text": {
          "status": "generated",
          "div": "<div xmlns=\"http://www.w3.org/1999/xhtml\"><table class=\"hl7__ips\"><tr><td><span class=\"grayedout\">Acute bronchitis</span></td><td><span class=\"nb\">07-Jun-2023 - 24-Jun-2023</span></td><td><span class=\"grayedout\">inactive</span></td></tr></table></div>"
        },
        "onsetDateTime": "2023-06-07",
        "abatementDateTime": "2023-06-24",
        "subject": {
          "reference": "urn:uuid:",
          "display": "Jele Jurković"
        },
        "asserter": {
          "reference": "urn:uuid:",
          "display": "Opća županijska bolnica Požega"
        }
      }
    },
    {
      "fullUrl": "urn:uuid:5ac3e1e8-8ea9-4f61-afef-323cd857dbd9",
      "resource": {
        "resourceType": "Condition",
        "id": "5ac3e1e8-8ea9-4f61-afef-323cd857dbd9",
        "meta": {
          "profile": [
            "http://hl7.org/fhir/uv/ips/StructureDefinition/Condition-uv-ips"
          ]
        },
        "category": [
          {
            "coding": [
              {
                "code": "problem-list-item",
                "system": "http://terminology.hl7.org/CodeSystem/condition-category",
                "display": "Problem List Item"
              }
            ]
          }
        ],
        "code": {
          "coding": [
            {
              "code": "55680006",
              "system": "http://snomed.info/sct",
              "display": "Drug overdose (disorder)"
            }
          ],
          "text": "Drug overdose"
        },
        "text": {
          "status": "generated",
          "div": "<div xmlns=\"http://www.w3.org/1999/xhtml\"><table class=\"hl7__ips\"><tr><td><span class=\"grayedout\">Drug overdose</span></td><td><span class=\"nb\">18-Dec-2020 - 18-Dec-2020</span></td><td><span class=\"grayedout\">inactive</span></td></tr></table></div>"
        },
        "onsetDateTime": "2020-12-18",
        "abatementDateTime": "2020-12-18",
        "subject": {
          "reference": "urn:uuid:",
          "display": "Jele Jurković"
        },
        "asserter": {
          "reference": "urn:uuid:",
          "display": "Opća županijska bolnica Požega"
        }
      }
    },
    {
      "fullUrl": "urn:uuid:6b5819ff-86f6-4b2d-bf96-27e5d96bde52",
      "resource": {
        "resourceType": "Condition",
        "id": "6b5819ff-86f6-4b2d-bf96-27e5d96bde52",
        "meta": {
          "profile": [
            "http://hl7.org/fhir/uv/ips/StructureDefinition/Condition-uv-ips"
          ]
        },
        "category": [
          {
            "coding": [
              {
                "code": "problem-list-item",
                "system": "http://terminology.hl7.org/CodeSystem/condition-category",
                "display": "Problem List Item"
              }
            ]
          }
        ],
        "code": {
          "coding": [
            {
              "code": "55680006",
              "system": "http://snomed.info/sct",
              "display": "Drug overdose (disorder)"
            }
          ],
          "text": "Drug overdose"
        },
        "text": {
          "status": "generated",
          "div": "<div xmlns=\"http://www.w3.org/1999/xhtml\"><table class=\"hl7__ips\"><tr><td><span class=\"grayedout\">Drug overdose</span></td><td><span class=\"nb\">05-Dec-2015 - 05-Dec-2015</span></td><td><span class=\"grayedout\">inactive</span></td></tr></table></div>"
        },
        "onsetDateTime": "2015-12-05",
        "abatementDateTime": "2015-12-05",
        "subject": {
          "reference": "urn:uuid:",
          "display": "Jele Jurković"
        },
        "asserter": {
          "reference": "urn:uuid:",
          "display": "Opća županijska bolnica Požega"
        }
      }
    },
    {
      "fullUrl": "urn:uuid:977a60c2-f8eb-45a5-a0db-6fba090ba159",
      "resource": {
        "resourceType": "Medication",
        "id": "977a60c2-f8eb-45a5-a0db-6fba090ba159",
        "meta": {
          "profile": [
            "http://hl7.eu/fhir/eps/StructureDefinition/Medication-eu-eps"
          ]
        },
        "code": {
          "coding": [
            {
              "code": "783144007",
              "system": "http://snomed.info/sct",
              "display": "Alendronic acid (as alendronate sodium) 10 mg oral tablet"
            }
          ],
          "text": "Alendronic acid (as alendronate sodium) 10 mg oral tablet"
        },
        "text": {
          "status": "generated",
          "div": "<div xmlns=\"http://www.w3.org/1999/xhtml\">Alendronic acid (as alendronate sodium) 10 mg oral tablet</div>"
        }
      }
    },
    {
      "fullUrl": "urn:uuid:7780aa46-9ea6-4c4f-bf00-189ae8a46c18",
      "resource": {
        "resourceType": "MedicationStatement",
        "id": "7780aa46-9ea6-4c4f-bf00-189ae8a46c18",
        "meta": {
          "profile": [
            "http://hl7.eu/fhir/eps/StructureDefinition/MedicationStatement-eu-eps"
          ]
        },
        "effectivePeriod": {
          "start": "2025-03-05"
        },
        "dosage": [
          {
            "doseAndRate": [
              {
                "doseQuantity": {
                  "value": 1,
                  "unit": "{tbl}",
                  "code": "{tbl}"
                }
              }
            ],
            "timing": {
              "repeat": {
                "frequency": 1,
                "period": 1,
                "periodUnit": "d"
              }
            },
            "text": "1 tablet (10 mg) once daily",
            "asNeededBoolean": false
          }
        ],
        "reasonCode": [
          {
            "coding": [
              {
                "code": "64859006",
                "system": "http://snomed.info/sct",
                "display": "Osteoporosis (disorder)"
              }
            ]
          }
        ],
        "text": {
          "status": "generated",
          "div": "<div xmlns=\"http://www.w3.org/1999/xhtml\"><table class=\"hl7__ips first25\"><tr><th>Medication</th><th>Since</th><th>Form</th><th>Dosage</th><th>Reason</th></tr><tr><td>Alendronic acid (as alendronate sodium) 10 mg oral tablet</td><td><span class=\"nb\">2025-03-05</span></td><td>-</td><td>1 tablet (10 mg) once daily</td><td>Osteoporosis (disorder)</td></tr></table></div>"
        },
        "status": "active",
        "medicationReference": {
          "reference": "urn:uuid:977a60c2-f8eb-45a5-a0db-6fba090ba159",
          "display": "Alendronic acid (as alendronate sodium) 10 mg oral tablet"
        },
        "subject": {
          "reference": "urn:uuid:bcef1bb7-bb27-45c9-82a0-86d5a256e93d",
          "display": "Jele Jurković"
        }
      }
    },
    {
      "fullUrl": "urn:uuid:b2fbd19e-b664-4808-bc9c-c691f58faef6",
      "resource": {
        "resourceType": "Medication",
        "id": "b2fbd19e-b664-4808-bc9c-c691f58faef6",
        "meta": {
          "profile": [
            "http://hl7.eu/fhir/eps/StructureDefinition/Medication-eu-eps"
          ]
        },
        "code": {
          "coding": [
            {
              "code": "420397007",
              "system": "http://snomed.info/sct",
              "display": "Acetaminophen 300 mg and hydrocodone bitartrate 5 mg oral tablet"
            }
          ],
          "text": "Acetaminophen 300 mg and hydrocodone bitartrate 5 mg oral tablet"
        },
        "text": {
          "status": "generated",
          "div": "<div xmlns=\"http://www.w3.org/1999/xhtml\">Acetaminophen 300 mg and hydrocodone bitartrate 5 mg oral tablet</div>"
        }
      }
    },
    {
      "fullUrl": "urn:uuid:9f3d20f8-aaa3-4d01-8e6b-90985c8ed106",
      "resource": {
        "resourceType": "MedicationStatement",
        "id": "9f3d20f8-aaa3-4d01-8e6b-90985c8ed106",
        "meta": {
          "profile": [
            "http://hl7.eu/fhir/eps/StructureDefinition/MedicationStatement-eu-eps"
          ]
        },
        "effectivePeriod": {
          "start": "2014-03-18"
        },
        "dosage": [
          {
            "doseAndRate": [
              {
                "doseQuantity": {
                  "value": 1,
                  "unit": "{tbl}",
                  "code": "{tbl}"
                }
              }
            ],
            "timing": {
              "repeat": {
                "frequency": 6,
                "period": 1,
                "periodUnit": "d"
              }
            },
            "text": "1 tablet (300 mg/5 mg) by mouth every 4 to 6 hours as needed for pain",
            "asNeededBoolean": true
          }
        ],
        "text": {
          "status": "generated",
          "div": "<div xmlns=\"http://www.w3.org/1999/xhtml\"><table class=\"hl7__ips first25\"><tr><th>Medication</th><th>Since</th><th>Form</th><th>Dosage</th><th>Reason</th></tr><tr><td>Acetaminophen 300 mg and hydrocodone bitartrate 5 mg oral tablet</td><td><span class=\"nb\">2014-03-18</span></td><td>-</td><td>1 tablet (300 mg/5 mg) by mouth every 4 to 6 hours as needed for pain</td><td>-</td></tr></table></div>"
        },
        "status": "active",
        "medicationReference": {
          "reference": "urn:uuid:b2fbd19e-b664-4808-bc9c-c691f58faef6",
          "display": "Acetaminophen 300 mg and hydrocodone bitartrate 5 mg oral tablet"
        },
        "subject": {
          "reference": "urn:uuid:bcef1bb7-bb27-45c9-82a0-86d5a256e93d",
          "display": "Jele Jurković"
        }
      }
    },
    {
      "fullUrl": "urn:uuid:5d5b626d-32e7-4eaf-a3ee-5c9da13be173",
      "resource": {
        "resourceType": "Medication",
        "id": "5d5b626d-32e7-4eaf-a3ee-5c9da13be173",
        "meta": {
          "profile": [
            "http://hl7.eu/fhir/eps/StructureDefinition/Medication-eu-eps"
          ]
        },
        "code": {
          "coding": [
            {
              "code": "2001499",
              "system": "http://www.nlm.nih.gov/research/umls/rxnorm",
              "display": "Vitamin B12 5 MG/ML Injectable Solution"
            }
          ],
          "text": "Vitamin B12 5 MG/ML Injectable Solution"
        },
        "text": {
          "status": "generated",
          "div": "<div xmlns=\"http://www.w3.org/1999/xhtml\">Vitamin B12 5 MG/ML Injectable Solution</div>"
        }
      }
    },
    {
      "fullUrl": "urn:uuid:b65e7068-d7d1-42b1-ae30-3ddf4ffd8f1b",
      "resource": {
        "resourceType": "MedicationStatement",
        "id": "b65e7068-d7d1-42b1-ae30-3ddf4ffd8f1b",
        "meta": {
          "profile": [
            "http://hl7.eu/fhir/eps/StructureDefinition/MedicationStatement-eu-eps"
          ]
        },
        "effectivePeriod": {
          "start": "1974-10-02"
        },
        "dosage": [
          {
            "doseAndRate": [
              {
                "doseQuantity": {
                  "value": 1,
                  "unit": "mL",
                  "code": "mL"
                }
              }
            ],
            "timing": {
              "repeat": {
                "frequency": 1,
                "period": 1,
                "periodUnit": "wk"
              }
            },
            "text": "1 mL (5 mg) intramuscularly once weekly",
            "asNeededBoolean": false
          }
        ],
        "text": {
          "status": "generated",
          "div": "<div xmlns=\"http://www.w3.org/1999/xhtml\"><table class=\"hl7__ips first25\"><tr><th>Medication</th><th>Since</th><th>Form</th><th>Dosage</th><th>Reason</th></tr><tr><td>Vitamin B12 5 MG/ML Injectable Solution</td><td><span class=\"nb\">1974-10-02</span></td><td>-</td><td>1 mL (5 mg) intramuscularly once weekly</td><td>-</td></tr></table></div>"
        },
        "status": "active",
        "medicationReference": {
          "reference": "urn:uuid:5d5b626d-32e7-4eaf-a3ee-5c9da13be173",
          "display": "Vitamin B12 5 MG/ML Injectable Solution"
        },
        "subject": {
          "reference": "urn:uuid:bcef1bb7-bb27-45c9-82a0-86d5a256e93d",
          "display": "Jele Jurković"
        }
      }
    },
    {
      "fullUrl": "urn:uuid:5bc1fc50-8eb8-4874-9ba0-56e793fb7ae5",
      "resource": {
        "resourceType": "Immunization",
        "id": "5bc1fc50-8eb8-4874-9ba0-56e793fb7ae5",
        "meta": {
          "profile": [
            "http://hl7.org/fhir/uv/ips/StructureDefinition/Immunization-uv-ips"
          ]
        },
        "vaccineCode": {
          "coding": [
            {
              "code": "1181000221105",
              "system": "http://snomed.info/sct",
              "display": "Vaccine product containing Influenza virus antigen"
            },
            {
              "code": "J07BB02",
              "system": "http://www.whocc.no/atc",
              "display": "Influenza, inactivated, split virus"
            }
          ],
          "text": "Influenza virus antigen only vaccine product"
        },
        "site": {
          "coding": [
            {
              "code": "244979005",
              "system": "http://snomed.info/sct",
              "display": "Entire muscle of upper arm"
            }
          ],
          "text": "Entire muscle of upper arm"
        },
        "route": {
          "coding": [
            {
              "code": "78421000",
              "system": "http://snomed.info/sct",
              "display": "Intramuscular route"
            }
          ],
          "text": "Intramuscular route"
        },
        "text": {
          "status": "generated",
          "div": "<div xmlns=\"http://www.w3.org/1999/xhtml\"><table class=\"hl7__ips\"><tr><td>Influenza virus antigen only vaccine product</td><td><span class=\"nb\">05-Mar-2025</span></td></tr></table></div>"
        },
        "status": "completed",
        "patient": {
          "reference": "urn:uuid:bcef1bb7-bb27-45c9-82a0-86d5a256e93d",
          "display": "Jele Jurković"
        },
        "occurrenceDateTime": "2025-03-05",
        "lotNumber": "WR-T0kJ",
        "expirationDate": "2025-11-08"
      }
    },
    {
      "fullUrl": "urn:uuid:5048203e-45e4-46e3-99fc-013108d83999",
      "resource": {
        "resourceType": "Immunization",
        "id": "5048203e-45e4-46e3-99fc-013108d83999",
        "meta": {
          "profile": [
            "http://hl7.org/fhir/uv/ips/StructureDefinition/Immunization-uv-ips"
          ]
        },
        "vaccineCode": {
          "coding": [
            {
              "code": "777725002",
              "system": "http://snomed.info/sct",
              "display": "Vaccine product containing only Clostridium tetani toxoid antigen adsorbed"
            },
            {
              "code": "J07AM51",
              "system": "http://www.whocc.no/atc",
              "display": "Diphtheria-tetanus vaccines, adult type"
            }
          ],
          "text": "Clostridium tetani toxoid antigen adsorbed only vaccine product"
        },
        "site": {
          "coding": [
            {
              "code": "244979005",
              "system": "http://snomed.info/sct",
              "display": "Entire muscle of upper arm"
            }
          ],
          "text": "Entire muscle of upper arm"
        },
        "route": {
          "coding": [
            {
              "code": "78421000",
              "system": "http://snomed.info/sct",
              "display": "Intramuscular route"
            }
          ],
          "text": "Intramuscular route"
        },
        "text": {
          "status": "generated",
          "div": "<div xmlns=\"http://www.w3.org/1999/xhtml\"><table class=\"hl7__ips\"><tr><td>Clostridium tetani toxoid antigen adsorbed only vaccine product</td><td><span class=\"nb\">05-Feb-2020</span></td></tr></table></div>"
        },
        "status": "completed",
        "patient": {
          "reference": "urn:uuid:bcef1bb7-bb27-45c9-82a0-86d5a256e93d",
          "display": "Jele Jurković"
        },
        "occurrenceDateTime": "2020-02-05",
        "lotNumber": "GE-EwaQJDG",
        "expirationDate": "2020-05-01"
      }
    },
    {
      "fullUrl": "urn:uuid:4cbb8517-2228-4abe-8751-894f48b90992",
      "resource": {
        "resourceType": "Procedure",
        "id": "4cbb8517-2228-4abe-8751-894f48b90992",
        "meta": {
          "profile": [
            "http://hl7.org/fhir/uv/ips/StructureDefinition/Procedure-uv-ips"
          ]
        },
        "code": {
          "coding": [
            {
              "code": "171207006",
              "system": "http://snomed.info/sct",
              "display": "Depression screening (procedure)"
            }
          ],
          "text": "Depression screening"
        },
        "text": {
          "status": "generated",
          "div": "<div xmlns=\"http://www.w3.org/1999/xhtml\"><table class=\"hl7__ips\"><tr><td>Depression screening</td><td><span class=\"nb\">05-Jul-2023</span></td><td>-</td></tr></table></div>"
        },
        "status": "completed",
        "performedDateTime": "2023-07-05",
        "subject": {
          "reference": "urn:uuid:",
          "display": "Jele Jurković"
        }
      }
    },
    {
      "fullUrl": "urn:uuid:18de8c86-4273-4cb7-895b-0965408b6170",
      "resource": {
        "resourceType": "Procedure",
        "id": "18de8c86-4273-4cb7-895b-0965408b6170",
        "meta": {
          "profile": [
            "http://hl7.org/fhir/uv/ips/StructureDefinition/Procedure-uv-ips"
          ]
        },
        "code": {
          "coding": [
            {
              "code": "710824005",
              "system": "http://snomed.info/sct",
              "display": "Assessment of health and social care needs (procedure)"
            }
          ],
          "text": "Assessment of health and social care needs"
        },
        "text": {
          "status": "generated",
          "div": "<div xmlns=\"http://www.w3.org/1999/xhtml\"><table class=\"hl7__ips\"><tr><td>Assessment of health and social care needs</td><td><span class=\"nb\">05-Jul-2023</span></td><td>-</td></tr></table></div>"
        },
        "status": "completed",
        "performedDateTime": "2023-07-05",
        "subject": {
          "reference": "urn:uuid:",
          "display": "Jele Jurković"
        }
      }
    },
    {
      "fullUrl": "urn:uuid:39e8e7bd-1159-4fca-b5d2-1b4a7d6fbe73",
      "resource": {
        "resourceType": "Procedure",
        "id": "39e8e7bd-1159-4fca-b5d2-1b4a7d6fbe73",
        "meta": {
          "profile": [
            "http://hl7.org/fhir/uv/ips/StructureDefinition/Procedure-uv-ips"
          ]
        },
        "code": {
          "coding": [
            {
              "code": "762993000",
              "system": "http://snomed.info/sct",
              "display": "Assessment using Morse Fall Scale (procedure)"
            }
          ],
          "text": "Assessment using Morse Fall Scale"
        },
        "text": {
          "status": "generated",
          "div": "<div xmlns=\"http://www.w3.org/1999/xhtml\"><table class=\"hl7__ips\"><tr><td>Assessment using Morse Fall Scale</td><td><span class=\"nb\">05-Jul-2023</span></td><td>-</td></tr></table></div>"
        },
        "status": "completed",
        "performedDateTime": "2023-07-05",
        "subject": {
          "reference": "urn:uuid:",
          "display": "Jele Jurković"
        }
      }
    },
    {
      "fullUrl": "urn:uuid:c924f7ec-de84-49ea-bb2e-62619dba290a",
      "resource": {
        "resourceType": "Procedure",
        "id": "c924f7ec-de84-49ea-bb2e-62619dba290a",
        "meta": {
          "profile": [
            "http://hl7.org/fhir/uv/ips/StructureDefinition/Procedure-uv-ips"
          ]
        },
        "code": {
          "coding": [
            {
              "code": "866148006",
              "system": "http://snomed.info/sct",
              "display": "Screening for domestic abuse (procedure)"
            }
          ],
          "text": "Screening for domestic abuse"
        },
        "text": {
          "status": "generated",
          "div": "<div xmlns=\"http://www.w3.org/1999/xhtml\"><table class=\"hl7__ips\"><tr><td>Screening for domestic abuse</td><td><span class=\"nb\">05-Jul-2023</span></td><td>-</td></tr></table></div>"
        },
        "status": "completed",
        "performedDateTime": "2023-07-05",
        "subject": {
          "reference": "urn:uuid:",
          "display": "Jele Jurković"
        }
      }
    },
    {
      "fullUrl": "urn:uuid:4fb90645-1c82-4ecb-a9ee-e17f678172cb",
      "resource": {
        "resourceType": "Procedure",
        "id": "4fb90645-1c82-4ecb-a9ee-e17f678172cb",
        "meta": {
          "profile": [
            "http://hl7.org/fhir/uv/ips/StructureDefinition/Procedure-uv-ips"
          ]
        },
        "code": {
          "coding": [
            {
              "code": "454711000124102",
              "system": "http://snomed.info/sct",
              "display": "Depression screening using Patient Health Questionnaire Two-Item score (procedure)"
            }
          ]
        },
        "text": {
          "status": "generated",
          "div": "<div xmlns=\"http://www.w3.org/1999/xhtml\"><table class=\"hl7__ips\"><tr><td>Depression screening using Patient Health Questionnaire Two-Item score (procedure)</td><td><span class=\"nb\">05-Jul-2023</span></td><td>-</td></tr></table></div>"
        },
        "status": "completed",
        "performedDateTime": "2023-07-05",
        "subject": {
          "reference": "urn:uuid:",
          "display": "Jele Jurković"
        }
      }
    },
    {
      "fullUrl": "urn:uuid:12bec645-731d-443c-93f5-b333d2551457",
      "resource": {
        "resourceType": "AllergyIntolerance",
        "id": "12bec645-731d-443c-93f5-b333d2551457",
        "meta": {
          "profile": [
            "http://hl7.eu/fhir/eps/StructureDefinition/allergyIntolerance-eu-eps"
          ]
        },
        "code": {
          "text": ""
        },
        "clinicalStatus": {
          "coding": [
            {
              "code": "active",
              "system": "http://terminology.hl7.org/CodeSystem/allergyintolerance-clinical"
            }
          ]
        },
        "text": {
          "status": "generated",
          "div": "<div xmlns=\"http://www.w3.org/1999/xhtml\"><table class=\"hl7__ips\"><tr><th>Allergy/Intolerance</th><th>Onset Date</th><th>Status</th><th>Type</th><th>Reaction</th></tr><tr><td></td><td>?</td><td>active</td><td>?</td><td></td></tr></table></div>"
        },
        "verificationStatus": {
          "coding": [
            {
              "code": "confirmed",
              "system": "http://terminology.hl7.org/CodeSystem/allergyintolerance-verification"
            }
          ]
        },
        "patient": {
          "reference": "urn:uuid:bcef1bb7-bb27-45c9-82a0-86d5a256e93d",
          "display": "Jele Jurković"
        },
        "_onsetDateTime": {
          "extension": [
            {
              "url": "http://hl7.org/fhir/StructureDefinition/data-absent-reason",
              "valueCode": "unknown"
            }
          ]
        }
      }
    },
    {
      "fullUrl": "urn:uuid:1e7f12e2-2bfd-4f74-811e-3006d248dd27",
      "resource": {
        "resourceType": "CarePlan",
        "id": "1e7f12e2-2bfd-4f74-811e-3006d248dd27",
        "category": [
          {
            "coding": [
              {
                "code": "assess-plan",
                "system": "http://terminology.hl7.org/CodeSystem/care-plan-category",
                "display": "Assessment and Plan"
              }
            ]
          }
        ],
        "activity": [
          {
            "detail": {
              "code": {
                "coding": [
                  {
                    "code": "276239002",
                    "system": "http://snomed.info/sct",
                    "display": "Therapy (regime/therapy)"
                  }
                ]
              },
              "status": "unknown",
              "description": "Therapy",
              "kind": "Appointment"
            }
          }
        ],
        "period": {
          "start": "2014-03-18"
        },
        "text": {
          "status": "generated",
          "div": "<div xmlns=\"http://www.w3.org/1999/xhtml\"><table class=\"hl7__ips first25\"><tr><th>Active Planned Care / Goals</th><th>Start Date</th><th>Reason</th></tr><tr><td>Therapy</td><td><span class=\"nb\">18-Mar-2014</span></td><td>-</td></tr></table></div>"
        },
        "status": "active",
        "intent": "plan",
        "subject": {
          "reference": "urn:uuid:bcef1bb7-bb27-45c9-82a0-86d5a256e93d",
          "display": "Jele Jurković"
        }
      }
    },
    {
      "fullUrl": "urn:uuid:6af53a31-e89b-4dad-a87f-f9871921078c",
      "resource": {
        "resourceType": "CarePlan",
        "id": "6af53a31-e89b-4dad-a87f-f9871921078c",
        "category": [
          {
            "coding": [
              {
                "code": "assess-plan",
                "system": "http://terminology.hl7.org/CodeSystem/care-plan-category",
                "display": "Assessment and Plan"
              }
            ]
          }
        ],
        "activity": [
          {
            "detail": {
              "code": {
                "coding": [
                  {
                    "code": "734163000",
                    "system": "http://snomed.info/sct",
                    "display": "Care plan (record artifact)"
                  }
                ]
              },
              "status": "unknown",
              "description": "Care plan",
              "kind": "Appointment"
            }
          }
        ],
        "period": {
          "start": "2009-05-05"
        },
        "text": {
          "status": "generated",
          "div": "<div xmlns=\"http://www.w3.org/1999/xhtml\"><table class=\"hl7__ips first25\"><tr><th>Active Planned Care / Goals</th><th>Start Date</th><th>Reason</th></tr><tr><td>Care plan</td><td><span class=\"nb\">05-May-2009</span></td><td>-</td></tr></table></div>"
        },
        "status": "active",
        "intent": "plan",
        "subject": {
          "reference": "urn:uuid:bcef1bb7-bb27-45c9-82a0-86d5a256e93d",
          "display": "Jele Jurković"
        }
      }
    },
    {
      "fullUrl": "urn:uuid:b36e4261-98f3-4869-9aef-ae8ee6d7179c",
      "resource": {
        "resourceType": "CarePlan",
        "id": "b36e4261-98f3-4869-9aef-ae8ee6d7179c",
        "category": [
          {
            "coding": [
              {
                "code": "assess-plan",
                "system": "http://terminology.hl7.org/CodeSystem/care-plan-category",
                "display": "Assessment and Plan"
              }
            ]
          }
        ],
        "activity": [
          {
            "detail": {
              "code": {
                "coding": [
                  {
                    "code": "698360004",
                    "system": "http://snomed.info/sct",
                    "display": "Diabetes self management plan (qualifier value)"
                  }
                ]
              },
              "reasonCode": [
                {
                  "coding": [
                    {
                      "code": "15777000",
                      "system": "http://snomed.info/sct",
                      "display": "Prediabetes"
                    }
                  ]
                }
              ],
              "status": "unknown",
              "description": "Diabetes self management plan",
              "kind": "Appointment"
            }
          }
        ],
        "period": {
          "start": "1973-12-05"
        },
        "goal": [
          {
            "reference": "urn:uuid:859ed86f-f204-423b-95ea-dc05a81e7d91"
          }
        ],
        "text": {
          "status": "generated",
          "div": "<div xmlns=\"http://www.w3.org/1999/xhtml\"><table class=\"hl7__ips first25\"><tr><th>Active Planned Care / Goals</th><th>Start Date</th><th>Reason</th></tr><tr><td>Diabetes self management plan</td><td><span class=\"nb\">05-Dec-1973</span></td><td>Prediabetes</td></tr><tr><td><ul><li>Patient will implement and maintain a diabetes self-management plan to reduce risk of progression to diabetes.</li></ul></td><td></td><td></td></tr></table></div>"
        },
        "status": "active",
        "intent": "plan",
        "subject": {
          "reference": "urn:uuid:bcef1bb7-bb27-45c9-82a0-86d5a256e93d",
          "display": "Jele Jurković"
        }
      }
    },
    {
      "fullUrl": "urn:uuid:478121ab-3f82-49f4-9ce2-0deac74f137f",
      "resource": {
        "resourceType": "ImmunizationRecommendation",
        "id": "478121ab-3f82-49f4-9ce2-0deac74f137f",
        "recommendation": [
          {
            "vaccineCode": [
              {
                "coding": [
                  {
                    "code": "1181000221105",
                    "system": "http://snomed.info/sct",
                    "display": "Vaccine product containing only Influenza virus antigen (medicinal product)"
                  }
                ]
              }
            ],
            "dateCriterion": [
              {
                "code": {
                  "coding": [
                    {
                      "code": "30980-7",
                      "system": "http://loinc.org",
                      "display": "Date vaccine due"
                    }
                  ]
                },
                "value": "2025-10-01"
              }
            ],
            "targetDisease": {
              "coding": [
                {
                  "code": "6142004",
                  "system": "http://snomed.info/sct",
                  "display": "Influenza (disorder)"
                }
              ]
            },
            "series": "Annual seasonal influenza vaccination",
            "forecastStatus": {
              "coding": [
                {
                  "code": "due",
                  "system": "http://terminology.hl7.org/CodeSystem/immunization-recommendation-status",
                  "display": "Due"
                }
              ]
            }
          }
        ],
        "text": {
          "status": "generated",
          "div": "<div xmlns=\"http://www.w3.org/1999/xhtml\"><table class=\"hl7__ips\"><tr><td>Vaccine product containing only Influenza virus antigen (medicinal product)</td><td><span class=\"nb\">01-Oct-2025</span></td><td>Annual seasonal influenza vaccination</td></tr></table></div>"
        },
        "date": "2025-10-22",
        "patient": {
          "reference": "urn:uuid:bcef1bb7-bb27-45c9-82a0-86d5a256e93d",
          "display": "Jele Jurković"
        }
      }
    },
    {
      "fullUrl": "urn:uuid:62ec486e-d009-4c6b-9394-4eabec71acf1",
      "resource": {
        "resourceType": "Observation",
        "id": "62ec486e-d009-4c6b-9394-4eabec71acf1",
        "meta": {
          "profile": [
            "http://hl7.org/fhir/StructureDefinition/vitalsigns"
          ]
        },
        "category": [
          {
            "coding": [
              {
                "system": "http://terminology.hl7.org/CodeSystem/observation-category",
                "code": "vital-signs",
                "display": "Vital Signs"
              }
            ]
          }
        ],
        "valueQuantity": {
          "value": 160.8,
          "code": "cm",
          "unit": "cm"
        },
        "text": {
          "status": "generated",
          "div": "<div xmlns=\"http://www.w3.org/1999/xhtml\"><table class=\"hl7__ips\"><tr><th>Vital Sign</th><th>Date</th><th>Measurement</th></tr><tr><td>Body Height</td><td>05-Mar-2025</td><td>160.8 cm</td></tr></table></div>"
        },
        "status": "final",
        "code": {
          "coding": [
            {
              "code": "$8302-2",
              "system": "http://loinc.org",
              "display": "Body Height"
            }
          ]
        },
        "subject": {
          "reference": "urn:uuid:bcef1bb7-bb27-45c9-82a0-86d5a256e93d",
          "display": "Jele Jurković"
        },
        "effectiveDateTime": "2025-03-05"
      }
    },
    {
      "fullUrl": "urn:uuid:d4554bb6-8965-4706-bb57-e98d508f7107",
      "resource": {
        "resourceType": "Observation",
        "id": "d4554bb6-8965-4706-bb57-e98d508f7107",
        "meta": {
          "profile": [
            "http://hl7.org/fhir/StructureDefinition/vitalsigns"
          ]
        },
        "category": [
          {
            "coding": [
              {
                "system": "http://terminology.hl7.org/CodeSystem/observation-category",
                "code": "vital-signs",
                "display": "Vital Signs"
              }
            ]
          }
        ],
        "valueQuantity": {
          "value": 1,
          "code": "{score}",
          "unit": "{score}"
        },
        "text": {
          "status": "generated",
          "div": "<div xmlns=\"http://www.w3.org/1999/xhtml\"><table class=\"hl7__ips\"><tr><th>Vital Sign</th><th>Date</th><th>Measurement</th></tr><tr><td>Pain severity - 0-10 verbal numeric rating [Score] - Reported</td><td>05-Mar-2025</td><td>1 {score}</td></tr></table></div>"
        },
        "status": "final",
        "code": {
          "coding": [
            {
              "code": "$72514-3",
              "system": "http://loinc.org",
              "display": "Pain severity - 0-10 verbal numeric rating [Score] - Reported"
            }
          ]
        },
        "subject": {
          "reference": "urn:uuid:bcef1bb7-bb27-45c9-82a0-86d5a256e93d",
          "display": "Jele Jurković"
        },
        "effectiveDateTime": "2025-03-05"
      }
    },
    {
      "fullUrl": "urn:uuid:caa1f0e0-fe0c-4848-9902-548e5be8faf7",
      "resource": {
        "resourceType": "Observation",
        "id": "caa1f0e0-fe0c-4848-9902-548e5be8faf7",
        "meta": {
          "profile": [
            "http://hl7.org/fhir/StructureDefinition/vitalsigns"
          ]
        },
        "category": [
          {
            "coding": [
              {
                "system": "http://terminology.hl7.org/CodeSystem/observation-category",
                "code": "vital-signs",
                "display": "Vital Signs"
              }
            ]
          }
        ],
        "valueQuantity": {
          "value": 75.6,
          "code": "kg",
          "unit": "kg"
        },
        "text": {
          "status": "generated",
          "div": "<div xmlns=\"http://www.w3.org/1999/xhtml\"><table class=\"hl7__ips\"><tr><th>Vital Sign</th><th>Date</th><th>Measurement</th></tr><tr><td>Body Weight</td><td>05-Mar-2025</td><td>75.6 kg</td></tr></table></div>"
        },
        "status": "final",
        "code": {
          "coding": [
            {
              "code": "$29463-7",
              "system": "http://loinc.org",
              "display": "Body Weight"
            }
          ]
        },
        "subject": {
          "reference": "urn:uuid:bcef1bb7-bb27-45c9-82a0-86d5a256e93d",
          "display": "Jele Jurković"
        },
        "effectiveDateTime": "2025-03-05"
      }
    },
    {
      "fullUrl": "urn:uuid:97264665-8392-4bad-9f6c-f5371bd72068",
      "resource": {
        "resourceType": "Observation",
        "id": "97264665-8392-4bad-9f6c-f5371bd72068",
        "meta": {
          "profile": [
            "http://hl7.org/fhir/StructureDefinition/vitalsigns"
          ]
        },
        "category": [
          {
            "coding": [
              {
                "system": "http://terminology.hl7.org/CodeSystem/observation-category",
                "code": "vital-signs",
                "display": "Vital Signs"
              }
            ]
          }
        ],
        "valueQuantity": {
          "value": 29.2,
          "code": "kg/m2",
          "unit": "kg/m2"
        },
        "text": {
          "status": "generated",
          "div": "<div xmlns=\"http://www.w3.org/1999/xhtml\"><table class=\"hl7__ips\"><tr><th>Vital Sign</th><th>Date</th><th>Measurement</th></tr><tr><td>Body mass index (BMI) [Ratio]</td><td>05-Mar-2025</td><td>29.2 kg/m2</td></tr></table></div>"
        },
        "status": "final",
        "code": {
          "coding": [
            {
              "code": "$39156-5",
              "system": "http://loinc.org",
              "display": "Body mass index (BMI) [Ratio]"
            }
          ]
        },
        "subject": {
          "reference": "urn:uuid:bcef1bb7-bb27-45c9-82a0-86d5a256e93d",
          "display": "Jele Jurković"
        },
        "effectiveDateTime": "2025-03-05"
      }
    },
    {
      "fullUrl": "urn:uuid:f5eda9e5-f15a-4cb3-acfb-174de6a4bd3b",
      "resource": {
        "resourceType": "Observation",
        "id": "f5eda9e5-f15a-4cb3-acfb-174de6a4bd3b",
        "meta": {
          "profile": [
            "http://hl7.org/fhir/StructureDefinition/vitalsigns"
          ]
        },
        "category": [
          {
            "coding": [
              {
                "system": "http://terminology.hl7.org/CodeSystem/observation-category",
                "code": "vital-signs",
                "display": "Vital Signs"
              }
            ]
          }
        ],
        "valueQuantity": {
          "value": 81,
          "code": "mm[Hg]",
          "unit": "mm[Hg]"
        },
        "text": {
          "status": "generated",
          "div": "<div xmlns=\"http://www.w3.org/1999/xhtml\"><table class=\"hl7__ips\"><tr><th>Vital Sign</th><th>Date</th><th>Measurement</th></tr><tr><td>Diastolic Blood Pressure</td><td>05-Mar-2025</td><td>81 mm[Hg]</td></tr></table></div>"
        },
        "status": "final",
        "code": {
          "coding": [
            {
              "code": "$8462-4",
              "system": "http://loinc.org",
              "display": "Diastolic Blood Pressure"
            }
          ]
        },
        "subject": {
          "reference": "urn:uuid:bcef1bb7-bb27-45c9-82a0-86d5a256e93d",
          "display": "Jele Jurković"
        },
        "effectiveDateTime": "2025-03-05"
      }
    },
    {
      "fullUrl": "urn:uuid:d8bfa896-a32b-40e9-a7a2-a3303b3a10d4",
      "resource": {
        "resourceType": "Observation",
        "id": "d8bfa896-a32b-40e9-a7a2-a3303b3a10d4",
        "meta": {
          "profile": [
            "http://hl7.org/fhir/StructureDefinition/vitalsigns"
          ]
        },
        "category": [
          {
            "coding": [
              {
                "system": "http://terminology.hl7.org/CodeSystem/observation-category",
                "code": "vital-signs",
                "display": "Vital Signs"
              }
            ]
          }
        ],
        "valueQuantity": {
          "value": 106,
          "code": "mm[Hg]",
          "unit": "mm[Hg]"
        },
        "text": {
          "status": "generated",
          "div": "<div xmlns=\"http://www.w3.org/1999/xhtml\"><table class=\"hl7__ips\"><tr><th>Vital Sign</th><th>Date</th><th>Measurement</th></tr><tr><td>Systolic Blood Pressure</td><td>05-Mar-2025</td><td>106 mm[Hg]</td></tr></table></div>"
        },
        "status": "final",
        "code": {
          "coding": [
            {
              "code": "$8480-6",
              "system": "http://loinc.org",
              "display": "Systolic Blood Pressure"
            }
          ]
        },
        "subject": {
          "reference": "urn:uuid:bcef1bb7-bb27-45c9-82a0-86d5a256e93d",
          "display": "Jele Jurković"
        },
        "effectiveDateTime": "2025-03-05"
      }
    },
    {
      "fullUrl": "urn:uuid:8fc14e3b-3d85-4db4-b786-f6a83737301b",
      "resource": {
        "resourceType": "Observation",
        "id": "8fc14e3b-3d85-4db4-b786-f6a83737301b",
        "meta": {
          "profile": [
            "http://hl7.org/fhir/StructureDefinition/vitalsigns"
          ]
        },
        "category": [
          {
            "coding": [
              {
                "system": "http://terminology.hl7.org/CodeSystem/observation-category",
                "code": "vital-signs",
                "display": "Vital Signs"
              }
            ]
          }
        ],
        "valueQuantity": {
          "value": 77,
          "code": "/min",
          "unit": "/min"
        },
        "text": {
          "status": "generated",
          "div": "<div xmlns=\"http://www.w3.org/1999/xhtml\"><table class=\"hl7__ips\"><tr><th>Vital Sign</th><th>Date</th><th>Measurement</th></tr><tr><td>Heart rate</td><td>05-Mar-2025</td><td>77 /min</td></tr></table></div>"
        },
        "status": "final",
        "code": {
          "coding": [
            {
              "code": "$8867-4",
              "system": "http://loinc.org",
              "display": "Heart rate"
            }
          ]
        },
        "subject": {
          "reference": "urn:uuid:bcef1bb7-bb27-45c9-82a0-86d5a256e93d",
          "display": "Jele Jurković"
        },
        "effectiveDateTime": "2025-03-05"
      }
    },
    {
      "fullUrl": "urn:uuid:c37f1c4e-7641-4a3d-b442-a3bbc0ca25b7",
      "resource": {
        "resourceType": "Observation",
        "id": "c37f1c4e-7641-4a3d-b442-a3bbc0ca25b7",
        "meta": {
          "profile": [
            "http://hl7.org/fhir/StructureDefinition/vitalsigns"
          ]
        },
        "category": [
          {
            "coding": [
              {
                "system": "http://terminology.hl7.org/CodeSystem/observation-category",
                "code": "vital-signs",
                "display": "Vital Signs"
              }
            ]
          }
        ],
        "valueQuantity": {
          "value": 13,
          "code": "/min",
          "unit": "/min"
        },
        "text": {
          "status": "generated",
          "div": "<div xmlns=\"http://www.w3.org/1999/xhtml\"><table class=\"hl7__ips\"><tr><th>Vital Sign</th><th>Date</th><th>Measurement</th></tr><tr><td>Respiratory rate</td><td>05-Mar-2025</td><td>13 /min</td></tr></table></div>"
        },
        "status": "final",
        "code": {
          "coding": [
            {
              "code": "$9279-1",
              "system": "http://loinc.org",
              "display": "Respiratory rate"
            }
          ]
        },
        "subject": {
          "reference": "urn:uuid:bcef1bb7-bb27-45c9-82a0-86d5a256e93d",
          "display": "Jele Jurković"
        },
        "effectiveDateTime": "2025-03-05"
      }
    },
    {
      "fullUrl": "urn:uuid:cea7fbba-7ab6-45b3-97e8-3bbe373ccdb6",
      "resource": {
        "resourceType": "Observation",
        "id": "cea7fbba-7ab6-45b3-97e8-3bbe373ccdb6",
        "meta": {
          "profile": [
            "http://hl7.org/fhir/StructureDefinition/vitalsigns"
          ]
        },
        "category": [
          {
            "coding": [
              {
                "system": "http://terminology.hl7.org/CodeSystem/observation-category",
                "code": "vital-signs",
                "display": "Vital Signs"
              }
            ]
          }
        ],
        "valueQuantity": {
          "value": 160.8,
          "code": "cm",
          "unit": "cm"
        },
        "text": {
          "status": "generated",
          "div": "<div xmlns=\"http://www.w3.org/1999/xhtml\"><table class=\"hl7__ips\"><tr><th>Vital Sign</th><th>Date</th><th>Measurement</th></tr><tr><td>Body Height</td><td>28-Feb-2024</td><td>160.8 cm</td></tr></table></div>"
        },
        "status": "final",
        "code": {
          "coding": [
            {
              "code": "$8302-2",
              "system": "http://loinc.org",
              "display": "Body Height"
            }
          ]
        },
        "subject": {
          "reference": "urn:uuid:bcef1bb7-bb27-45c9-82a0-86d5a256e93d",
          "display": "Jele Jurković"
        },
        "effectiveDateTime": "2024-02-28"
      }
    },
    {
      "fullUrl": "urn:uuid:fb3a3603-2161-4726-a84b-fec8af07ca9e",
      "resource": {
        "resourceType": "Observation",
        "id": "fb3a3603-2161-4726-a84b-fec8af07ca9e",
        "meta": {
          "profile": [
            "http://hl7.org/fhir/StructureDefinition/vitalsigns"
          ]
        },
        "category": [
          {
            "coding": [
              {
                "system": "http://terminology.hl7.org/CodeSystem/observation-category",
                "code": "vital-signs",
                "display": "Vital Signs"
              }
            ]
          }
        ],
        "valueQuantity": {
          "value": 2,
          "code": "{score}",
          "unit": "{score}"
        },
        "text": {
          "status": "generated",
          "div": "<div xmlns=\"http://www.w3.org/1999/xhtml\"><table class=\"hl7__ips\"><tr><th>Vital Sign</th><th>Date</th><th>Measurement</th></tr><tr><td>Pain severity - 0-10 verbal numeric rating [Score] - Reported</td><td>28-Feb-2024</td><td>2 {score}</td></tr></table></div>"
        },
        "status": "final",
        "code": {
          "coding": [
            {
              "code": "$72514-3",
              "system": "http://loinc.org",
              "display": "Pain severity - 0-10 verbal numeric rating [Score] - Reported"
            }
          ]
        },
        "subject": {
          "reference": "urn:uuid:bcef1bb7-bb27-45c9-82a0-86d5a256e93d",
          "display": "Jele Jurković"
        },
        "effectiveDateTime": "2024-02-28"
      }
    },
    {
      "fullUrl": "urn:uuid:1c671ad7-e9f5-43e6-be6d-cbf960097475",
      "resource": {
        "resourceType": "Observation",
        "id": "1c671ad7-e9f5-43e6-be6d-cbf960097475",
        "meta": {
          "profile": [
            "http://hl7.org/fhir/StructureDefinition/vitalsigns"
          ]
        },
        "category": [
          {
            "coding": [
              {
                "system": "http://terminology.hl7.org/CodeSystem/observation-category",
                "code": "vital-signs",
                "display": "Vital Signs"
              }
            ]
          }
        ],
        "valueQuantity": {
          "value": 74.1,
          "code": "kg",
          "unit": "kg"
        },
        "text": {
          "status": "generated",
          "div": "<div xmlns=\"http://www.w3.org/1999/xhtml\"><table class=\"hl7__ips\"><tr><th>Vital Sign</th><th>Date</th><th>Measurement</th></tr><tr><td>Body Weight</td><td>28-Feb-2024</td><td>74.1 kg</td></tr></table></div>"
        },
        "status": "final",
        "code": {
          "coding": [
            {
              "code": "$29463-7",
              "system": "http://loinc.org",
              "display": "Body Weight"
            }
          ]
        },
        "subject": {
          "reference": "urn:uuid:bcef1bb7-bb27-45c9-82a0-86d5a256e93d",
          "display": "Jele Jurković"
        },
        "effectiveDateTime": "2024-02-28"
      }
    },
    {
      "fullUrl": "urn:uuid:2fadc43c-aeae-44f6-941a-6b9a874d1512",
      "resource": {
        "resourceType": "Observation",
        "id": "2fadc43c-aeae-44f6-941a-6b9a874d1512",
        "meta": {
          "profile": [
            "http://hl7.org/fhir/StructureDefinition/vitalsigns"
          ]
        },
        "category": [
          {
            "coding": [
              {
                "system": "http://terminology.hl7.org/CodeSystem/observation-category",
                "code": "vital-signs",
                "display": "Vital Signs"
              }
            ]
          }
        ],
        "valueQuantity": {
          "value": 28.7,
          "code": "kg/m2",
          "unit": "kg/m2"
        },
        "text": {
          "status": "generated",
          "div": "<div xmlns=\"http://www.w3.org/1999/xhtml\"><table class=\"hl7__ips\"><tr><th>Vital Sign</th><th>Date</th><th>Measurement</th></tr><tr><td>Body mass index (BMI) [Ratio]</td><td>28-Feb-2024</td><td>28.7 kg/m2</td></tr></table></div>"
        },
        "status": "final",
        "code": {
          "coding": [
            {
              "code": "$39156-5",
              "system": "http://loinc.org",
              "display": "Body mass index (BMI) [Ratio]"
            }
          ]
        },
        "subject": {
          "reference": "urn:uuid:bcef1bb7-bb27-45c9-82a0-86d5a256e93d",
          "display": "Jele Jurković"
        },
        "effectiveDateTime": "2024-02-28"
      }
    },
    {
      "fullUrl": "urn:uuid:fc984221-08b6-4721-89ce-e4739b7097e1",
      "resource": {
        "resourceType": "Observation",
        "id": "fc984221-08b6-4721-89ce-e4739b7097e1",
        "meta": {
          "profile": [
            "http://hl7.org/fhir/StructureDefinition/vitalsigns"
          ]
        },
        "category": [
          {
            "coding": [
              {
                "system": "http://terminology.hl7.org/CodeSystem/observation-category",
                "code": "vital-signs",
                "display": "Vital Signs"
              }
            ]
          }
        ],
        "valueQuantity": {
          "value": 82,
          "code": "mm[Hg]",
          "unit": "mm[Hg]"
        },
        "text": {
          "status": "generated",
          "div": "<div xmlns=\"http://www.w3.org/1999/xhtml\"><table class=\"hl7__ips\"><tr><th>Vital Sign</th><th>Date</th><th>Measurement</th></tr><tr><td>Diastolic Blood Pressure</td><td>28-Feb-2024</td><td>82 mm[Hg]</td></tr></table></div>"
        },
        "status": "final",
        "code": {
          "coding": [
            {
              "code": "$8462-4",
              "system": "http://loinc.org",
              "display": "Diastolic Blood Pressure"
            }
          ]
        },
        "subject": {
          "reference": "urn:uuid:bcef1bb7-bb27-45c9-82a0-86d5a256e93d",
          "display": "Jele Jurković"
        },
        "effectiveDateTime": "2024-02-28"
      }
    },
    {
      "fullUrl": "urn:uuid:f8352978-cf44-4397-baf2-4a10656d18d3",
      "resource": {
        "resourceType": "Observation",
        "id": "f8352978-cf44-4397-baf2-4a10656d18d3",
        "meta": {
          "profile": [
            "http://hl7.org/fhir/StructureDefinition/vitalsigns"
          ]
        },
        "category": [
          {
            "coding": [
              {
                "system": "http://terminology.hl7.org/CodeSystem/observation-category",
                "code": "vital-signs",
                "display": "Vital Signs"
              }
            ]
          }
        ],
        "valueQuantity": {
          "value": 112,
          "code": "mm[Hg]",
          "unit": "mm[Hg]"
        },
        "text": {
          "status": "generated",
          "div": "<div xmlns=\"http://www.w3.org/1999/xhtml\"><table class=\"hl7__ips\"><tr><th>Vital Sign</th><th>Date</th><th>Measurement</th></tr><tr><td>Systolic Blood Pressure</td><td>28-Feb-2024</td><td>112 mm[Hg]</td></tr></table></div>"
        },
        "status": "final",
        "code": {
          "coding": [
            {
              "code": "$8480-6",
              "system": "http://loinc.org",
              "display": "Systolic Blood Pressure"
            }
          ]
        },
        "subject": {
          "reference": "urn:uuid:bcef1bb7-bb27-45c9-82a0-86d5a256e93d",
          "display": "Jele Jurković"
        },
        "effectiveDateTime": "2024-02-28"
      }
    },
    {
      "fullUrl": "urn:uuid:5d8d0c74-43f9-472f-b69b-29563c8842b8",
      "resource": {
        "resourceType": "Observation",
        "id": "5d8d0c74-43f9-472f-b69b-29563c8842b8",
        "meta": {
          "profile": [
            "http://hl7.org/fhir/StructureDefinition/vitalsigns"
          ]
        },
        "category": [
          {
            "coding": [
              {
                "system": "http://terminology.hl7.org/CodeSystem/observation-category",
                "code": "vital-signs",
                "display": "Vital Signs"
              }
            ]
          }
        ],
        "valueQuantity": {
          "value": 71,
          "code": "/min",
          "unit": "/min"
        },
        "text": {
          "status": "generated",
          "div": "<div xmlns=\"http://www.w3.org/1999/xhtml\"><table class=\"hl7__ips\"><tr><th>Vital Sign</th><th>Date</th><th>Measurement</th></tr><tr><td>Heart rate</td><td>28-Feb-2024</td><td>71 /min</td></tr></table></div>"
        },
        "status": "final",
        "code": {
          "coding": [
            {
              "code": "$8867-4",
              "system": "http://loinc.org",
              "display": "Heart rate"
            }
          ]
        },
        "subject": {
          "reference": "urn:uuid:bcef1bb7-bb27-45c9-82a0-86d5a256e93d",
          "display": "Jele Jurković"
        },
        "effectiveDateTime": "2024-02-28"
      }
    },
    {
      "fullUrl": "urn:uuid:0d6eafa3-a787-454f-a41c-5c9a5cf99f7f",
      "resource": {
        "resourceType": "Observation",
        "id": "0d6eafa3-a787-454f-a41c-5c9a5cf99f7f",
        "meta": {
          "profile": [
            "http://hl7.org/fhir/StructureDefinition/vitalsigns"
          ]
        },
        "category": [
          {
            "coding": [
              {
                "system": "http://terminology.hl7.org/CodeSystem/observation-category",
                "code": "vital-signs",
                "display": "Vital Signs"
              }
            ]
          }
        ],
        "valueQuantity": {
          "value": 14,
          "code": "/min",
          "unit": "/min"
        },
        "text": {
          "status": "generated",
          "div": "<div xmlns=\"http://www.w3.org/1999/xhtml\"><table class=\"hl7__ips\"><tr><th>Vital Sign</th><th>Date</th><th>Measurement</th></tr><tr><td>Respiratory rate</td><td>28-Feb-2024</td><td>14 /min</td></tr></table></div>"
        },
        "status": "final",
        "code": {
          "coding": [
            {
              "code": "$9279-1",
              "system": "http://loinc.org",
              "display": "Respiratory rate"
            }
          ]
        },
        "subject": {
          "reference": "urn:uuid:bcef1bb7-bb27-45c9-82a0-86d5a256e93d",
          "display": "Jele Jurković"
        },
        "effectiveDateTime": "2024-02-28"
      }
    },
    {
      "fullUrl": "urn:uuid:8bc620b5-a9f1-4351-965e-84e16dd8d649",
      "resource": {
        "resourceType": "Observation",
        "id": "8bc620b5-a9f1-4351-965e-84e16dd8d649",
        "meta": {
          "profile": [
            "http://hl7.eu/fhir/laboratory/StructureDefinition/Observation-resultslab-eu-lab"
          ]
        },
        "performer": [
          {
            "display": "The Central European Lab"
          }
        ],
        "category": [
          {
            "coding": [
              {
                "system": "http://terminology.hl7.org/CodeSystem/observation-category",
                "code": "laboratory"
              }
            ]
          }
        ],
        "code": {
          "coding": [
            {
              "code": "4548-4",
              "system": "http://loinc.org",
              "display": "Hemoglobin A1c/Hemoglobin.total in Blood"
            }
          ],
          "text": "Hemoglobin A1c/Hemoglobin.total in Blood"
        },
        "valueQuantity": {
          "system": "http://unitsofmeasure.org",
          "value": 6.3,
          "unit": "%",
          "code": "%"
        },
        "referenceRange": [
          {
            "low": {
              "value": 4,
              "code": "%",
              "system": "http://unitsofmeasure.org"
            }
          },
          {
            "high": {
              "value": 6,
              "code": "%",
              "system": "http://unitsofmeasure.org"
            }
          }
        ],
        "interpretation": [
          {
            "coding": [
              {
                "code": "H",
                "system": "http://terminology.hl7.org/CodeSystem/v3-ObservationInterpretation",
                "display": "High"
              }
            ]
          }
        ],
        "text": {
          "status": "generated",
          "div": "<div xmlns=\"http://www.w3.org/1999/xhtml\"><table class=\"hl7__eu__lab__report\"><tr><th>Test</th><th>05-Mar-2025</th><th>Reference&#xA0;Range</th><th>Unit</th></tr><tr><td>Hemoglobin A1c/Hemoglobin.total in Blood</td><td>6.3</td><td>4 - 6</td><td>H</td><td>%</td></tr></table></div>"
        },
        "status": "final",
        "subject": {
          "reference": "urn:uuid:bcef1bb7-bb27-45c9-82a0-86d5a256e93d",
          "display": "Jele Jurković"
        },
        "effectiveDateTime": "2025-03-05T18:07:38Z"
      }
    },
    {
      "fullUrl": "urn:uuid:e8192576-9f07-4254-af10-88c505d05d93",
      "resource": {
        "resourceType": "Observation",
        "id": "e8192576-9f07-4254-af10-88c505d05d93",
        "meta": {
          "profile": [
            "http://hl7.eu/fhir/laboratory/StructureDefinition/Observation-resultslab-eu-lab"
          ]
        },
        "performer": [
          {
            "display": "The Central European Lab"
          }
        ],
        "category": [
          {
            "coding": [
              {
                "system": "http://terminology.hl7.org/CodeSystem/observation-category",
                "code": "laboratory"
              }
            ]
          }
        ],
        "code": {
          "coding": [
            {
              "code": "2339-0",
              "system": "http://loinc.org",
              "display": "Glucose [Mass/volume] in Blood"
            }
          ],
          "text": "Glucose [Mass/volume] in Blood"
        },
        "valueQuantity": {
          "system": "http://unitsofmeasure.org",
          "value": 88.8,
          "unit": "mg/dL",
          "code": "mg/dL"
        },
        "referenceRange": [
          {
            "low": {
              "value": 70,
              "code": "mg/dL",
              "system": "http://unitsofmeasure.org"
            }
          },
          {
            "high": {
              "value": 140,
              "code": "mg/dL",
              "system": "http://unitsofmeasure.org"
            }
          }
        ],
        "text": {
          "status": "generated",
          "div": "<div xmlns=\"http://www.w3.org/1999/xhtml\"><table class=\"hl7__eu__lab__report\"><tr><th>Test</th><th>05-Mar-2025</th><th>Reference&#xA0;Range</th><th>Unit</th></tr><tr><td>Glucose [Mass/volume] in Blood</td><td>88.8</td><td>70 - 140</td><td></td><td>mg/dL</td></tr></table></div>"
        },
        "status": "final",
        "subject": {
          "reference": "urn:uuid:bcef1bb7-bb27-45c9-82a0-86d5a256e93d",
          "display": "Jele Jurković"
        },
        "effectiveDateTime": "2025-03-05T18:07:38Z"
      }
    },
    {
      "fullUrl": "urn:uuid:5feff4d5-9649-45b7-ad31-436bcae5a447",
      "resource": {
        "resourceType": "Observation",
        "id": "5feff4d5-9649-45b7-ad31-436bcae5a447",
        "meta": {
          "profile": [
            "http://hl7.eu/fhir/laboratory/StructureDefinition/Observation-resultslab-eu-lab"
          ]
        },
        "performer": [
          {
            "display": "The Central European Lab"
          }
        ],
        "category": [
          {
            "coding": [
              {
                "system": "http://terminology.hl7.org/CodeSystem/observation-category",
                "code": "laboratory"
              }
            ]
          }
        ],
        "code": {
          "coding": [
            {
              "code": "6299-2",
              "system": "http://loinc.org",
              "display": "Urea nitrogen [Mass/volume] in Blood"
            }
          ],
          "text": "Urea nitrogen [Mass/volume] in Blood"
        },
        "valueQuantity": {
          "system": "http://unitsofmeasure.org",
          "value": 7.8,
          "unit": "mg/dL",
          "code": "mg/dL"
        },
        "referenceRange": [
          {
            "low": {
              "value": 7,
              "code": "mg/dL",
              "system": "http://unitsofmeasure.org"
            }
          },
          {
            "high": {
              "value": 50,
              "code": "mg/dL",
              "system": "http://unitsofmeasure.org"
            }
          }
        ],
        "text": {
          "status": "generated",
          "div": "<div xmlns=\"http://www.w3.org/1999/xhtml\"><table class=\"hl7__eu__lab__report\"><tr><th>Test</th><th>05-Mar-2025</th><th>Reference&#xA0;Range</th><th>Unit</th></tr><tr><td>Urea nitrogen [Mass/volume] in Blood</td><td>7.8</td><td>7 - 50</td><td></td><td>mg/dL</td></tr></table></div>"
        },
        "status": "final",
        "subject": {
          "reference": "urn:uuid:bcef1bb7-bb27-45c9-82a0-86d5a256e93d",
          "display": "Jele Jurković"
        },
        "effectiveDateTime": "2025-03-05T18:07:38Z"
      }
    },
    {
      "fullUrl": "urn:uuid:ff290f4a-7eba-48de-9114-16966326d766",
      "resource": {
        "resourceType": "Observation",
        "id": "ff290f4a-7eba-48de-9114-16966326d766",
        "meta": {
          "profile": [
            "http://hl7.eu/fhir/laboratory/StructureDefinition/Observation-resultslab-eu-lab"
          ]
        },
        "performer": [
          {
            "display": "The Central European Lab"
          }
        ],
        "category": [
          {
            "coding": [
              {
                "system": "http://terminology.hl7.org/CodeSystem/observation-category",
                "code": "laboratory"
              }
            ]
          }
        ],
        "code": {
          "coding": [
            {
              "code": "38483-4",
              "system": "http://loinc.org",
              "display": "Creatinine [Mass/volume] in Blood"
            }
          ],
          "text": "Creatinine [Mass/volume] in Blood"
        },
        "valueQuantity": {
          "system": "http://unitsofmeasure.org",
          "value": 0.6,
          "unit": "mg/dL",
          "code": "mg/dL"
        },
        "referenceRange": [
          {
            "low": {
              "value": 0.5,
              "code": "mg/dL",
              "system": "http://unitsofmeasure.org"
            }
          },
          {
            "high": {
              "value": 1.3,
              "code": "mg/dL",
              "system": "http://unitsofmeasure.org"
            }
          }
        ],
        "text": {
          "status": "generated",
          "div": "<div xmlns=\"http://www.w3.org/1999/xhtml\"><table class=\"hl7__eu__lab__report\"><tr><th>Test</th><th>05-Mar-2025</th><th>Reference&#xA0;Range</th><th>Unit</th></tr><tr><td>Creatinine [Mass/volume] in Blood</td><td>0.6</td><td>0.5 - 1.3</td><td></td><td>mg/dL</td></tr></table></div>"
        },
        "status": "final",
        "subject": {
          "reference": "urn:uuid:bcef1bb7-bb27-45c9-82a0-86d5a256e93d",
          "display": "Jele Jurković"
        },
        "effectiveDateTime": "2025-03-05T18:07:38Z"
      }
    },
    {
      "fullUrl": "urn:uuid:bc567b87-c950-4055-bbae-b34ea17772ff",
      "resource": {
        "resourceType": "Observation",
        "id": "bc567b87-c950-4055-bbae-b34ea17772ff",
        "meta": {
          "profile": [
            "http://hl7.eu/fhir/laboratory/StructureDefinition/Observation-resultslab-eu-lab"
          ]
        },
        "performer": [
          {
            "display": "The Central European Lab"
          }
        ],
        "category": [
          {
            "coding": [
              {
                "system": "http://terminology.hl7.org/CodeSystem/observation-category",
                "code": "laboratory"
              }
            ]
          }
        ],
        "code": {
          "coding": [
            {
              "code": "49765-1",
              "system": "http://loinc.org",
              "display": "Calcium [Mass/volume] in Blood"
            }
          ],
          "text": "Calcium [Mass/volume] in Blood"
        },
        "valueQuantity": {
          "system": "http://unitsofmeasure.org",
          "value": 10,
          "unit": "mg/dL",
          "code": "mg/dL"
        },
        "referenceRange": [
          {
            "low": {
              "value": 8.5,
              "code": "mg/dL",
              "system": "http://unitsofmeasure.org"
            }
          },
          {
            "high": {
              "value": 10.4,
              "code": "mg/dL",
              "system": "http://unitsofmeasure.org"
            }
          }
        ],
        "text": {
          "status": "generated",
          "div": "<div xmlns=\"http://www.w3.org/1999/xhtml\"><table class=\"hl7__eu__lab__report\"><tr><th>Test</th><th>05-Mar-2025</th><th>Reference&#xA0;Range</th><th>Unit</th></tr><tr><td>Calcium [Mass/volume] in Blood</td><td>10.0</td><td>8.5 - 10.4</td><td></td><td>mg/dL</td></tr></table></div>"
        },
        "status": "final",
        "subject": {
          "reference": "urn:uuid:bcef1bb7-bb27-45c9-82a0-86d5a256e93d",
          "display": "Jele Jurković"
        },
        "effectiveDateTime": "2025-03-05T18:07:38Z"
      }
    },
    {
      "fullUrl": "urn:uuid:26cf85a2-d16b-412c-9f06-9d48142b3ec1",
      "resource": {
        "resourceType": "Observation",
        "id": "26cf85a2-d16b-412c-9f06-9d48142b3ec1",
        "meta": {
          "profile": [
            "http://hl7.eu/fhir/laboratory/StructureDefinition/Observation-resultslab-eu-lab"
          ]
        },
        "performer": [
          {
            "display": "The Central European Lab"
          }
        ],
        "category": [
          {
            "coding": [
              {
                "system": "http://terminology.hl7.org/CodeSystem/observation-category",
                "code": "laboratory"
              }
            ]
          }
        ],
        "code": {
          "coding": [
            {
              "code": "2947-0",
              "system": "http://loinc.org",
              "display": "Sodium [Moles/volume] in Blood"
            }
          ],
          "text": "Sodium [Moles/volume] in Blood"
        },
        "valueQuantity": {
          "system": "http://unitsofmeasure.org",
          "value": 142.1,
          "unit": "mmol/L",
          "code": "mmol/L"
        },
        "referenceRange": [
          {
            "low": {
              "value": 135,
              "code": "mmol/L",
              "system": "http://unitsofmeasure.org"
            }
          },
          {
            "high": {
              "value": 145,
              "code": "mmol/L",
              "system": "http://unitsofmeasure.org"
            }
          }
        ],
        "text": {
          "status": "generated",
          "div": "<div xmlns=\"http://www.w3.org/1999/xhtml\"><table class=\"hl7__eu__lab__report\"><tr><th>Test</th><th>05-Mar-2025</th><th>Reference&#xA0;Range</th><th>Unit</th></tr><tr><td>Sodium [Moles/volume] in Blood</td><td>142.1</td><td>135 - 145</td><td></td><td>mmol/L</td></tr></table></div>"
        },
        "status": "final",
        "subject": {
          "reference": "urn:uuid:bcef1bb7-bb27-45c9-82a0-86d5a256e93d",
          "display": "Jele Jurković"
        },
        "effectiveDateTime": "2025-03-05T18:07:38Z"
      }
    },
    {
      "fullUrl": "urn:uuid:9d149d55-303e-43a9-ac54-5f1331132c14",
      "resource": {
        "resourceType": "Observation",
        "id": "9d149d55-303e-43a9-ac54-5f1331132c14",
        "meta": {
          "profile": [
            "http://hl7.eu/fhir/laboratory/StructureDefinition/Observation-resultslab-eu-lab"
          ]
        },
        "performer": [
          {
            "display": "The Central European Lab"
          }
        ],
        "category": [
          {
            "coding": [
              {
                "system": "http://terminology.hl7.org/CodeSystem/observation-category",
                "code": "laboratory"
              }
            ]
          }
        ],
        "code": {
          "coding": [
            {
              "code": "6298-4",
              "system": "http://loinc.org",
              "display": "Potassium [Moles/volume] in Blood"
            }
          ],
          "text": "Potassium [Moles/volume] in Blood"
        },
        "valueQuantity": {
          "system": "http://unitsofmeasure.org",
          "value": 4.8,
          "unit": "mmol/L",
          "code": "mmol/L"
        },
        "referenceRange": [
          {
            "low": {
              "value": 3.5,
              "code": "mmol/L",
              "system": "http://unitsofmeasure.org"
            }
          },
          {
            "high": {
              "value": 5.3,
              "code": "mmol/L",
              "system": "http://unitsofmeasure.org"
            }
          }
        ],
        "text": {
          "status": "generated",
          "div": "<div xmlns=\"http://www.w3.org/1999/xhtml\"><table class=\"hl7__eu__lab__report\"><tr><th>Test</th><th>05-Mar-2025</th><th>Reference&#xA0;Range</th><th>Unit</th></tr><tr><td>Potassium [Moles/volume] in Blood</td><td>4.8</td><td>3.5 - 5.3</td><td></td><td>mmol/L</td></tr></table></div>"
        },
        "status": "final",
        "subject": {
          "reference": "urn:uuid:bcef1bb7-bb27-45c9-82a0-86d5a256e93d",
          "display": "Jele Jurković"
        },
        "effectiveDateTime": "2025-03-05T18:07:38Z"
      }
    },
    {
      "fullUrl": "urn:uuid:cc7265e4-907c-49c5-beae-ecb660b0c3a8",
      "resource": {
        "resourceType": "Observation",
        "id": "cc7265e4-907c-49c5-beae-ecb660b0c3a8",
        "meta": {
          "profile": [
            "http://hl7.eu/fhir/laboratory/StructureDefinition/Observation-resultslab-eu-lab"
          ]
        },
        "performer": [
          {
            "display": "The Central European Lab"
          }
        ],
        "category": [
          {
            "coding": [
              {
                "system": "http://terminology.hl7.org/CodeSystem/observation-category",
                "code": "laboratory"
              }
            ]
          }
        ],
        "code": {
          "coding": [
            {
              "code": "2069-3",
              "system": "http://loinc.org",
              "display": "Chloride [Moles/volume] in Blood"
            }
          ],
          "text": "Chloride [Moles/volume] in Blood"
        },
        "valueQuantity": {
          "system": "http://unitsofmeasure.org",
          "value": 103.4,
          "unit": "mmol/L",
          "code": "mmol/L"
        },
        "referenceRange": [
          {
            "low": {
              "value": 98,
              "code": "mmol/L",
              "system": "http://unitsofmeasure.org"
            }
          },
          {
            "high": {
              "value": 110,
              "code": "mmol/L",
              "system": "http://unitsofmeasure.org"
            }
          }
        ],
        "text": {
          "status": "generated",
          "div": "<div xmlns=\"http://www.w3.org/1999/xhtml\"><table class=\"hl7__eu__lab__report\"><tr><th>Test</th><th>05-Mar-2025</th><th>Reference&#xA0;Range</th><th>Unit</th></tr><tr><td>Chloride [Moles/volume] in Blood</td><td>103.4</td><td>98 - 110</td><td></td><td>mmol/L</td></tr></table></div>"
        },
        "status": "final",
        "subject": {
          "reference": "urn:uuid:bcef1bb7-bb27-45c9-82a0-86d5a256e93d",
          "display": "Jele Jurković"
        },
        "effectiveDateTime": "2025-03-05T18:07:38Z"
      }
    },
    {
      "fullUrl": "urn:uuid:020400f9-01e0-41d8-8d61-81d671aac6a6",
      "resource": {
        "resourceType": "Observation",
        "id": "020400f9-01e0-41d8-8d61-81d671aac6a6",
        "meta": {
          "profile": [
            "http://hl7.eu/fhir/laboratory/StructureDefinition/Observation-resultslab-eu-lab"
          ]
        },
        "performer": [
          {
            "display": "The Central European Lab"
          }
        ],
        "category": [
          {
            "coding": [
              {
                "system": "http://terminology.hl7.org/CodeSystem/observation-category",
                "code": "laboratory"
              }
            ]
          }
        ],
        "code": {
          "coding": [
            {
              "code": "20565-8",
              "system": "http://loinc.org",
              "display": "Carbon dioxide, total [Moles/volume] in Blood"
            }
          ],
          "text": "Carbon dioxide, total [Moles/volume] in Blood"
        },
        "valueQuantity": {
          "system": "http://unitsofmeasure.org",
          "value": 24.6,
          "unit": "mmol/L",
          "code": "mmol/L"
        },
        "referenceRange": [
          {
            "low": {
              "value": 22,
              "code": "mmol/L",
              "system": "http://unitsofmeasure.org"
            }
          },
          {
            "high": {
              "value": 32,
              "code": "mmol/L",
              "system": "http://unitsofmeasure.org"
            }
          }
        ],
        "text": {
          "status": "generated",
          "div": "<div xmlns=\"http://www.w3.org/1999/xhtml\"><table class=\"hl7__eu__lab__report\"><tr><th>Test</th><th>05-Mar-2025</th><th>Reference&#xA0;Range</th><th>Unit</th></tr><tr><td>Carbon dioxide, total [Moles/volume] in Blood</td><td>24.6</td><td>22 - 32</td><td></td><td>mmol/L</td></tr></table></div>"
        },
        "status": "final",
        "subject": {
          "reference": "urn:uuid:bcef1bb7-bb27-45c9-82a0-86d5a256e93d",
          "display": "Jele Jurković"
        },
        "effectiveDateTime": "2025-03-05T18:07:38Z"
      }
    },
    {
      "fullUrl": "urn:uuid:a5107fde-2a28-4949-8fd4-c556d0529b97",
      "resource": {
        "resourceType": "DeviceUseStatement",
        "id": "a5107fde-2a28-4949-8fd4-c556d0529b97",
        "meta": {
          "profile": [
            "http://hl7.eu/fhir/eps/StructureDefinition/deviceUseStatement-eu-eps"
          ]
        },
        "timingPeriod": {
          "start": "1973-12-05"
        },
        "text": {
          "status": "generated",
          "div": "<div xmlns=\"http://www.w3.org/1999/xhtml\"><table class=\"hl7__ips\"><tr><td>Blood glucose meter (physical object)</td><td><span class=\"nb\">05-Dec-1973</span></td></tr></table></div>"
        },
        "status": "active",
        "device": {
          "reference": "urn:uuid:310723d5-9b03-4f34-8df2-b9839f5fd0da",
          "display": "Blood glucose meter (physical object)"
        },
        "subject": {
          "reference": "urn:uuid:bcef1bb7-bb27-45c9-82a0-86d5a256e93d",
          "display": "Jele Jurković"
        }
      }
    },
    {
      "fullUrl": "urn:uuid:310723d5-9b03-4f34-8df2-b9839f5fd0da",
      "resource": {
        "resourceType": "Device",
        "id": "310723d5-9b03-4f34-8df2-b9839f5fd0da",
        "meta": {
          "profile": [
            "http://hl7.eu/fhir/eps/StructureDefinition/device-eu-eps"
          ]
        },
        "udiCarrier": [
          {
            "id": "(01)69889514035536(11)731114(17)981129(10)3084052321650802(21)2971644095"
          }
        ],
        "status": "active",
        "patient": {
          "reference": "urn:uuid:bcef1bb7-bb27-45c9-82a0-86d5a256e93d",
          "display": "Jele Jurković"
        },
        "type": {
          "coding": [
            {
              "code": "337414009",
              "system": "http://snomed.info/sct",
              "display": "Blood glucose meter (physical object)"
            }
          ]
        }
      }
    },
    {
      "fullUrl": "urn:uuid:d8a08023-dfb4-44ae-8859-496f09234b54",
      "resource": {
        "resourceType": "Device",
        "id": "d8a08023-dfb4-44ae-8859-496f09234b54",
        "deviceName": [
          {
            "name": "SYNDERAI Synthetic Generator",
            "type": "manufacturer-name"
          }
        ],
        "version": [
          {
            "value": "5.0"
          }
        ],
        "text": {
          "status": "generated",
          "div": "<div xmlns=\"http://www.w3.org/1999/xhtml\">SYNDERAI Synthetic Generator v5.0</div>"
        },
        "status": "active\"",
        "distinctIdentifier": "synderai-generator-50",
        "manufacturer": "SYNDERAI Project"
      }
    },
    {
      "fullUrl": "urn:uuid:3b107459-99dd-42db-8d3c-35af8d5b836c",
      "resource": {
        "resourceType": "Provenance",
        "id": "3b107459-99dd-42db-8d3c-35af8d5b836c",
        "target": [
          {
            "reference": "Patient/bcef1bb7-bb27-45c9-82a0-86d5a256e93d"
          },
          {
            "reference": "Bundle/3f901372-6cdb-4033-918a-7e45c704d619"
          },
          {
            "reference": "Composition/f8bd5811-768b-4c7d-83e3-86d192996fed"
          },
          {
            "reference": "PractitionerRole/d3f90690-5754-487c-ad53-f0c6cff9eeeb"
          },
          {
            "reference": "Organization/a2f91b0f-3092-4048-9498-4e73153252b7"
          },
          {
            "reference": "Practitioner/7995c38b-dc81-4919-9125-fe6138ec5126"
          }
        ],
        "activity": {
          "text": "Synthetic Example Data Generation"
        },
        "policy": [
          "https://synderai.net/synderai-synthetic-data-policy"
        ],
        "agent": [
          {
            "type": {
              "text": "author"
            },
            "who": {
              "reference": "Device/d8a08023-dfb4-44ae-8859-496f09234b54"
            }
          }
        ],
        "reason": [
          {
            "text": "Interoperability Testing and Training (non-clinical use)"
          }
        ],
        "text": {
          "status": "generated",
          "div": "<div xmlns=\"http://www.w3.org/1999/xhtml\">Provenance for SYNDERAI Synthetic Example Data Resource</div>"
        },
        "recorded": "2025-03-05T18:07:38Z"
      }
    }
  ],
  "type": "document",
  "timestamp": "2025-03-05T18:07:38Z"
}
