{
  "resourceType": "Bundle",
  "id": "fe15b42a-60e4-47d7-8840-ef7c412293ee",
  "meta": {
    "profile": [
      "http://hl7.eu/fhir/eps/StructureDefinition/bundle-eu-eps"
    ]
  },
  "identifier": {
    "assigner": {
      "display": "HL7 Europe"
    },
    "system": "urn:oid:2.16.840.1.113883.2.51.999",
    "value": "4db99642-06f4-45e2-b7c1-8894586e6044"
  },
  "entry": [
    {
      "fullUrl": "urn:uuid:9970dad8-f036-421a-b25f-efee9c4c91da",
      "resource": {
        "resourceType": "Composition",
        "id": "9970dad8-f036-421a-b25f-efee9c4c91da",
        "meta": {
          "security": [
            {
              "system": "http://terminology.hl7.org/CodeSystem/v3-ActReason",
              "code": "HTEST"
            },
            {
              "system": "http://terminology.hl7.org/CodeSystem/v3-ActReason",
              "code": "TRAIN"
            }
          ],
          "tag": [
            {
              "system": "https://synderai.net/fhir/CodeSystem/tags",
              "code": "synthetic",
              "display": "SYNDERAI Synthetic data"
            }
          ],
          "profile": [
            "http://hl7.eu/fhir/eps/StructureDefinition/composition-eu-eps"
          ]
        },
        "identifier": {
          "assigner": {
            "display": "HL7 Europe"
          },
          "system": "urn:oid:2.16.840.1.113883.2.51.999",
          "value": "23dd5416-1950-4ce1-8b40-98d2fff0feff"
        },
        "type": {
          "coding": [
            {
              "system": "http://loinc.org",
              "code": "60591-5",
              "display": "Patient summary Document"
            }
          ],
          "text": "Patient summary Document"
        },
        "author": [
          {
            "reference": "urn:uuid:c54be3ff-a24c-4fa4-a84f-fb6b39587620"
          }
        ],
        "section": [
          {
            "text": {
              "status": "generated",
              "div": "<div xmlns=\"http://www.w3.org/1999/xhtml\"><table class=\"hl7__ips\"><tr><th>Condition</th><th>Onset Date</th><th>Status</th></tr><tr><td>Osteoporosis</td><td><span class=\"nb\">28-Aug-2018</span></td><td>active</td></tr><tr><td>Impacted molars</td><td><span class=\"nb\">03-Apr-2007</span></td><td>active</td></tr><tr><td>Ischemic heart disease</td><td><span class=\"nb\">05-May-1998</span></td><td>active</td></tr><tr><td>Chronic sinusitis</td><td><span class=\"nb\">22-Oct-1985</span></td><td>active</td></tr><tr><td>Recurrent urinary tract infection</td><td><span class=\"nb\">12-Mar-1974</span></td><td>active</td></tr><tr><td>Prediabetes</td><td><span class=\"nb\">10-Jul-1973</span></td><td>active</td></tr><tr><td>Anemia</td><td><span class=\"nb\">10-Jul-1973</span></td><td>active</td></tr></table></div>"
            },
            "entry": [
              {
                "reference": "urn:uuid:b8a7657b-322e-416a-b6e6-17dfb92a116c"
              },
              {
                "reference": "urn:uuid:316e8cd5-2c5a-4c5b-985d-e421e6bd4093"
              },
              {
                "reference": "urn:uuid:e44c47a9-7875-4f93-bbfb-cea46060818e"
              },
              {
                "reference": "urn:uuid:5edfae42-782e-4381-800a-06b74025bda7"
              },
              {
                "reference": "urn:uuid:dba88f59-3364-4971-9310-f88c1db06ea8"
              },
              {
                "reference": "urn:uuid:055ccd28-be93-452d-a2f1-03c50384a188"
              },
              {
                "reference": "urn:uuid:05c8a7c8-ca82-4860-9abb-9b4ba7c25585"
              }
            ],
            "code": {
              "coding": [
                {
                  "system": "http://loinc.org",
                  "code": "11450-4",
                  "display": "Problem list - Reported"
                }
              ]
            },
            "title": "Problem list"
          },
          {
            "text": {
              "status": "generated",
              "div": "<div xmlns=\"http://www.w3.org/1999/xhtml\"><table class=\"hl7__ips\"><tr><th>Medication</th><th>Since</th><th>Form</th><th>Dosage</th><th>Reason</th></tr><tr><td>Acetaminophen 325 mg oral tablet</td><td><span class=\"nb\">2024-09-30</span></td><td>-</td><td>1 tablet (325 mg) by mouth every 4 to 6 hours as needed</td><td>-</td></tr><tr><td>Alendronic acid (as alendronate sodium) 10 mg oral tablet</td><td><span class=\"nb\">2024-09-30</span></td><td>-</td><td>1 tablet (10 mg) once daily</td><td>Osteoporosis (disorder)</td></tr><tr><td>Acetaminophen 300 mg and codeine phosphate 15 mg oral tablet</td><td><span class=\"nb\">2024-09-30</span></td><td>-</td><td>1 tablet (300 mg / 15 mg) every 4 to 6 hours as needed</td><td>-</td></tr><tr><td>Acetaminophen 300 mg and hydrocodone bitartrate 5 mg oral tablet</td><td><span class=\"nb\">2014-06-06</span></td><td>-</td><td>1 tablet (300 mg/5 mg) by mouth every 4 to 6 hours as needed for pain</td><td>-</td></tr><tr><td>Clopidogrel (as clopidogrel bisulfate) 75 mg oral tablet</td><td><span class=\"nb\">1998-05-11</span></td><td>-</td><td>1 tablet (75 mg) by mouth once daily</td><td>-</td></tr><tr><td>Simvastatin 20 mg oral tablet</td><td><span class=\"nb\">1998-05-11</span></td><td>-</td><td>1 tablet (20 mg) by mouth once daily</td><td>-</td></tr><tr><td>Nitroglycerin 400 microgram/actuation sublingual spray</td><td><span class=\"nb\">1998-05-11</span></td><td>-</td><td>400 micrograms (1 spray) sublingually as needed for chest pain, may repeat every 5 minutes as needed, up to 3 sprays in 15 minutes</td><td>-</td></tr><tr><td>Metoprolol tartrate (as metoprolol succinate) 100 mg prolonged-release oral tablet</td><td><span class=\"nb\">1998-05-11</span></td><td>-</td><td>1 tablet (100 mg) once daily</td><td>-</td></tr></table></div>"
            },
            "entry": [
              {
                "reference": "urn:uuid:846d8a1f-2756-4eba-9b62-a0dd326b4cd8"
              },
              {
                "reference": "urn:uuid:3290cfb0-470e-45ed-a5dd-2ae0b51a1500"
              },
              {
                "reference": "urn:uuid:b8389efe-8c39-417a-8745-cb9aac65a93d"
              },
              {
                "reference": "urn:uuid:0d012ad9-f593-4072-9dd6-51e4e180d529"
              },
              {
                "reference": "urn:uuid:b7e8dbdc-d40b-4322-94e1-91f89e3ee3d3"
              },
              {
                "reference": "urn:uuid:2e90b163-c4ad-41a8-b1df-60d0335688b8"
              },
              {
                "reference": "urn:uuid:4ded1031-c451-402b-a481-98b50cd11fb1"
              },
              {
                "reference": "urn:uuid:6d5e312c-ac11-4412-beac-7478d07ded9a"
              }
            ],
            "code": {
              "coding": [
                {
                  "system": "http://loinc.org",
                  "code": "10160-0",
                  "display": "History of Medication use Narrative"
                }
              ]
            },
            "title": "Medication list"
          },
          {
            "text": {
              "status": "generated",
              "div": "<div xmlns=\"http://www.w3.org/1999/xhtml\"><table class=\"hl7__ips\"><tr><th>Vaccine</th><th>Date</th></tr><tr><td>Influenza virus antigen only vaccine product</td><td><span class=\"nb\">30-Sep-2024</span></td></tr><tr><td>SARS-CoV-2 mRNA vaccine</td><td><span class=\"nb\">29-Mar-2021</span></td></tr><tr><td>Clostridium tetani toxoid antigen adsorbed only vaccine product</td><td><span class=\"nb\">02-Sep-2019</span></td></tr></table></div>"
            },
            "entry": [
              {
                "reference": "urn:uuid:fa032dbd-fd34-4bf9-a14c-2b827aabd3b5"
              },
              {
                "reference": "urn:uuid:b5d0dd16-afa8-48e8-ab03-7a0fe34ac04f"
              },
              {
                "reference": "urn:uuid:f65bea32-44c4-4787-bfd7-fd2711c79dfc"
              }
            ],
            "code": {
              "coding": [
                {
                  "system": "http://loinc.org",
                  "code": "11369-6",
                  "display": "History of Immunization note"
                }
              ]
            },
            "title": "Immunizations list"
          },
          {
            "text": {
              "status": "generated",
              "div": "<div xmlns=\"http://www.w3.org/1999/xhtml\"><table class=\"hl7__ips\"><tr><th>Procedure</th><th>Date</th><th>Reason</th></tr><tr><td>Pre-discharge assessment</td><td><span class=\"nb\">21-Jun-2023</span></td><td>-</td></tr><tr><td>Discharge from skilled nursing facility (procedure)</td><td><span class=\"nb\">21-Jun-2023</span></td><td>-</td></tr><tr><td>Nursing care/supplementary surveillance</td><td><span class=\"nb\">20-Jun-2023</span></td><td>-</td></tr><tr><td>Physical therapy procedure</td><td><span class=\"nb\">19-Jun-2023</span></td><td>-</td></tr><tr><td>Professional / ancillary services care</td><td><span class=\"nb\">17-Jun-2023</span></td><td>-</td></tr><tr><td>Speech and language therapy regime</td><td><span class=\"nb\">14-Jun-2023</span></td><td>-</td></tr><tr><td>Occupational therapy</td><td><span class=\"nb\">10-Jun-2023</span></td><td>-</td></tr><tr><td>History AND physical examination</td><td><span class=\"nb\">08-May-2023</span></td><td>-</td></tr><tr><td>Initial patient assessment</td><td><span class=\"nb\">08-May-2023</span></td><td>-</td></tr><tr><td>Development of individualized plan of care</td><td><span class=\"nb\">08-May-2023</span></td><td>-</td></tr></table></div>"
            },
            "entry": [
              {
                "reference": "urn:uuid:fedcb130-1b8e-4383-99f7-80c2860cdd55"
              },
              {
                "reference": "urn:uuid:ea863dab-f3ac-4254-82ff-077366e31722"
              },
              {
                "reference": "urn:uuid:5d9fac08-001a-4c95-bf69-d8292c943fa6"
              },
              {
                "reference": "urn:uuid:9895a4e8-2993-4eb1-ae22-34c6295c774d"
              },
              {
                "reference": "urn:uuid:1a25ef29-ad2d-4bd5-aad3-ee365ce9d4c5"
              },
              {
                "reference": "urn:uuid:36b955ce-78a5-49bb-ad7a-3d26fc1851a9"
              },
              {
                "reference": "urn:uuid:b32c0624-efb6-45f7-be48-f27804c98adb"
              },
              {
                "reference": "urn:uuid:29dcb75c-4960-4fd4-a069-37b7eb325a90"
              },
              {
                "reference": "urn:uuid:62b6ea3c-959e-46ab-b927-9df97b58470b"
              },
              {
                "reference": "urn:uuid:f959726a-a790-4397-b03e-0300d31f2c79"
              }
            ],
            "code": {
              "coding": [
                {
                  "system": "http://loinc.org",
                  "code": "47519-4",
                  "display": "History of Procedures Document"
                }
              ]
            },
            "title": "Procedure History list"
          },
          {
            "text": {
              "status": "generated",
              "div": "<div xmlns=\"http://www.w3.org/1999/xhtml\"><table class=\"hl7__ips\"><tr><th>Allergy/Intolerance</th><th>Onset Date</th><th>Status</th><th>Type</th><th>Reaction</th></tr><tr><td></td><td>?</td><td>active</td><td>?</td><td></td></tr></table></div>"
            },
            "entry": [
              {
                "reference": "urn:uuid:f5af13b6-54dc-476b-9504-a33af06739c2"
              }
            ],
            "code": {
              "coding": [
                {
                  "system": "http://loinc.org",
                  "code": "48765-2",
                  "display": "Allergies and adverse reactions Document"
                }
              ]
            },
            "title": "Allergies and Intolerances"
          },
          {
            "text": {
              "status": "generated",
              "div": "<div xmlns=\"http://www.w3.org/1999/xhtml\"><table class=\"hl7__ips\"><tr><th>Active Planned Care / Goals</th><th>Start Date</th><th>Reason</th></tr><tr><td>Therapy</td><td><span class=\"nb\">07-Apr-2014</span></td><td>-</td></tr><tr><td>Diabetes self management plan</td><td><span class=\"nb\">10-Jul-1973</span></td><td>Prediabetes</td></tr><tr><td><ul><li>Maintain hemoglobin A1c below 6.5% through lifestyle modification and self-management.</li><li>Achieve and maintain a healthy body weight as part of diabetes self-management.</li><li>Engage in at least 150 minutes of moderate-intensity physical activity per week.</li></ul></td><td></td><td></td></tr><tr><th>Immunization Recommendation</th><th>Due Date</th><th>Reason</th></tr><tr><td>Vaccine product containing only Influenza virus antigen (medicinal product)</td><td><span class=\"nb\">01-Oct-2025</span></td><td>Annual seasonal influenza vaccination</td></tr></table></div>"
            },
            "entry": [
              {
                "reference": "urn:uuid:83a3d482-01a3-46c9-a851-333af1e2ef4e"
              },
              {
                "reference": "urn:uuid:5ba98e64-b8d2-44a2-8dd8-f9b4afde8246"
              },
              {
                "reference": "urn:uuid:8f9b27e0-5ee0-4552-bf89-ed3e8ec08276"
              }
            ],
            "code": {
              "coding": [
                {
                  "system": "http://loinc.org",
                  "code": "18776-5",
                  "display": "Plan of care note"
                }
              ]
            },
            "title": "Care Plan"
          },
          {
            "text": {
              "status": "generated",
              "div": "<div xmlns=\"http://www.w3.org/1999/xhtml\"><table class=\"hl7__ips\"><tr><th>Vital Signs</th><th>2024-09-30</th><th>2023-09-25</th></tr><tr><td>Body Height</td><td>171.6 cm</td><td>171.6 cm</td></tr><tr><td>Pain severity - 0-10 verbal numeric rating [Score] - Reported</td><td>1 {score}</td><td>1 {score}</td></tr><tr><td>Body Weight</td><td>89.4 kg</td><td>89.4 kg</td></tr><tr><td>Body mass index (BMI) [Ratio]</td><td>30.4 kg/m2</td><td>30.4 kg/m2</td></tr><tr><td>Diastolic Blood Pressure</td><td>66 mm[Hg]</td><td>61 mm[Hg]</td></tr><tr><td>Systolic Blood Pressure</td><td>97 mm[Hg]</td><td>109 mm[Hg]</td></tr><tr><td>Heart rate</td><td>68 /min</td><td>61 /min</td></tr><tr><td>Respiratory rate</td><td>13 /min</td><td>13 /min</td></tr></table></div>"
            },
            "entry": [
              {
                "reference": "urn:uuid:79d582ad-54ff-44ec-ac2a-fc4d26f6e6fd"
              },
              {
                "reference": "urn:uuid:df4595b9-655c-4893-bce1-04d5e62ee3e5"
              },
              {
                "reference": "urn:uuid:4d161273-0076-4e02-ab1c-0100231fa91e"
              },
              {
                "reference": "urn:uuid:21e7ec9f-8904-4c0f-a42c-35fb7d763916"
              },
              {
                "reference": "urn:uuid:47e24d03-1ad6-4bc3-9e6d-4febf6e21c7f"
              },
              {
                "reference": "urn:uuid:08b4ce33-f003-4c4a-b2d4-245f4c06b0f8"
              },
              {
                "reference": "urn:uuid:1db5b4b3-f40f-43ba-9902-b08c1fad626e"
              },
              {
                "reference": "urn:uuid:51a63e57-fbd8-4294-a874-b5394fbf1e1b"
              },
              {
                "reference": "urn:uuid:fcf99632-5851-4526-a801-67527e7b106a"
              },
              {
                "reference": "urn:uuid:ee258c6c-5e04-46de-aebc-aaaee62f8b3d"
              },
              {
                "reference": "urn:uuid:97db9fea-ff20-4340-8329-98efe601a816"
              },
              {
                "reference": "urn:uuid:4491d634-f29d-4fa7-a9e6-26eb19bc5d8d"
              },
              {
                "reference": "urn:uuid:783e6035-639d-4066-81b2-e143c85cd707"
              },
              {
                "reference": "urn:uuid:51dc3f80-1abd-4efe-b64c-be8185207973"
              },
              {
                "reference": "urn:uuid:c5ab3f2c-c0ac-4ef8-826f-6d4f360dce41"
              },
              {
                "reference": "urn:uuid:da36a0b9-8346-4c06-8141-37491f15e293"
              }
            ],
            "code": {
              "coding": [
                {
                  "system": "http://loinc.org",
                  "code": "8716-3",
                  "display": "Vital signs note"
                }
              ]
            },
            "title": "Vital Signs"
          },
          {
            "text": {
              "status": "generated",
              "div": "<div xmlns=\"http://www.w3.org/1999/xhtml\"><table class=\"hl7__ips\"><table class=\"hl7__ips\"><thead><tr><th>Recent Lab Observations</th><th>01-OCT-2024</th><th>Reference&#xA0;Range</th><th>Unit</th></tr></thead><tbody><tr><td>Hemoglobin A1c/Hemoglobin.total in Blood</td><td>6.2</td><td>4.5 - 6.4</td><td>%</td></tr><tr><td>Glucose [Mass/volume] in Blood</td><td>84.0</td><td>70 - 99</td><td>mg/dL</td></tr><tr><td>Urea nitrogen [Mass/volume] in Blood</td><td>7.9</td><td>7 - 20</td><td>mg/dL</td></tr><tr><td>Creatinine [Mass/volume] in Blood</td><td>0.9</td><td>0.9 - 1.3</td><td>mg/dL</td></tr><tr><td>Calcium [Mass/volume] in Blood</td><td>9.3</td><td>8.6 - 10.2</td><td>mg/dL</td></tr><tr><td>Sodium [Moles/volume] in Blood</td><td>140.1</td><td>135 - 145</td><td>mmol/L</td></tr><tr><td>Potassium [Moles/volume] in Blood</td><td>4.3</td><td>3.5 - 5.1</td><td>mmol/L</td></tr><tr><td>Chloride [Moles/volume] in Blood</td><td>104.3</td><td>98 - 108</td><td>mmol/L</td></tr><tr><td>Carbon dioxide, total [Moles/volume] in Blood</td><td><strong>20.8 L</strong></td><td>22 - 29</td><td>mmol/L</td></tr></tbody></table></table></div>"
            },
            "entry": [
              {
                "reference": "urn:uuid:223ef8a5-1fb3-4bb1-98df-d9fd2f962975"
              },
              {
                "reference": "urn:uuid:39b462d0-e20b-4b1b-9043-b4f9cde47c8a"
              },
              {
                "reference": "urn:uuid:2d68effe-eb4f-4652-b5d7-84091e388ac9"
              },
              {
                "reference": "urn:uuid:e642b8ce-e5d1-4636-a4a4-3d280596136e"
              },
              {
                "reference": "urn:uuid:adfa0ad2-09c4-445a-b588-3466262fe377"
              },
              {
                "reference": "urn:uuid:02af9394-8d2d-46b5-a05e-cd59c43a53fa"
              },
              {
                "reference": "urn:uuid:7086206e-b631-489f-9cf7-e0fe7a1559f9"
              },
              {
                "reference": "urn:uuid:7a0735eb-583c-4406-92e7-47f24eef6fc1"
              },
              {
                "reference": "urn:uuid:03d0e636-0a42-4adb-91c7-825ac4252d17"
              }
            ],
            "code": {
              "coding": [
                {
                  "system": "http://loinc.org",
                  "code": "30954-2",
                  "display": "Relevant diagnostic tests/laboratory data note"
                }
              ]
            },
            "title": "Relevant diagnostic tests/laboratory data"
          },
          {
            "text": {
              "status": "generated",
              "div": "<div xmlns=\"http://www.w3.org/1999/xhtml\"><table class=\"hl7__ips\"><tr><th>Device</th><th>Date (since)</th></tr><tr><td>Home nebulizer (physical object)</td><td><span class=\"nb\">22-Oct-1985</span></td></tr><tr><td>Blood glucose meter (physical object)</td><td><span class=\"nb\">09-Jul-1973</span></td></tr></table></div>"
            },
            "entry": [
              {
                "reference": "urn:uuid:91495023-2599-4484-9431-63cd68242cd7"
              },
              {
                "reference": "urn:uuid:3872d1cb-68ff-4f6c-9b0a-1231b382defb"
              }
            ],
            "code": {
              "coding": [
                {
                  "system": "http://loinc.org",
                  "code": "46264-8",
                  "display": "History of medical device use"
                }
              ]
            },
            "title": "Device Use"
          }
        ],
        "title": "European Patient Summary",
        "status": "final",
        "subject": {
          "reference": "urn:uuid:5d4dc357-a124-44c9-bc59-36a5f33bfe3b",
          "display": "Khalid Nilsson"
        },
        "custodian": {
          "reference": "urn:uuid:1723422e-2f4f-4ead-ae26-938ea328dcb8"
        },
        "date": "2024-10-01",
        "confidentiality": "N"
      }
    },
    {
      "fullUrl": "urn:uuid:5d4dc357-a124-44c9-bc59-36a5f33bfe3b",
      "resource": {
        "resourceType": "Patient",
        "id": "5d4dc357-a124-44c9-bc59-36a5f33bfe3b",
        "meta": {
          "security": [
            {
              "system": "http://terminology.hl7.org/CodeSystem/v3-ActReason",
              "code": "HTEST"
            },
            {
              "system": "http://terminology.hl7.org/CodeSystem/v3-ActReason",
              "code": "TRAIN"
            }
          ],
          "tag": [
            {
              "system": "https://synderai.net/fhir/CodeSystem/tags",
              "code": "synthetic",
              "display": "SYNDERAI Synthetic data"
            }
          ],
          "profile": [
            "http://hl7.eu/fhir/eps/StructureDefinition/patient-eu-eps"
          ]
        },
        "identifier": [
          {
            "type": {
              "coding": [
                {
                  "code": "PT",
                  "system": "http://terminology.hl7.org/CodeSystem/v2-0203"
                }
              ]
            },
            "system": "http://ec.europa.eu/identifier/eci",
            "value": "8339-594203-6"
          },
          {
            "type": {
              "coding": [
                {
                  "code": "MR",
                  "system": "http://terminology.hl7.org/CodeSystem/v2-0203"
                }
              ]
            },
            "system": "http://local.setting.eu/identifier",
            "value": "db9680f4-3d2c-0551-cb1c-61573f88f405"
          }
        ],
        "name": [
          {
            "family": "Nilsson"
          },
          {
            "given": [
              "Khalid"
            ]
          },
          {
            "text": "Khalid Nilsson"
          }
        ],
        "address": [
          {
            "line": [
              "Gengränd 482"
            ],
            "use": "home",
            "type": "physical",
            "postalCode": "691 31",
            "city": "Karlskoga",
            "country": "Sweden"
          }
        ],
        "telecom": [
          {
            "system": "phone",
            "value": "+46 (0)8 888 657 95"
          }
        ],
        "extension": [
          {
            "url": "http://hl7.org/fhir/StructureDefinition/patient-nationality",
            "valueCodeableConcept": {
              "coding": [
                {
                  "code": "SE",
                  "system": "http://hl7.org/fhir/ValueSet/country"
                }
              ]
            }
          }
        ],
        "text": {
          "status": "generated",
          "div": "<div xmlns=\"http://www.w3.org/1999/xhtml\"><table class=\"hl7__ips\"><tr><td>Khalid Nilsson</td><td>male</td><td>10-Apr-1952</td></tr></table></div>"
        },
        "gender": "male",
        "birthDate": "1952-04-10"
      }
    },
    {
      "fullUrl": "urn:uuid:c54be3ff-a24c-4fa4-a84f-fb6b39587620",
      "resource": {
        "resourceType": "PractitionerRole",
        "id": "c54be3ff-a24c-4fa4-a84f-fb6b39587620",
        "meta": {
          "profile": [
            "http://hl7.eu/fhir/base/StructureDefinition/practitionerRole-eu"
          ]
        },
        "text": {
          "status": "generated",
          "div": "<div xmlns=\"http://www.w3.org/1999/xhtml\"><table class=\"hl7__ips\">Provider Role Id c54be3ff-a24c-4fa4-a84f-fb6b39587620</table></div>"
        },
        "practitioner": {
          "reference": "urn:uuid:0107821c-2d07-4573-8408-46264f7406fe"
        },
        "organization": {
          "reference": "urn:uuid:1723422e-2f4f-4ead-ae26-938ea328dcb8"
        }
      }
    },
    {
      "fullUrl": "urn:uuid:0107821c-2d07-4573-8408-46264f7406fe",
      "resource": {
        "resourceType": "Practitioner",
        "id": "0107821c-2d07-4573-8408-46264f7406fe",
        "meta": {
          "profile": [
            "http://hl7.eu/fhir/base/StructureDefinition/practitioner-eu"
          ]
        },
        "name": [
          {
            "prefix": [
              "Dr."
            ],
            "given": [
              "Hel"
            ],
            "family": "Ping"
          }
        ],
        "text": {
          "status": "generated",
          "div": "<div xmlns=\"http://www.w3.org/1999/xhtml\"><table class=\"hl7__ips\">Dr. Hel Ping</table></div>"
        }
      }
    },
    {
      "fullUrl": "urn:uuid:1723422e-2f4f-4ead-ae26-938ea328dcb8",
      "resource": {
        "resourceType": "Organization",
        "id": "1723422e-2f4f-4ead-ae26-938ea328dcb8",
        "meta": {
          "profile": [
            "http://hl7.eu/fhir/base/StructureDefinition/organization-eu"
          ]
        },
        "identifier": [
          {
            "assigner": {
              "display": "HL7 Europe"
            },
            "system": "urn:oid:2.16.840.1.113883.2.51.999",
            "value": "59f67e30-f9fc-45e3-b1a8-13f1bdba6323"
          }
        ],
        "address": [
          {
            "city": "Karlskoga",
            "postalCode": "691 31",
            "country": "Sweden"
          }
        ],
        "text": {
          "status": "generated",
          "div": "<div xmlns=\"http://www.w3.org/1999/xhtml\"><table class=\"hl7__ips\">Karlskoga Lasarett</table></div>"
        },
        "name": "Karlskoga Lasarett"
      }
    },
    {
      "fullUrl": "urn:uuid:b8a7657b-322e-416a-b6e6-17dfb92a116c",
      "resource": {
        "resourceType": "Condition",
        "id": "b8a7657b-322e-416a-b6e6-17dfb92a116c",
        "meta": {
          "profile": [
            "http://hl7.org/fhir/uv/ips/StructureDefinition/Condition-uv-ips"
          ]
        },
        "category": [
          {
            "coding": [
              {
                "code": "problem-list-item",
                "system": "http://terminology.hl7.org/CodeSystem/condition-category",
                "display": "Problem List Item"
              }
            ]
          }
        ],
        "code": {
          "coding": [
            {
              "code": "64859006",
              "system": "http://snomed.info/sct",
              "display": "Osteoporosis (disorder)"
            }
          ],
          "text": "Osteoporosis"
        },
        "text": {
          "status": "generated",
          "div": "<div xmlns=\"http://www.w3.org/1999/xhtml\"><table class=\"hl7__ips\"><tr><td>Osteoporosis</td><td><span class=\"nb\">28-Aug-2018</span></td><td>active</td></tr></table></div>"
        },
        "onsetDateTime": "2018-08-28",
        "subject": {
          "reference": "urn:uuid:",
          "display": "Khalid Nilsson"
        },
        "asserter": {
          "reference": "urn:uuid:",
          "display": "Karlskoga Lasarett"
        }
      }
    },
    {
      "fullUrl": "urn:uuid:316e8cd5-2c5a-4c5b-985d-e421e6bd4093",
      "resource": {
        "resourceType": "Condition",
        "id": "316e8cd5-2c5a-4c5b-985d-e421e6bd4093",
        "meta": {
          "profile": [
            "http://hl7.org/fhir/uv/ips/StructureDefinition/Condition-uv-ips"
          ]
        },
        "category": [
          {
            "coding": [
              {
                "code": "problem-list-item",
                "system": "http://terminology.hl7.org/CodeSystem/condition-category",
                "display": "Problem List Item"
              }
            ]
          }
        ],
        "code": {
          "coding": [
            {
              "code": "196416002",
              "system": "http://snomed.info/sct",
              "display": "Impacted molars (disorder)"
            }
          ],
          "text": "Impacted molars"
        },
        "text": {
          "status": "generated",
          "div": "<div xmlns=\"http://www.w3.org/1999/xhtml\"><table class=\"hl7__ips\"><tr><td>Impacted molars</td><td><span class=\"nb\">03-Apr-2007</span></td><td>active</td></tr></table></div>"
        },
        "onsetDateTime": "2007-04-03",
        "subject": {
          "reference": "urn:uuid:",
          "display": "Khalid Nilsson"
        },
        "asserter": {
          "reference": "urn:uuid:",
          "display": "Karlskoga Lasarett"
        }
      }
    },
    {
      "fullUrl": "urn:uuid:e44c47a9-7875-4f93-bbfb-cea46060818e",
      "resource": {
        "resourceType": "Condition",
        "id": "e44c47a9-7875-4f93-bbfb-cea46060818e",
        "meta": {
          "profile": [
            "http://hl7.org/fhir/uv/ips/StructureDefinition/Condition-uv-ips"
          ]
        },
        "category": [
          {
            "coding": [
              {
                "code": "problem-list-item",
                "system": "http://terminology.hl7.org/CodeSystem/condition-category",
                "display": "Problem List Item"
              }
            ]
          }
        ],
        "code": {
          "coding": [
            {
              "code": "414545008",
              "system": "http://snomed.info/sct",
              "display": "Ischemic heart disease (disorder)"
            }
          ],
          "text": "Ischemic heart disease"
        },
        "text": {
          "status": "generated",
          "div": "<div xmlns=\"http://www.w3.org/1999/xhtml\"><table class=\"hl7__ips\"><tr><td>Ischemic heart disease</td><td><span class=\"nb\">05-May-1998</span></td><td>active</td></tr></table></div>"
        },
        "onsetDateTime": "1998-05-05",
        "subject": {
          "reference": "urn:uuid:",
          "display": "Khalid Nilsson"
        },
        "asserter": {
          "reference": "urn:uuid:",
          "display": "Karlskoga Lasarett"
        }
      }
    },
    {
      "fullUrl": "urn:uuid:5edfae42-782e-4381-800a-06b74025bda7",
      "resource": {
        "resourceType": "Condition",
        "id": "5edfae42-782e-4381-800a-06b74025bda7",
        "meta": {
          "profile": [
            "http://hl7.org/fhir/uv/ips/StructureDefinition/Condition-uv-ips"
          ]
        },
        "category": [
          {
            "coding": [
              {
                "code": "problem-list-item",
                "system": "http://terminology.hl7.org/CodeSystem/condition-category",
                "display": "Problem List Item"
              }
            ]
          }
        ],
        "code": {
          "coding": [
            {
              "code": "40055000",
              "system": "http://snomed.info/sct",
              "display": "Chronic sinusitis (disorder)"
            }
          ],
          "text": "Chronic sinusitis"
        },
        "text": {
          "status": "generated",
          "div": "<div xmlns=\"http://www.w3.org/1999/xhtml\"><table class=\"hl7__ips\"><tr><td>Chronic sinusitis</td><td><span class=\"nb\">22-Oct-1985</span></td><td>active</td></tr></table></div>"
        },
        "onsetDateTime": "1985-10-22",
        "subject": {
          "reference": "urn:uuid:",
          "display": "Khalid Nilsson"
        },
        "asserter": {
          "reference": "urn:uuid:",
          "display": "Karlskoga Lasarett"
        }
      }
    },
    {
      "fullUrl": "urn:uuid:dba88f59-3364-4971-9310-f88c1db06ea8",
      "resource": {
        "resourceType": "Condition",
        "id": "dba88f59-3364-4971-9310-f88c1db06ea8",
        "meta": {
          "profile": [
            "http://hl7.org/fhir/uv/ips/StructureDefinition/Condition-uv-ips"
          ]
        },
        "category": [
          {
            "coding": [
              {
                "code": "problem-list-item",
                "system": "http://terminology.hl7.org/CodeSystem/condition-category",
                "display": "Problem List Item"
              }
            ]
          }
        ],
        "code": {
          "coding": [
            {
              "code": "197927001",
              "system": "http://snomed.info/sct",
              "display": "Recurrent urinary tract infection (disorder)"
            }
          ],
          "text": "Recurrent urinary tract infection"
        },
        "text": {
          "status": "generated",
          "div": "<div xmlns=\"http://www.w3.org/1999/xhtml\"><table class=\"hl7__ips\"><tr><td>Recurrent urinary tract infection</td><td><span class=\"nb\">12-Mar-1974</span></td><td>active</td></tr></table></div>"
        },
        "onsetDateTime": "1974-03-12",
        "subject": {
          "reference": "urn:uuid:",
          "display": "Khalid Nilsson"
        },
        "asserter": {
          "reference": "urn:uuid:",
          "display": "Karlskoga Lasarett"
        }
      }
    },
    {
      "fullUrl": "urn:uuid:055ccd28-be93-452d-a2f1-03c50384a188",
      "resource": {
        "resourceType": "Condition",
        "id": "055ccd28-be93-452d-a2f1-03c50384a188",
        "meta": {
          "profile": [
            "http://hl7.org/fhir/uv/ips/StructureDefinition/Condition-uv-ips"
          ]
        },
        "category": [
          {
            "coding": [
              {
                "code": "problem-list-item",
                "system": "http://terminology.hl7.org/CodeSystem/condition-category",
                "display": "Problem List Item"
              }
            ]
          }
        ],
        "code": {
          "coding": [
            {
              "code": "15777000",
              "system": "http://snomed.info/sct",
              "display": "Prediabetes (disorder)"
            }
          ],
          "text": "Prediabetes"
        },
        "text": {
          "status": "generated",
          "div": "<div xmlns=\"http://www.w3.org/1999/xhtml\"><table class=\"hl7__ips\"><tr><td>Prediabetes</td><td><span class=\"nb\">10-Jul-1973</span></td><td>active</td></tr></table></div>"
        },
        "onsetDateTime": "1973-07-10",
        "subject": {
          "reference": "urn:uuid:",
          "display": "Khalid Nilsson"
        },
        "asserter": {
          "reference": "urn:uuid:",
          "display": "Karlskoga Lasarett"
        }
      }
    },
    {
      "fullUrl": "urn:uuid:05c8a7c8-ca82-4860-9abb-9b4ba7c25585",
      "resource": {
        "resourceType": "Condition",
        "id": "05c8a7c8-ca82-4860-9abb-9b4ba7c25585",
        "meta": {
          "profile": [
            "http://hl7.org/fhir/uv/ips/StructureDefinition/Condition-uv-ips"
          ]
        },
        "category": [
          {
            "coding": [
              {
                "code": "problem-list-item",
                "system": "http://terminology.hl7.org/CodeSystem/condition-category",
                "display": "Problem List Item"
              }
            ]
          }
        ],
        "code": {
          "coding": [
            {
              "code": "271737000",
              "system": "http://snomed.info/sct",
              "display": "Anemia (disorder)"
            }
          ],
          "text": "Anemia"
        },
        "text": {
          "status": "generated",
          "div": "<div xmlns=\"http://www.w3.org/1999/xhtml\"><table class=\"hl7__ips\"><tr><td>Anemia</td><td><span class=\"nb\">10-Jul-1973</span></td><td>active</td></tr></table></div>"
        },
        "onsetDateTime": "1973-07-10",
        "subject": {
          "reference": "urn:uuid:",
          "display": "Khalid Nilsson"
        },
        "asserter": {
          "reference": "urn:uuid:",
          "display": "Karlskoga Lasarett"
        }
      }
    },
    {
      "fullUrl": "urn:uuid:917bf12a-beb0-4aa6-9e20-85b8330b66f1",
      "resource": {
        "resourceType": "Condition",
        "id": "917bf12a-beb0-4aa6-9e20-85b8330b66f1",
        "meta": {
          "profile": [
            "http://hl7.org/fhir/uv/ips/StructureDefinition/Condition-uv-ips"
          ]
        },
        "category": [
          {
            "coding": [
              {
                "code": "problem-list-item",
                "system": "http://terminology.hl7.org/CodeSystem/condition-category",
                "display": "Problem List Item"
              }
            ]
          }
        ],
        "code": {
          "coding": [
            {
              "code": "444814009",
              "system": "http://snomed.info/sct",
              "display": "Viral sinusitis (disorder)"
            }
          ],
          "text": "Viral sinusitis"
        },
        "text": {
          "status": "generated",
          "div": "<div xmlns=\"http://www.w3.org/1999/xhtml\"><table class=\"hl7__ips\"><tr><td><span class=\"grayedout\">Viral sinusitis</span></td><td><span class=\"nb\">07-Mar-2021 - 21-Mar-2021</span></td><td><span class=\"grayedout\">inactive</span></td></tr></table></div>"
        },
        "onsetDateTime": "2021-03-07",
        "abatementDateTime": "2021-03-21",
        "subject": {
          "reference": "urn:uuid:",
          "display": "Khalid Nilsson"
        },
        "asserter": {
          "reference": "urn:uuid:",
          "display": "Karlskoga Lasarett"
        }
      }
    },
    {
      "fullUrl": "urn:uuid:680d6e8f-5d14-4683-bb1f-53c4414a3981",
      "resource": {
        "resourceType": "Condition",
        "id": "680d6e8f-5d14-4683-bb1f-53c4414a3981",
        "meta": {
          "profile": [
            "http://hl7.org/fhir/uv/ips/StructureDefinition/Condition-uv-ips"
          ]
        },
        "category": [
          {
            "coding": [
              {
                "code": "problem-list-item",
                "system": "http://terminology.hl7.org/CodeSystem/condition-category",
                "display": "Problem List Item"
              }
            ]
          }
        ],
        "code": {
          "coding": [
            {
              "code": "840539006",
              "system": "http://snomed.info/sct",
              "display": "Disease caused by severe acute respiratory syndrome coronavirus 2 (disorder)"
            }
          ],
          "text": "COVID-19"
        },
        "text": {
          "status": "generated",
          "div": "<div xmlns=\"http://www.w3.org/1999/xhtml\"><table class=\"hl7__ips\"><tr><td><span class=\"grayedout\">COVID-19</span></td><td><span class=\"nb\">29-Oct-2020 - 18-Nov-2020</span></td><td><span class=\"grayedout\">inactive</span></td></tr></table></div>"
        },
        "onsetDateTime": "2020-10-29",
        "abatementDateTime": "2020-11-18",
        "subject": {
          "reference": "urn:uuid:",
          "display": "Khalid Nilsson"
        },
        "asserter": {
          "reference": "urn:uuid:",
          "display": "Karlskoga Lasarett"
        }
      }
    },
    {
      "fullUrl": "urn:uuid:32378585-1414-4614-8966-58a8b21b4058",
      "resource": {
        "resourceType": "Condition",
        "id": "32378585-1414-4614-8966-58a8b21b4058",
        "meta": {
          "profile": [
            "http://hl7.org/fhir/uv/ips/StructureDefinition/Condition-uv-ips"
          ]
        },
        "category": [
          {
            "coding": [
              {
                "code": "problem-list-item",
                "system": "http://terminology.hl7.org/CodeSystem/condition-category",
                "display": "Problem List Item"
              }
            ]
          }
        ],
        "code": {
          "coding": [
            {
              "code": "70704007",
              "system": "http://snomed.info/sct",
              "display": "Sprain of wrist (disorder)"
            }
          ],
          "text": "Sprain of wrist"
        },
        "text": {
          "status": "generated",
          "div": "<div xmlns=\"http://www.w3.org/1999/xhtml\"><table class=\"hl7__ips\"><tr><td><span class=\"grayedout\">Sprain of wrist</span></td><td><span class=\"nb\">10-Apr-2017 - 19-May-2017</span></td><td><span class=\"grayedout\">inactive</span></td></tr></table></div>"
        },
        "onsetDateTime": "2017-04-10",
        "abatementDateTime": "2017-05-19",
        "subject": {
          "reference": "urn:uuid:",
          "display": "Khalid Nilsson"
        },
        "asserter": {
          "reference": "urn:uuid:",
          "display": "Karlskoga Lasarett"
        }
      }
    },
    {
      "fullUrl": "urn:uuid:33346617-9398-4c07-8cac-8781c75bd0b5",
      "resource": {
        "resourceType": "Condition",
        "id": "33346617-9398-4c07-8cac-8781c75bd0b5",
        "meta": {
          "profile": [
            "http://hl7.org/fhir/uv/ips/StructureDefinition/Condition-uv-ips"
          ]
        },
        "category": [
          {
            "coding": [
              {
                "code": "problem-list-item",
                "system": "http://terminology.hl7.org/CodeSystem/condition-category",
                "display": "Problem List Item"
              }
            ]
          }
        ],
        "code": {
          "coding": [
            {
              "code": "444814009",
              "system": "http://snomed.info/sct",
              "display": "Viral sinusitis (disorder)"
            }
          ],
          "text": "Viral sinusitis"
        },
        "text": {
          "status": "generated",
          "div": "<div xmlns=\"http://www.w3.org/1999/xhtml\"><table class=\"hl7__ips\"><tr><td><span class=\"grayedout\">Viral sinusitis</span></td><td><span class=\"nb\">08-Nov-2016 - 20-Nov-2016</span></td><td><span class=\"grayedout\">inactive</span></td></tr></table></div>"
        },
        "onsetDateTime": "2016-11-08",
        "abatementDateTime": "2016-11-20",
        "subject": {
          "reference": "urn:uuid:",
          "display": "Khalid Nilsson"
        },
        "asserter": {
          "reference": "urn:uuid:",
          "display": "Karlskoga Lasarett"
        }
      }
    },
    {
      "fullUrl": "urn:uuid:67ad2823-e3e9-4eb7-b91b-3332fd2bb6d0",
      "resource": {
        "resourceType": "Medication",
        "id": "67ad2823-e3e9-4eb7-b91b-3332fd2bb6d0",
        "meta": {
          "profile": [
            "http://hl7.eu/fhir/eps/StructureDefinition/Medication-eu-eps"
          ]
        },
        "code": {
          "coding": [
            {
              "code": "370150001",
              "system": "http://snomed.info/sct",
              "display": "Acetaminophen 325 mg oral tablet"
            }
          ],
          "text": "Acetaminophen 325 mg oral tablet"
        },
        "text": {
          "status": "generated",
          "div": "<div xmlns=\"http://www.w3.org/1999/xhtml\">Acetaminophen 325 mg oral tablet</div>"
        }
      }
    },
    {
      "fullUrl": "urn:uuid:846d8a1f-2756-4eba-9b62-a0dd326b4cd8",
      "resource": {
        "resourceType": "MedicationStatement",
        "id": "846d8a1f-2756-4eba-9b62-a0dd326b4cd8",
        "meta": {
          "profile": [
            "http://hl7.eu/fhir/eps/StructureDefinition/MedicationStatement-eu-eps"
          ]
        },
        "effectivePeriod": {
          "start": "2024-09-30"
        },
        "dosage": [
          {
            "doseAndRate": [
              {
                "doseQuantity": {
                  "value": 1,
                  "unit": "{tbl}",
                  "system": "$ucum",
                  "code": "{tbl}"
                }
              }
            ],
            "timing": {
              "repeat": {
                "frequency": 1,
                "period": 4,
                "periodUnit": "h"
              }
            },
            "text": "1 tablet (325 mg) by mouth every 4 to 6 hours as needed",
            "asNeededBoolean": true
          }
        ],
        "text": {
          "status": "generated",
          "div": "<div xmlns=\"http://www.w3.org/1999/xhtml\"><table class=\"hl7__ips first25\"><tr><th>Medication</th><th>Since</th><th>Form</th><th>Dosage</th><th>Reason</th></tr><tr><td>Acetaminophen 325 mg oral tablet</td><td><span class=\"nb\">2024-09-30</span></td><td>-</td><td>1 tablet (325 mg) by mouth every 4 to 6 hours as needed</td><td>-</td></tr></table></div>"
        },
        "status": "active",
        "medicationReference": {
          "reference": "urn:uuid:67ad2823-e3e9-4eb7-b91b-3332fd2bb6d0",
          "display": "Acetaminophen 325 mg oral tablet"
        },
        "subject": {
          "reference": "urn:uuid:5d4dc357-a124-44c9-bc59-36a5f33bfe3b",
          "display": "Khalid Nilsson"
        }
      }
    },
    {
      "fullUrl": "urn:uuid:4d746ea4-e689-4c92-b8e3-ee9b9fb75573",
      "resource": {
        "resourceType": "Medication",
        "id": "4d746ea4-e689-4c92-b8e3-ee9b9fb75573",
        "meta": {
          "profile": [
            "http://hl7.eu/fhir/eps/StructureDefinition/Medication-eu-eps"
          ]
        },
        "code": {
          "coding": [
            {
              "code": "783144007",
              "system": "http://snomed.info/sct",
              "display": "Alendronic acid (as alendronate sodium) 10 mg oral tablet"
            }
          ],
          "text": "Alendronic acid (as alendronate sodium) 10 mg oral tablet"
        },
        "text": {
          "status": "generated",
          "div": "<div xmlns=\"http://www.w3.org/1999/xhtml\">Alendronic acid (as alendronate sodium) 10 mg oral tablet</div>"
        }
      }
    },
    {
      "fullUrl": "urn:uuid:3290cfb0-470e-45ed-a5dd-2ae0b51a1500",
      "resource": {
        "resourceType": "MedicationStatement",
        "id": "3290cfb0-470e-45ed-a5dd-2ae0b51a1500",
        "meta": {
          "profile": [
            "http://hl7.eu/fhir/eps/StructureDefinition/MedicationStatement-eu-eps"
          ]
        },
        "effectivePeriod": {
          "start": "2024-09-30"
        },
        "dosage": [
          {
            "doseAndRate": [
              {
                "doseQuantity": {
                  "value": 1,
                  "unit": "{tbl}",
                  "system": "$ucum",
                  "code": "{tbl}"
                }
              }
            ],
            "timing": {
              "repeat": {
                "frequency": 1,
                "period": 1,
                "periodUnit": "d"
              }
            },
            "text": "1 tablet (10 mg) once daily",
            "asNeededBoolean": false
          }
        ],
        "reasonCode": [
          {
            "coding": [
              {
                "code": "64859006",
                "system": "http://snomed.info/sct",
                "display": "Osteoporosis (disorder)"
              }
            ]
          }
        ],
        "text": {
          "status": "generated",
          "div": "<div xmlns=\"http://www.w3.org/1999/xhtml\"><table class=\"hl7__ips first25\"><tr><th>Medication</th><th>Since</th><th>Form</th><th>Dosage</th><th>Reason</th></tr><tr><td>Alendronic acid (as alendronate sodium) 10 mg oral tablet</td><td><span class=\"nb\">2024-09-30</span></td><td>-</td><td>1 tablet (10 mg) once daily</td><td>Osteoporosis (disorder)</td></tr></table></div>"
        },
        "status": "active",
        "medicationReference": {
          "reference": "urn:uuid:4d746ea4-e689-4c92-b8e3-ee9b9fb75573",
          "display": "Alendronic acid (as alendronate sodium) 10 mg oral tablet"
        },
        "subject": {
          "reference": "urn:uuid:5d4dc357-a124-44c9-bc59-36a5f33bfe3b",
          "display": "Khalid Nilsson"
        }
      }
    },
    {
      "fullUrl": "urn:uuid:5f7b800e-a729-4e45-a642-ebf0c9ab05dd",
      "resource": {
        "resourceType": "Medication",
        "id": "5f7b800e-a729-4e45-a642-ebf0c9ab05dd",
        "meta": {
          "profile": [
            "http://hl7.eu/fhir/eps/StructureDefinition/Medication-eu-eps"
          ]
        },
        "code": {
          "coding": [
            {
              "code": "377261001",
              "system": "http://snomed.info/sct",
              "display": "Acetaminophen 300 mg and codeine phosphate 15 mg oral tablet"
            }
          ],
          "text": "Acetaminophen 300 mg and codeine phosphate 15 mg oral tablet"
        },
        "text": {
          "status": "generated",
          "div": "<div xmlns=\"http://www.w3.org/1999/xhtml\">Acetaminophen 300 mg and codeine phosphate 15 mg oral tablet</div>"
        }
      }
    },
    {
      "fullUrl": "urn:uuid:b8389efe-8c39-417a-8745-cb9aac65a93d",
      "resource": {
        "resourceType": "MedicationStatement",
        "id": "b8389efe-8c39-417a-8745-cb9aac65a93d",
        "meta": {
          "profile": [
            "http://hl7.eu/fhir/eps/StructureDefinition/MedicationStatement-eu-eps"
          ]
        },
        "effectivePeriod": {
          "start": "2024-09-30"
        },
        "dosage": [
          {
            "doseAndRate": [
              {
                "doseQuantity": {
                  "value": 1,
                  "unit": "{tbl}",
                  "system": "$ucum",
                  "code": "{tbl}"
                }
              }
            ],
            "timing": {
              "repeat": {
                "frequency": 6,
                "period": 1,
                "periodUnit": "d"
              }
            },
            "text": "1 tablet (300 mg / 15 mg) every 4 to 6 hours as needed",
            "asNeededBoolean": true
          }
        ],
        "text": {
          "status": "generated",
          "div": "<div xmlns=\"http://www.w3.org/1999/xhtml\"><table class=\"hl7__ips first25\"><tr><th>Medication</th><th>Since</th><th>Form</th><th>Dosage</th><th>Reason</th></tr><tr><td>Acetaminophen 300 mg and codeine phosphate 15 mg oral tablet</td><td><span class=\"nb\">2024-09-30</span></td><td>-</td><td>1 tablet (300 mg / 15 mg) every 4 to 6 hours as needed</td><td>-</td></tr></table></div>"
        },
        "status": "active",
        "medicationReference": {
          "reference": "urn:uuid:5f7b800e-a729-4e45-a642-ebf0c9ab05dd",
          "display": "Acetaminophen 300 mg and codeine phosphate 15 mg oral tablet"
        },
        "subject": {
          "reference": "urn:uuid:5d4dc357-a124-44c9-bc59-36a5f33bfe3b",
          "display": "Khalid Nilsson"
        }
      }
    },
    {
      "fullUrl": "urn:uuid:1bb31a20-bae1-4616-94ef-d2704d99383e",
      "resource": {
        "resourceType": "Medication",
        "id": "1bb31a20-bae1-4616-94ef-d2704d99383e",
        "meta": {
          "profile": [
            "http://hl7.eu/fhir/eps/StructureDefinition/Medication-eu-eps"
          ]
        },
        "code": {
          "coding": [
            {
              "code": "420397007",
              "system": "http://snomed.info/sct",
              "display": "Acetaminophen 300 mg and hydrocodone bitartrate 5 mg oral tablet"
            }
          ],
          "text": "Acetaminophen 300 mg and hydrocodone bitartrate 5 mg oral tablet"
        },
        "text": {
          "status": "generated",
          "div": "<div xmlns=\"http://www.w3.org/1999/xhtml\">Acetaminophen 300 mg and hydrocodone bitartrate 5 mg oral tablet</div>"
        }
      }
    },
    {
      "fullUrl": "urn:uuid:0d012ad9-f593-4072-9dd6-51e4e180d529",
      "resource": {
        "resourceType": "MedicationStatement",
        "id": "0d012ad9-f593-4072-9dd6-51e4e180d529",
        "meta": {
          "profile": [
            "http://hl7.eu/fhir/eps/StructureDefinition/MedicationStatement-eu-eps"
          ]
        },
        "effectivePeriod": {
          "start": "2014-06-06"
        },
        "dosage": [
          {
            "doseAndRate": [
              {
                "doseQuantity": {
                  "value": 1,
                  "unit": "{tbl}",
                  "system": "$ucum",
                  "code": "{tbl}"
                }
              }
            ],
            "timing": {
              "repeat": {
                "frequency": 1,
                "period": 4,
                "periodUnit": "h"
              }
            },
            "text": "1 tablet (300 mg/5 mg) by mouth every 4 to 6 hours as needed for pain",
            "asNeededBoolean": true
          }
        ],
        "text": {
          "status": "generated",
          "div": "<div xmlns=\"http://www.w3.org/1999/xhtml\"><table class=\"hl7__ips first25\"><tr><th>Medication</th><th>Since</th><th>Form</th><th>Dosage</th><th>Reason</th></tr><tr><td>Acetaminophen 300 mg and hydrocodone bitartrate 5 mg oral tablet</td><td><span class=\"nb\">2014-06-06</span></td><td>-</td><td>1 tablet (300 mg/5 mg) by mouth every 4 to 6 hours as needed for pain</td><td>-</td></tr></table></div>"
        },
        "status": "active",
        "medicationReference": {
          "reference": "urn:uuid:1bb31a20-bae1-4616-94ef-d2704d99383e",
          "display": "Acetaminophen 300 mg and hydrocodone bitartrate 5 mg oral tablet"
        },
        "subject": {
          "reference": "urn:uuid:5d4dc357-a124-44c9-bc59-36a5f33bfe3b",
          "display": "Khalid Nilsson"
        }
      }
    },
    {
      "fullUrl": "urn:uuid:0b137713-cc25-42f5-9e7f-059627a1f753",
      "resource": {
        "resourceType": "Medication",
        "id": "0b137713-cc25-42f5-9e7f-059627a1f753",
        "meta": {
          "profile": [
            "http://hl7.eu/fhir/eps/StructureDefinition/Medication-eu-eps"
          ]
        },
        "code": {
          "coding": [
            {
              "code": "783586007",
              "system": "http://snomed.info/sct",
              "display": "Clopidogrel (as clopidogrel bisulfate) 75 mg oral tablet"
            }
          ],
          "text": "Clopidogrel (as clopidogrel bisulfate) 75 mg oral tablet"
        },
        "text": {
          "status": "generated",
          "div": "<div xmlns=\"http://www.w3.org/1999/xhtml\">Clopidogrel (as clopidogrel bisulfate) 75 mg oral tablet</div>"
        }
      }
    },
    {
      "fullUrl": "urn:uuid:b7e8dbdc-d40b-4322-94e1-91f89e3ee3d3",
      "resource": {
        "resourceType": "MedicationStatement",
        "id": "b7e8dbdc-d40b-4322-94e1-91f89e3ee3d3",
        "meta": {
          "profile": [
            "http://hl7.eu/fhir/eps/StructureDefinition/MedicationStatement-eu-eps"
          ]
        },
        "effectivePeriod": {
          "start": "1998-05-11"
        },
        "dosage": [
          {
            "doseAndRate": [
              {
                "doseQuantity": {
                  "value": 1,
                  "unit": "{tbl}",
                  "code": "{tbl}"
                }
              }
            ],
            "timing": {
              "repeat": {
                "frequency": 1,
                "period": 1,
                "periodUnit": "d"
              }
            },
            "text": "1 tablet (75 mg) by mouth once daily",
            "asNeededBoolean": false
          }
        ],
        "text": {
          "status": "generated",
          "div": "<div xmlns=\"http://www.w3.org/1999/xhtml\"><table class=\"hl7__ips first25\"><tr><th>Medication</th><th>Since</th><th>Form</th><th>Dosage</th><th>Reason</th></tr><tr><td>Clopidogrel (as clopidogrel bisulfate) 75 mg oral tablet</td><td><span class=\"nb\">1998-05-11</span></td><td>-</td><td>1 tablet (75 mg) by mouth once daily</td><td>-</td></tr></table></div>"
        },
        "status": "active",
        "medicationReference": {
          "reference": "urn:uuid:0b137713-cc25-42f5-9e7f-059627a1f753",
          "display": "Clopidogrel (as clopidogrel bisulfate) 75 mg oral tablet"
        },
        "subject": {
          "reference": "urn:uuid:5d4dc357-a124-44c9-bc59-36a5f33bfe3b",
          "display": "Khalid Nilsson"
        }
      }
    },
    {
      "fullUrl": "urn:uuid:becf155a-b0fb-4e2f-927c-cfd2f7e619f1",
      "resource": {
        "resourceType": "Medication",
        "id": "becf155a-b0fb-4e2f-927c-cfd2f7e619f1",
        "meta": {
          "profile": [
            "http://hl7.eu/fhir/eps/StructureDefinition/Medication-eu-eps"
          ]
        },
        "code": {
          "coding": [
            {
              "code": "319997009",
              "system": "http://snomed.info/sct",
              "display": "Simvastatin 20 mg oral tablet"
            }
          ],
          "text": "Simvastatin 20 mg oral tablet"
        },
        "text": {
          "status": "generated",
          "div": "<div xmlns=\"http://www.w3.org/1999/xhtml\">Simvastatin 20 mg oral tablet</div>"
        }
      }
    },
    {
      "fullUrl": "urn:uuid:2e90b163-c4ad-41a8-b1df-60d0335688b8",
      "resource": {
        "resourceType": "MedicationStatement",
        "id": "2e90b163-c4ad-41a8-b1df-60d0335688b8",
        "meta": {
          "profile": [
            "http://hl7.eu/fhir/eps/StructureDefinition/MedicationStatement-eu-eps"
          ]
        },
        "effectivePeriod": {
          "start": "1998-05-11"
        },
        "dosage": [
          {
            "doseAndRate": [
              {
                "doseQuantity": {
                  "value": 1,
                  "unit": "{tbl}",
                  "code": "{tbl}"
                }
              }
            ],
            "timing": {
              "repeat": {
                "frequency": 1,
                "period": 1,
                "periodUnit": "d"
              }
            },
            "text": "1 tablet (20 mg) by mouth once daily",
            "asNeededBoolean": false
          }
        ],
        "text": {
          "status": "generated",
          "div": "<div xmlns=\"http://www.w3.org/1999/xhtml\"><table class=\"hl7__ips first25\"><tr><th>Medication</th><th>Since</th><th>Form</th><th>Dosage</th><th>Reason</th></tr><tr><td>Simvastatin 20 mg oral tablet</td><td><span class=\"nb\">1998-05-11</span></td><td>-</td><td>1 tablet (20 mg) by mouth once daily</td><td>-</td></tr></table></div>"
        },
        "status": "active",
        "medicationReference": {
          "reference": "urn:uuid:becf155a-b0fb-4e2f-927c-cfd2f7e619f1",
          "display": "Simvastatin 20 mg oral tablet"
        },
        "subject": {
          "reference": "urn:uuid:5d4dc357-a124-44c9-bc59-36a5f33bfe3b",
          "display": "Khalid Nilsson"
        }
      }
    },
    {
      "fullUrl": "urn:uuid:cb705321-985c-4fd3-be6b-a6d32b397d56",
      "resource": {
        "resourceType": "Medication",
        "id": "cb705321-985c-4fd3-be6b-a6d32b397d56",
        "meta": {
          "profile": [
            "http://hl7.eu/fhir/eps/StructureDefinition/Medication-eu-eps"
          ]
        },
        "code": {
          "coding": [
            {
              "code": "425176000",
              "system": "http://snomed.info/sct",
              "display": "Nitroglycerin 400 microgram/actuation sublingual spray"
            }
          ],
          "text": "Nitroglycerin 400 microgram/actuation sublingual spray"
        },
        "text": {
          "status": "generated",
          "div": "<div xmlns=\"http://www.w3.org/1999/xhtml\">Nitroglycerin 400 microgram/actuation sublingual spray</div>"
        }
      }
    },
    {
      "fullUrl": "urn:uuid:4ded1031-c451-402b-a481-98b50cd11fb1",
      "resource": {
        "resourceType": "MedicationStatement",
        "id": "4ded1031-c451-402b-a481-98b50cd11fb1",
        "meta": {
          "profile": [
            "http://hl7.eu/fhir/eps/StructureDefinition/MedicationStatement-eu-eps"
          ]
        },
        "effectivePeriod": {
          "start": "1998-05-11"
        },
        "dosage": [
          {
            "doseAndRate": [
              {
                "doseQuantity": {
                  "value": 400,
                  "unit": "microgram",
                  "code": "ug"
                }
              }
            ],
            "timing": {
              "repeat": {
                "frequency": 1,
                "period": 5,
                "periodUnit": "min"
              }
            },
            "text": "400 micrograms (1 spray) sublingually as needed for chest pain, may repeat every 5 minutes as needed, up to 3 sprays in 15 minutes",
            "asNeededBoolean": true
          }
        ],
        "text": {
          "status": "generated",
          "div": "<div xmlns=\"http://www.w3.org/1999/xhtml\"><table class=\"hl7__ips first25\"><tr><th>Medication</th><th>Since</th><th>Form</th><th>Dosage</th><th>Reason</th></tr><tr><td>Nitroglycerin 400 microgram/actuation sublingual spray</td><td><span class=\"nb\">1998-05-11</span></td><td>-</td><td>400 micrograms (1 spray) sublingually as needed for chest pain, may repeat every 5 minutes as needed, up to 3 sprays in 15 minutes</td><td>-</td></tr></table></div>"
        },
        "status": "active",
        "medicationReference": {
          "reference": "urn:uuid:cb705321-985c-4fd3-be6b-a6d32b397d56",
          "display": "Nitroglycerin 400 microgram/actuation sublingual spray"
        },
        "subject": {
          "reference": "urn:uuid:5d4dc357-a124-44c9-bc59-36a5f33bfe3b",
          "display": "Khalid Nilsson"
        }
      }
    },
    {
      "fullUrl": "urn:uuid:cab5fcb7-4add-4576-b3f9-19d4e1949c3d",
      "resource": {
        "resourceType": "Medication",
        "id": "cab5fcb7-4add-4576-b3f9-19d4e1949c3d",
        "meta": {
          "profile": [
            "http://hl7.eu/fhir/eps/StructureDefinition/Medication-eu-eps"
          ]
        },
        "code": {
          "coding": [
            {
              "code": "879980009",
              "system": "http://snomed.info/sct",
              "display": "Metoprolol tartrate (as metoprolol succinate) 100 mg prolonged-release oral tablet"
            }
          ],
          "text": "Metoprolol tartrate (as metoprolol succinate) 100 mg prolonged-release oral tablet"
        },
        "text": {
          "status": "generated",
          "div": "<div xmlns=\"http://www.w3.org/1999/xhtml\">Metoprolol tartrate (as metoprolol succinate) 100 mg prolonged-release oral tablet</div>"
        }
      }
    },
    {
      "fullUrl": "urn:uuid:6d5e312c-ac11-4412-beac-7478d07ded9a",
      "resource": {
        "resourceType": "MedicationStatement",
        "id": "6d5e312c-ac11-4412-beac-7478d07ded9a",
        "meta": {
          "profile": [
            "http://hl7.eu/fhir/eps/StructureDefinition/MedicationStatement-eu-eps"
          ]
        },
        "effectivePeriod": {
          "start": "1998-05-11"
        },
        "dosage": [
          {
            "doseAndRate": [
              {
                "doseQuantity": {
                  "value": 1,
                  "unit": "{tbl}",
                  "code": "{tbl}"
                }
              }
            ],
            "timing": {
              "repeat": {
                "frequency": 1,
                "period": 1,
                "periodUnit": "d"
              }
            },
            "text": "1 tablet (100 mg) once daily",
            "asNeededBoolean": false
          }
        ],
        "text": {
          "status": "generated",
          "div": "<div xmlns=\"http://www.w3.org/1999/xhtml\"><table class=\"hl7__ips first25\"><tr><th>Medication</th><th>Since</th><th>Form</th><th>Dosage</th><th>Reason</th></tr><tr><td>Metoprolol tartrate (as metoprolol succinate) 100 mg prolonged-release oral tablet</td><td><span class=\"nb\">1998-05-11</span></td><td>-</td><td>1 tablet (100 mg) once daily</td><td>-</td></tr></table></div>"
        },
        "status": "active",
        "medicationReference": {
          "reference": "urn:uuid:cab5fcb7-4add-4576-b3f9-19d4e1949c3d",
          "display": "Metoprolol tartrate (as metoprolol succinate) 100 mg prolonged-release oral tablet"
        },
        "subject": {
          "reference": "urn:uuid:5d4dc357-a124-44c9-bc59-36a5f33bfe3b",
          "display": "Khalid Nilsson"
        }
      }
    },
    {
      "fullUrl": "urn:uuid:fa032dbd-fd34-4bf9-a14c-2b827aabd3b5",
      "resource": {
        "resourceType": "Immunization",
        "id": "fa032dbd-fd34-4bf9-a14c-2b827aabd3b5",
        "meta": {
          "profile": [
            "http://hl7.org/fhir/uv/ips/StructureDefinition/Immunization-uv-ips"
          ]
        },
        "vaccineCode": {
          "coding": [
            {
              "code": "1181000221105",
              "system": "http://snomed.info/sct",
              "display": "Vaccine product containing Influenza virus antigen"
            },
            {
              "code": "J07BB02",
              "system": "http://www.whocc.no/atc",
              "display": "Influenza, inactivated, split virus"
            }
          ],
          "text": "Influenza virus antigen only vaccine product"
        },
        "site": {
          "coding": [
            {
              "code": "244979005",
              "system": "http://snomed.info/sct",
              "display": "Entire muscle of upper arm"
            }
          ],
          "text": "Entire muscle of upper arm"
        },
        "route": {
          "coding": [
            {
              "code": "78421000",
              "system": "http://snomed.info/sct",
              "display": "Intramuscular route"
            }
          ],
          "text": "Intramuscular route"
        },
        "text": {
          "status": "generated",
          "div": "<div xmlns=\"http://www.w3.org/1999/xhtml\"><table class=\"hl7__ips\"><tr><td>Influenza virus antigen only vaccine product</td><td><span class=\"nb\">30-Sep-2024</span></td></tr></table></div>"
        },
        "status": "completed",
        "patient": {
          "reference": "urn:uuid:5d4dc357-a124-44c9-bc59-36a5f33bfe3b",
          "display": "Khalid Nilsson"
        },
        "occurrenceDateTime": "2024-09-30",
        "lotNumber": "TT-ZelAy2p",
        "expirationDate": "2024-10-28"
      }
    },
    {
      "fullUrl": "urn:uuid:b5d0dd16-afa8-48e8-ab03-7a0fe34ac04f",
      "resource": {
        "resourceType": "Immunization",
        "id": "b5d0dd16-afa8-48e8-ab03-7a0fe34ac04f",
        "meta": {
          "profile": [
            "http://hl7.org/fhir/uv/ips/StructureDefinition/Immunization-uv-ips"
          ]
        },
        "vaccineCode": {
          "coding": [
            {
              "code": "1119349007",
              "system": "http://snomed.info/sct",
              "display": "Vaccine product containing SARS-CoV-2 mRNA"
            },
            {
              "code": "J07BX03",
              "system": "http://www.whocc.no/atc",
              "display": "COVID-19 mRNA vaccines"
            }
          ],
          "text": "SARS-CoV-2 mRNA vaccine"
        },
        "site": {
          "coding": [
            {
              "code": "244979005",
              "system": "http://snomed.info/sct",
              "display": "Entire muscle of upper arm"
            }
          ],
          "text": "Entire muscle of upper arm"
        },
        "route": {
          "coding": [
            {
              "code": "78421000",
              "system": "http://snomed.info/sct",
              "display": "Intramuscular route"
            }
          ],
          "text": "Intramuscular route"
        },
        "text": {
          "status": "generated",
          "div": "<div xmlns=\"http://www.w3.org/1999/xhtml\"><table class=\"hl7__ips\"><tr><td>SARS-CoV-2 mRNA vaccine</td><td><span class=\"nb\">29-Mar-2021</span></td></tr></table></div>"
        },
        "status": "completed",
        "patient": {
          "reference": "urn:uuid:5d4dc357-a124-44c9-bc59-36a5f33bfe3b",
          "display": "Khalid Nilsson"
        },
        "occurrenceDateTime": "2021-03-29",
        "lotNumber": "YJ-jGSa3wRG",
        "expirationDate": "2021-06-04"
      }
    },
    {
      "fullUrl": "urn:uuid:f65bea32-44c4-4787-bfd7-fd2711c79dfc",
      "resource": {
        "resourceType": "Immunization",
        "id": "f65bea32-44c4-4787-bfd7-fd2711c79dfc",
        "meta": {
          "profile": [
            "http://hl7.org/fhir/uv/ips/StructureDefinition/Immunization-uv-ips"
          ]
        },
        "vaccineCode": {
          "coding": [
            {
              "code": "777725002",
              "system": "http://snomed.info/sct",
              "display": "Vaccine product containing only Clostridium tetani toxoid antigen adsorbed"
            },
            {
              "code": "J07AM51",
              "system": "http://www.whocc.no/atc",
              "display": "Diphtheria-tetanus vaccines, adult type"
            }
          ],
          "text": "Clostridium tetani toxoid antigen adsorbed only vaccine product"
        },
        "site": {
          "coding": [
            {
              "code": "244979005",
              "system": "http://snomed.info/sct",
              "display": "Entire muscle of upper arm"
            }
          ],
          "text": "Entire muscle of upper arm"
        },
        "route": {
          "coding": [
            {
              "code": "78421000",
              "system": "http://snomed.info/sct",
              "display": "Intramuscular route"
            }
          ],
          "text": "Intramuscular route"
        },
        "text": {
          "status": "generated",
          "div": "<div xmlns=\"http://www.w3.org/1999/xhtml\"><table class=\"hl7__ips\"><tr><td>Clostridium tetani toxoid antigen adsorbed only vaccine product</td><td><span class=\"nb\">02-Sep-2019</span></td></tr></table></div>"
        },
        "status": "completed",
        "patient": {
          "reference": "urn:uuid:5d4dc357-a124-44c9-bc59-36a5f33bfe3b",
          "display": "Khalid Nilsson"
        },
        "occurrenceDateTime": "2019-09-02",
        "lotNumber": "CA-gLdqbv",
        "expirationDate": "2020-02-11"
      }
    },
    {
      "fullUrl": "urn:uuid:fedcb130-1b8e-4383-99f7-80c2860cdd55",
      "resource": {
        "resourceType": "Procedure",
        "id": "fedcb130-1b8e-4383-99f7-80c2860cdd55",
        "meta": {
          "profile": [
            "http://hl7.org/fhir/uv/ips/StructureDefinition/Procedure-uv-ips"
          ]
        },
        "code": {
          "coding": [
            {
              "code": "225386006",
              "system": "http://snomed.info/sct",
              "display": "Pre-discharge assessment (procedure)"
            }
          ],
          "text": "Pre-discharge assessment"
        },
        "text": {
          "status": "generated",
          "div": "<div xmlns=\"http://www.w3.org/1999/xhtml\"><table class=\"hl7__ips\"><tr><td>Pre-discharge assessment</td><td><span class=\"nb\">21-Jun-2023</span></td><td>-</td></tr></table></div>"
        },
        "status": "completed",
        "performedDateTime": "2023-06-21",
        "subject": {
          "reference": "urn:uuid:",
          "display": "Khalid Nilsson"
        }
      }
    },
    {
      "fullUrl": "urn:uuid:ea863dab-f3ac-4254-82ff-077366e31722",
      "resource": {
        "resourceType": "Procedure",
        "id": "ea863dab-f3ac-4254-82ff-077366e31722",
        "meta": {
          "profile": [
            "http://hl7.org/fhir/uv/ips/StructureDefinition/Procedure-uv-ips"
          ]
        },
        "code": {
          "coding": [
            {
              "code": "449381000124108",
              "system": "http://snomed.info/sct",
              "display": "Discharge from skilled nursing facility (procedure)"
            }
          ]
        },
        "text": {
          "status": "generated",
          "div": "<div xmlns=\"http://www.w3.org/1999/xhtml\"><table class=\"hl7__ips\"><tr><td>Discharge from skilled nursing facility (procedure)</td><td><span class=\"nb\">21-Jun-2023</span></td><td>-</td></tr></table></div>"
        },
        "status": "completed",
        "performedDateTime": "2023-06-21",
        "subject": {
          "reference": "urn:uuid:",
          "display": "Khalid Nilsson"
        }
      }
    },
    {
      "fullUrl": "urn:uuid:5d9fac08-001a-4c95-bf69-d8292c943fa6",
      "resource": {
        "resourceType": "Procedure",
        "id": "5d9fac08-001a-4c95-bf69-d8292c943fa6",
        "meta": {
          "profile": [
            "http://hl7.org/fhir/uv/ips/StructureDefinition/Procedure-uv-ips"
          ]
        },
        "code": {
          "coding": [
            {
              "code": "410401003",
              "system": "http://snomed.info/sct",
              "display": "Nursing care/supplementary surveillance (regime/therapy)"
            }
          ],
          "text": "Nursing care/supplementary surveillance"
        },
        "text": {
          "status": "generated",
          "div": "<div xmlns=\"http://www.w3.org/1999/xhtml\"><table class=\"hl7__ips\"><tr><td>Nursing care/supplementary surveillance</td><td><span class=\"nb\">20-Jun-2023</span></td><td>-</td></tr></table></div>"
        },
        "status": "completed",
        "performedDateTime": "2023-06-20",
        "subject": {
          "reference": "urn:uuid:",
          "display": "Khalid Nilsson"
        }
      }
    },
    {
      "fullUrl": "urn:uuid:9895a4e8-2993-4eb1-ae22-34c6295c774d",
      "resource": {
        "resourceType": "Procedure",
        "id": "9895a4e8-2993-4eb1-ae22-34c6295c774d",
        "meta": {
          "profile": [
            "http://hl7.org/fhir/uv/ips/StructureDefinition/Procedure-uv-ips"
          ]
        },
        "code": {
          "coding": [
            {
              "code": "91251008",
              "system": "http://snomed.info/sct",
              "display": "Physical therapy procedure (regime/therapy)"
            }
          ],
          "text": "Physical therapy procedure"
        },
        "text": {
          "status": "generated",
          "div": "<div xmlns=\"http://www.w3.org/1999/xhtml\"><table class=\"hl7__ips\"><tr><td>Physical therapy procedure</td><td><span class=\"nb\">19-Jun-2023</span></td><td>-</td></tr></table></div>"
        },
        "status": "completed",
        "performedDateTime": "2023-06-19",
        "subject": {
          "reference": "urn:uuid:",
          "display": "Khalid Nilsson"
        }
      }
    },
    {
      "fullUrl": "urn:uuid:1a25ef29-ad2d-4bd5-aad3-ee365ce9d4c5",
      "resource": {
        "resourceType": "Procedure",
        "id": "1a25ef29-ad2d-4bd5-aad3-ee365ce9d4c5",
        "meta": {
          "profile": [
            "http://hl7.org/fhir/uv/ips/StructureDefinition/Procedure-uv-ips"
          ]
        },
        "code": {
          "coding": [
            {
              "code": "409023009",
              "system": "http://snomed.info/sct",
              "display": "Professional / ancillary services care (regime/therapy)"
            }
          ],
          "text": "Professional / ancillary services care"
        },
        "text": {
          "status": "generated",
          "div": "<div xmlns=\"http://www.w3.org/1999/xhtml\"><table class=\"hl7__ips\"><tr><td>Professional / ancillary services care</td><td><span class=\"nb\">17-Jun-2023</span></td><td>-</td></tr></table></div>"
        },
        "status": "completed",
        "performedDateTime": "2023-06-17",
        "subject": {
          "reference": "urn:uuid:",
          "display": "Khalid Nilsson"
        }
      }
    },
    {
      "fullUrl": "urn:uuid:36b955ce-78a5-49bb-ad7a-3d26fc1851a9",
      "resource": {
        "resourceType": "Procedure",
        "id": "36b955ce-78a5-49bb-ad7a-3d26fc1851a9",
        "meta": {
          "profile": [
            "http://hl7.org/fhir/uv/ips/StructureDefinition/Procedure-uv-ips"
          ]
        },
        "code": {
          "coding": [
            {
              "code": "311555007",
              "system": "http://snomed.info/sct",
              "display": "Speech and language therapy regime (regime/therapy)"
            }
          ],
          "text": "Speech and language therapy regime"
        },
        "text": {
          "status": "generated",
          "div": "<div xmlns=\"http://www.w3.org/1999/xhtml\"><table class=\"hl7__ips\"><tr><td>Speech and language therapy regime</td><td><span class=\"nb\">14-Jun-2023</span></td><td>-</td></tr></table></div>"
        },
        "status": "completed",
        "performedDateTime": "2023-06-14",
        "subject": {
          "reference": "urn:uuid:",
          "display": "Khalid Nilsson"
        }
      }
    },
    {
      "fullUrl": "urn:uuid:b32c0624-efb6-45f7-be48-f27804c98adb",
      "resource": {
        "resourceType": "Procedure",
        "id": "b32c0624-efb6-45f7-be48-f27804c98adb",
        "meta": {
          "profile": [
            "http://hl7.org/fhir/uv/ips/StructureDefinition/Procedure-uv-ips"
          ]
        },
        "code": {
          "coding": [
            {
              "code": "84478008",
              "system": "http://snomed.info/sct",
              "display": "Occupational therapy (regime/therapy)"
            }
          ],
          "text": "Occupational therapy"
        },
        "text": {
          "status": "generated",
          "div": "<div xmlns=\"http://www.w3.org/1999/xhtml\"><table class=\"hl7__ips\"><tr><td>Occupational therapy</td><td><span class=\"nb\">10-Jun-2023</span></td><td>-</td></tr></table></div>"
        },
        "status": "completed",
        "performedDateTime": "2023-06-10",
        "subject": {
          "reference": "urn:uuid:",
          "display": "Khalid Nilsson"
        }
      }
    },
    {
      "fullUrl": "urn:uuid:29dcb75c-4960-4fd4-a069-37b7eb325a90",
      "resource": {
        "resourceType": "Procedure",
        "id": "29dcb75c-4960-4fd4-a069-37b7eb325a90",
        "meta": {
          "profile": [
            "http://hl7.org/fhir/uv/ips/StructureDefinition/Procedure-uv-ips"
          ]
        },
        "code": {
          "coding": [
            {
              "code": "63332003",
              "system": "http://snomed.info/sct",
              "display": "History AND physical examination (procedure)"
            }
          ],
          "text": "History AND physical examination"
        },
        "text": {
          "status": "generated",
          "div": "<div xmlns=\"http://www.w3.org/1999/xhtml\"><table class=\"hl7__ips\"><tr><td>History AND physical examination</td><td><span class=\"nb\">08-May-2023</span></td><td>-</td></tr></table></div>"
        },
        "status": "completed",
        "performedDateTime": "2023-05-08",
        "subject": {
          "reference": "urn:uuid:",
          "display": "Khalid Nilsson"
        }
      }
    },
    {
      "fullUrl": "urn:uuid:62b6ea3c-959e-46ab-b927-9df97b58470b",
      "resource": {
        "resourceType": "Procedure",
        "id": "62b6ea3c-959e-46ab-b927-9df97b58470b",
        "meta": {
          "profile": [
            "http://hl7.org/fhir/uv/ips/StructureDefinition/Procedure-uv-ips"
          ]
        },
        "code": {
          "coding": [
            {
              "code": "315639002",
              "system": "http://snomed.info/sct",
              "display": "Initial patient assessment (procedure)"
            }
          ],
          "text": "Initial patient assessment"
        },
        "text": {
          "status": "generated",
          "div": "<div xmlns=\"http://www.w3.org/1999/xhtml\"><table class=\"hl7__ips\"><tr><td>Initial patient assessment</td><td><span class=\"nb\">08-May-2023</span></td><td>-</td></tr></table></div>"
        },
        "status": "completed",
        "performedDateTime": "2023-05-08",
        "subject": {
          "reference": "urn:uuid:",
          "display": "Khalid Nilsson"
        }
      }
    },
    {
      "fullUrl": "urn:uuid:f959726a-a790-4397-b03e-0300d31f2c79",
      "resource": {
        "resourceType": "Procedure",
        "id": "f959726a-a790-4397-b03e-0300d31f2c79",
        "meta": {
          "profile": [
            "http://hl7.org/fhir/uv/ips/StructureDefinition/Procedure-uv-ips"
          ]
        },
        "code": {
          "coding": [
            {
              "code": "370789001",
              "system": "http://snomed.info/sct",
              "display": "Development of individualized plan of care (procedure)"
            }
          ],
          "text": "Development of individualized plan of care"
        },
        "text": {
          "status": "generated",
          "div": "<div xmlns=\"http://www.w3.org/1999/xhtml\"><table class=\"hl7__ips\"><tr><td>Development of individualized plan of care</td><td><span class=\"nb\">08-May-2023</span></td><td>-</td></tr></table></div>"
        },
        "status": "completed",
        "performedDateTime": "2023-05-08",
        "subject": {
          "reference": "urn:uuid:",
          "display": "Khalid Nilsson"
        }
      }
    },
    {
      "fullUrl": "urn:uuid:f5af13b6-54dc-476b-9504-a33af06739c2",
      "resource": {
        "resourceType": "AllergyIntolerance",
        "id": "f5af13b6-54dc-476b-9504-a33af06739c2",
        "meta": {
          "profile": [
            "http://hl7.eu/fhir/eps/StructureDefinition/allergyIntolerance-eu-eps"
          ]
        },
        "code": {
          "text": ""
        },
        "clinicalStatus": {
          "coding": [
            {
              "code": "active",
              "system": "http://terminology.hl7.org/CodeSystem/allergyintolerance-clinical"
            }
          ]
        },
        "text": {
          "status": "generated",
          "div": "<div xmlns=\"http://www.w3.org/1999/xhtml\"><table class=\"hl7__ips\"><tr><th>Allergy/Intolerance</th><th>Onset Date</th><th>Status</th><th>Type</th><th>Reaction</th></tr><tr><td></td><td>?</td><td>active</td><td>?</td><td></td></tr></table></div>"
        },
        "verificationStatus": {
          "coding": [
            {
              "code": "confirmed",
              "system": "http://terminology.hl7.org/CodeSystem/allergyintolerance-verification"
            }
          ]
        },
        "patient": {
          "reference": "urn:uuid:5d4dc357-a124-44c9-bc59-36a5f33bfe3b",
          "display": "Khalid Nilsson"
        },
        "_onsetDateTime": {
          "extension": [
            {
              "url": "http://hl7.org/fhir/StructureDefinition/data-absent-reason",
              "valueCode": "unknown"
            }
          ]
        }
      }
    },
    {
      "fullUrl": "urn:uuid:83a3d482-01a3-46c9-a851-333af1e2ef4e",
      "resource": {
        "resourceType": "CarePlan",
        "id": "83a3d482-01a3-46c9-a851-333af1e2ef4e",
        "category": [
          {
            "coding": [
              {
                "code": "assess-plan",
                "system": "http://terminology.hl7.org/CodeSystem/care-plan-category",
                "display": "Assessment and Plan"
              }
            ]
          }
        ],
        "activity": [
          {
            "detail": {
              "code": {
                "coding": [
                  {
                    "code": "276239002",
                    "system": "http://snomed.info/sct",
                    "display": "Therapy (regime/therapy)"
                  }
                ]
              },
              "status": "unknown",
              "description": "Therapy",
              "kind": "Appointment"
            }
          }
        ],
        "period": {
          "start": "2014-04-07"
        },
        "text": {
          "status": "generated",
          "div": "<div xmlns=\"http://www.w3.org/1999/xhtml\"><table class=\"hl7__ips first25\"><tr><th>Active Planned Care / Goals</th><th>Start Date</th><th>Reason</th></tr><tr><td>Therapy</td><td><span class=\"nb\">07-Apr-2014</span></td><td>-</td></tr></table></div>"
        },
        "status": "active",
        "intent": "plan",
        "subject": {
          "reference": "urn:uuid:5d4dc357-a124-44c9-bc59-36a5f33bfe3b",
          "display": "Khalid Nilsson"
        }
      }
    },
    {
      "fullUrl": "urn:uuid:5ba98e64-b8d2-44a2-8dd8-f9b4afde8246",
      "resource": {
        "resourceType": "CarePlan",
        "id": "5ba98e64-b8d2-44a2-8dd8-f9b4afde8246",
        "category": [
          {
            "coding": [
              {
                "code": "assess-plan",
                "system": "http://terminology.hl7.org/CodeSystem/care-plan-category",
                "display": "Assessment and Plan"
              }
            ]
          }
        ],
        "activity": [
          {
            "detail": {
              "code": {
                "coding": [
                  {
                    "code": "698360004",
                    "system": "http://snomed.info/sct",
                    "display": "Diabetes self management plan (qualifier value)"
                  }
                ]
              },
              "reasonCode": [
                {
                  "coding": [
                    {
                      "code": "15777000",
                      "system": "http://snomed.info/sct",
                      "display": "Prediabetes"
                    }
                  ]
                }
              ],
              "status": "unknown",
              "description": "Diabetes self management plan",
              "kind": "Appointment"
            }
          }
        ],
        "period": {
          "start": "1973-07-10"
        },
        "goal": [
          {
            "reference": "urn:uuid:040d1954-deb4-4e6b-995b-dbddf295f003"
          },
          {
            "reference": "urn:uuid:fe84883a-b319-414f-a459-8bea5bf4f0a5"
          },
          {
            "reference": "urn:uuid:3beb31c0-36d1-410f-875b-44ea97e4e7b7"
          }
        ],
        "text": {
          "status": "generated",
          "div": "<div xmlns=\"http://www.w3.org/1999/xhtml\"><table class=\"hl7__ips first25\"><tr><th>Active Planned Care / Goals</th><th>Start Date</th><th>Reason</th></tr><tr><td>Diabetes self management plan</td><td><span class=\"nb\">10-Jul-1973</span></td><td>Prediabetes</td></tr><tr><td><ul><li>Maintain hemoglobin A1c below 6.5% through lifestyle modification and self-management.</li><li>Achieve and maintain a healthy body weight as part of diabetes self-management.</li><li>Engage in at least 150 minutes of moderate-intensity physical activity per week.</li></ul></td><td></td><td></td></tr></table></div>"
        },
        "status": "active",
        "intent": "plan",
        "subject": {
          "reference": "urn:uuid:5d4dc357-a124-44c9-bc59-36a5f33bfe3b",
          "display": "Khalid Nilsson"
        }
      }
    },
    {
      "fullUrl": "urn:uuid:8f9b27e0-5ee0-4552-bf89-ed3e8ec08276",
      "resource": {
        "resourceType": "ImmunizationRecommendation",
        "id": "8f9b27e0-5ee0-4552-bf89-ed3e8ec08276",
        "recommendation": [
          {
            "vaccineCode": [
              {
                "coding": [
                  {
                    "code": "1181000221105",
                    "system": "http://snomed.info/sct",
                    "display": "Vaccine product containing only Influenza virus antigen (medicinal product)"
                  }
                ]
              }
            ],
            "dateCriterion": [
              {
                "code": {
                  "coding": [
                    {
                      "code": "30980-7",
                      "system": "http://loinc.org",
                      "display": "Date vaccine due"
                    }
                  ]
                },
                "value": "2025-10-01"
              }
            ],
            "targetDisease": {
              "coding": [
                {
                  "code": "6142004",
                  "system": "http://snomed.info/sct",
                  "display": "Influenza (disorder)"
                }
              ]
            },
            "series": "Annual seasonal influenza vaccination",
            "forecastStatus": {
              "coding": [
                {
                  "code": "due",
                  "system": "http://terminology.hl7.org/CodeSystem/immunization-recommendation-status",
                  "display": "Due"
                }
              ]
            }
          }
        ],
        "text": {
          "status": "generated",
          "div": "<div xmlns=\"http://www.w3.org/1999/xhtml\"><table class=\"hl7__ips\"><tr><td>Vaccine product containing only Influenza virus antigen (medicinal product)</td><td><span class=\"nb\">01-Oct-2025</span></td><td>Annual seasonal influenza vaccination</td></tr></table></div>"
        },
        "date": "2025-10-22",
        "patient": {
          "reference": "urn:uuid:5d4dc357-a124-44c9-bc59-36a5f33bfe3b",
          "display": "Khalid Nilsson"
        }
      }
    },
    {
      "fullUrl": "urn:uuid:79d582ad-54ff-44ec-ac2a-fc4d26f6e6fd",
      "resource": {
        "resourceType": "Observation",
        "id": "79d582ad-54ff-44ec-ac2a-fc4d26f6e6fd",
        "meta": {
          "profile": [
            "http://hl7.org/fhir/StructureDefinition/vitalsigns"
          ]
        },
        "category": [
          {
            "coding": [
              {
                "system": "http://terminology.hl7.org/CodeSystem/observation-category",
                "code": "vital-signs",
                "display": "Vital Signs"
              }
            ]
          }
        ],
        "valueQuantity": {
          "value": 171.6,
          "code": "cm",
          "unit": "cm"
        },
        "text": {
          "status": "generated",
          "div": "<div xmlns=\"http://www.w3.org/1999/xhtml\"><table class=\"hl7__ips\"><tr><th>Vital Sign</th><th>Date</th><th>Measurement</th></tr><tr><td>Body Height</td><td>30-Sep-2024</td><td>171.6 cm</td></tr></table></div>"
        },
        "status": "final",
        "code": {
          "coding": [
            {
              "code": "$8302-2",
              "system": "http://loinc.org",
              "display": "Body Height"
            }
          ]
        },
        "subject": {
          "reference": "urn:uuid:5d4dc357-a124-44c9-bc59-36a5f33bfe3b",
          "display": "Khalid Nilsson"
        },
        "effectiveDateTime": "2024-09-30"
      }
    },
    {
      "fullUrl": "urn:uuid:df4595b9-655c-4893-bce1-04d5e62ee3e5",
      "resource": {
        "resourceType": "Observation",
        "id": "df4595b9-655c-4893-bce1-04d5e62ee3e5",
        "meta": {
          "profile": [
            "http://hl7.org/fhir/StructureDefinition/vitalsigns"
          ]
        },
        "category": [
          {
            "coding": [
              {
                "system": "http://terminology.hl7.org/CodeSystem/observation-category",
                "code": "vital-signs",
                "display": "Vital Signs"
              }
            ]
          }
        ],
        "valueQuantity": {
          "value": 1,
          "code": "{score}",
          "unit": "{score}"
        },
        "text": {
          "status": "generated",
          "div": "<div xmlns=\"http://www.w3.org/1999/xhtml\"><table class=\"hl7__ips\"><tr><th>Vital Sign</th><th>Date</th><th>Measurement</th></tr><tr><td>Pain severity - 0-10 verbal numeric rating [Score] - Reported</td><td>30-Sep-2024</td><td>1 {score}</td></tr></table></div>"
        },
        "status": "final",
        "code": {
          "coding": [
            {
              "code": "$72514-3",
              "system": "http://loinc.org",
              "display": "Pain severity - 0-10 verbal numeric rating [Score] - Reported"
            }
          ]
        },
        "subject": {
          "reference": "urn:uuid:5d4dc357-a124-44c9-bc59-36a5f33bfe3b",
          "display": "Khalid Nilsson"
        },
        "effectiveDateTime": "2024-09-30"
      }
    },
    {
      "fullUrl": "urn:uuid:4d161273-0076-4e02-ab1c-0100231fa91e",
      "resource": {
        "resourceType": "Observation",
        "id": "4d161273-0076-4e02-ab1c-0100231fa91e",
        "meta": {
          "profile": [
            "http://hl7.org/fhir/StructureDefinition/vitalsigns"
          ]
        },
        "category": [
          {
            "coding": [
              {
                "system": "http://terminology.hl7.org/CodeSystem/observation-category",
                "code": "vital-signs",
                "display": "Vital Signs"
              }
            ]
          }
        ],
        "valueQuantity": {
          "value": 89.4,
          "code": "kg",
          "unit": "kg"
        },
        "text": {
          "status": "generated",
          "div": "<div xmlns=\"http://www.w3.org/1999/xhtml\"><table class=\"hl7__ips\"><tr><th>Vital Sign</th><th>Date</th><th>Measurement</th></tr><tr><td>Body Weight</td><td>30-Sep-2024</td><td>89.4 kg</td></tr></table></div>"
        },
        "status": "final",
        "code": {
          "coding": [
            {
              "code": "$29463-7",
              "system": "http://loinc.org",
              "display": "Body Weight"
            }
          ]
        },
        "subject": {
          "reference": "urn:uuid:5d4dc357-a124-44c9-bc59-36a5f33bfe3b",
          "display": "Khalid Nilsson"
        },
        "effectiveDateTime": "2024-09-30"
      }
    },
    {
      "fullUrl": "urn:uuid:21e7ec9f-8904-4c0f-a42c-35fb7d763916",
      "resource": {
        "resourceType": "Observation",
        "id": "21e7ec9f-8904-4c0f-a42c-35fb7d763916",
        "meta": {
          "profile": [
            "http://hl7.org/fhir/StructureDefinition/vitalsigns"
          ]
        },
        "category": [
          {
            "coding": [
              {
                "system": "http://terminology.hl7.org/CodeSystem/observation-category",
                "code": "vital-signs",
                "display": "Vital Signs"
              }
            ]
          }
        ],
        "valueQuantity": {
          "value": 30.4,
          "code": "kg/m2",
          "unit": "kg/m2"
        },
        "text": {
          "status": "generated",
          "div": "<div xmlns=\"http://www.w3.org/1999/xhtml\"><table class=\"hl7__ips\"><tr><th>Vital Sign</th><th>Date</th><th>Measurement</th></tr><tr><td>Body mass index (BMI) [Ratio]</td><td>30-Sep-2024</td><td>30.4 kg/m2</td></tr></table></div>"
        },
        "status": "final",
        "code": {
          "coding": [
            {
              "code": "$39156-5",
              "system": "http://loinc.org",
              "display": "Body mass index (BMI) [Ratio]"
            }
          ]
        },
        "subject": {
          "reference": "urn:uuid:5d4dc357-a124-44c9-bc59-36a5f33bfe3b",
          "display": "Khalid Nilsson"
        },
        "effectiveDateTime": "2024-09-30"
      }
    },
    {
      "fullUrl": "urn:uuid:47e24d03-1ad6-4bc3-9e6d-4febf6e21c7f",
      "resource": {
        "resourceType": "Observation",
        "id": "47e24d03-1ad6-4bc3-9e6d-4febf6e21c7f",
        "meta": {
          "profile": [
            "http://hl7.org/fhir/StructureDefinition/vitalsigns"
          ]
        },
        "category": [
          {
            "coding": [
              {
                "system": "http://terminology.hl7.org/CodeSystem/observation-category",
                "code": "vital-signs",
                "display": "Vital Signs"
              }
            ]
          }
        ],
        "valueQuantity": {
          "value": 66,
          "code": "mm[Hg]",
          "unit": "mm[Hg]"
        },
        "text": {
          "status": "generated",
          "div": "<div xmlns=\"http://www.w3.org/1999/xhtml\"><table class=\"hl7__ips\"><tr><th>Vital Sign</th><th>Date</th><th>Measurement</th></tr><tr><td>Diastolic Blood Pressure</td><td>30-Sep-2024</td><td>66 mm[Hg]</td></tr></table></div>"
        },
        "status": "final",
        "code": {
          "coding": [
            {
              "code": "$8462-4",
              "system": "http://loinc.org",
              "display": "Diastolic Blood Pressure"
            }
          ]
        },
        "subject": {
          "reference": "urn:uuid:5d4dc357-a124-44c9-bc59-36a5f33bfe3b",
          "display": "Khalid Nilsson"
        },
        "effectiveDateTime": "2024-09-30"
      }
    },
    {
      "fullUrl": "urn:uuid:08b4ce33-f003-4c4a-b2d4-245f4c06b0f8",
      "resource": {
        "resourceType": "Observation",
        "id": "08b4ce33-f003-4c4a-b2d4-245f4c06b0f8",
        "meta": {
          "profile": [
            "http://hl7.org/fhir/StructureDefinition/vitalsigns"
          ]
        },
        "category": [
          {
            "coding": [
              {
                "system": "http://terminology.hl7.org/CodeSystem/observation-category",
                "code": "vital-signs",
                "display": "Vital Signs"
              }
            ]
          }
        ],
        "valueQuantity": {
          "value": 97,
          "code": "mm[Hg]",
          "unit": "mm[Hg]"
        },
        "text": {
          "status": "generated",
          "div": "<div xmlns=\"http://www.w3.org/1999/xhtml\"><table class=\"hl7__ips\"><tr><th>Vital Sign</th><th>Date</th><th>Measurement</th></tr><tr><td>Systolic Blood Pressure</td><td>30-Sep-2024</td><td>97 mm[Hg]</td></tr></table></div>"
        },
        "status": "final",
        "code": {
          "coding": [
            {
              "code": "$8480-6",
              "system": "http://loinc.org",
              "display": "Systolic Blood Pressure"
            }
          ]
        },
        "subject": {
          "reference": "urn:uuid:5d4dc357-a124-44c9-bc59-36a5f33bfe3b",
          "display": "Khalid Nilsson"
        },
        "effectiveDateTime": "2024-09-30"
      }
    },
    {
      "fullUrl": "urn:uuid:1db5b4b3-f40f-43ba-9902-b08c1fad626e",
      "resource": {
        "resourceType": "Observation",
        "id": "1db5b4b3-f40f-43ba-9902-b08c1fad626e",
        "meta": {
          "profile": [
            "http://hl7.org/fhir/StructureDefinition/vitalsigns"
          ]
        },
        "category": [
          {
            "coding": [
              {
                "system": "http://terminology.hl7.org/CodeSystem/observation-category",
                "code": "vital-signs",
                "display": "Vital Signs"
              }
            ]
          }
        ],
        "valueQuantity": {
          "value": 68,
          "code": "/min",
          "unit": "/min"
        },
        "text": {
          "status": "generated",
          "div": "<div xmlns=\"http://www.w3.org/1999/xhtml\"><table class=\"hl7__ips\"><tr><th>Vital Sign</th><th>Date</th><th>Measurement</th></tr><tr><td>Heart rate</td><td>30-Sep-2024</td><td>68 /min</td></tr></table></div>"
        },
        "status": "final",
        "code": {
          "coding": [
            {
              "code": "$8867-4",
              "system": "http://loinc.org",
              "display": "Heart rate"
            }
          ]
        },
        "subject": {
          "reference": "urn:uuid:5d4dc357-a124-44c9-bc59-36a5f33bfe3b",
          "display": "Khalid Nilsson"
        },
        "effectiveDateTime": "2024-09-30"
      }
    },
    {
      "fullUrl": "urn:uuid:51a63e57-fbd8-4294-a874-b5394fbf1e1b",
      "resource": {
        "resourceType": "Observation",
        "id": "51a63e57-fbd8-4294-a874-b5394fbf1e1b",
        "meta": {
          "profile": [
            "http://hl7.org/fhir/StructureDefinition/vitalsigns"
          ]
        },
        "category": [
          {
            "coding": [
              {
                "system": "http://terminology.hl7.org/CodeSystem/observation-category",
                "code": "vital-signs",
                "display": "Vital Signs"
              }
            ]
          }
        ],
        "valueQuantity": {
          "value": 13,
          "code": "/min",
          "unit": "/min"
        },
        "text": {
          "status": "generated",
          "div": "<div xmlns=\"http://www.w3.org/1999/xhtml\"><table class=\"hl7__ips\"><tr><th>Vital Sign</th><th>Date</th><th>Measurement</th></tr><tr><td>Respiratory rate</td><td>30-Sep-2024</td><td>13 /min</td></tr></table></div>"
        },
        "status": "final",
        "code": {
          "coding": [
            {
              "code": "$9279-1",
              "system": "http://loinc.org",
              "display": "Respiratory rate"
            }
          ]
        },
        "subject": {
          "reference": "urn:uuid:5d4dc357-a124-44c9-bc59-36a5f33bfe3b",
          "display": "Khalid Nilsson"
        },
        "effectiveDateTime": "2024-09-30"
      }
    },
    {
      "fullUrl": "urn:uuid:fcf99632-5851-4526-a801-67527e7b106a",
      "resource": {
        "resourceType": "Observation",
        "id": "fcf99632-5851-4526-a801-67527e7b106a",
        "meta": {
          "profile": [
            "http://hl7.org/fhir/StructureDefinition/vitalsigns"
          ]
        },
        "category": [
          {
            "coding": [
              {
                "system": "http://terminology.hl7.org/CodeSystem/observation-category",
                "code": "vital-signs",
                "display": "Vital Signs"
              }
            ]
          }
        ],
        "valueQuantity": {
          "value": 171.6,
          "code": "cm",
          "unit": "cm"
        },
        "text": {
          "status": "generated",
          "div": "<div xmlns=\"http://www.w3.org/1999/xhtml\"><table class=\"hl7__ips\"><tr><th>Vital Sign</th><th>Date</th><th>Measurement</th></tr><tr><td>Body Height</td><td>25-Sep-2023</td><td>171.6 cm</td></tr></table></div>"
        },
        "status": "final",
        "code": {
          "coding": [
            {
              "code": "$8302-2",
              "system": "http://loinc.org",
              "display": "Body Height"
            }
          ]
        },
        "subject": {
          "reference": "urn:uuid:5d4dc357-a124-44c9-bc59-36a5f33bfe3b",
          "display": "Khalid Nilsson"
        },
        "effectiveDateTime": "2023-09-25"
      }
    },
    {
      "fullUrl": "urn:uuid:ee258c6c-5e04-46de-aebc-aaaee62f8b3d",
      "resource": {
        "resourceType": "Observation",
        "id": "ee258c6c-5e04-46de-aebc-aaaee62f8b3d",
        "meta": {
          "profile": [
            "http://hl7.org/fhir/StructureDefinition/vitalsigns"
          ]
        },
        "category": [
          {
            "coding": [
              {
                "system": "http://terminology.hl7.org/CodeSystem/observation-category",
                "code": "vital-signs",
                "display": "Vital Signs"
              }
            ]
          }
        ],
        "valueQuantity": {
          "value": 1,
          "code": "{score}",
          "unit": "{score}"
        },
        "text": {
          "status": "generated",
          "div": "<div xmlns=\"http://www.w3.org/1999/xhtml\"><table class=\"hl7__ips\"><tr><th>Vital Sign</th><th>Date</th><th>Measurement</th></tr><tr><td>Pain severity - 0-10 verbal numeric rating [Score] - Reported</td><td>25-Sep-2023</td><td>1 {score}</td></tr></table></div>"
        },
        "status": "final",
        "code": {
          "coding": [
            {
              "code": "$72514-3",
              "system": "http://loinc.org",
              "display": "Pain severity - 0-10 verbal numeric rating [Score] - Reported"
            }
          ]
        },
        "subject": {
          "reference": "urn:uuid:5d4dc357-a124-44c9-bc59-36a5f33bfe3b",
          "display": "Khalid Nilsson"
        },
        "effectiveDateTime": "2023-09-25"
      }
    },
    {
      "fullUrl": "urn:uuid:97db9fea-ff20-4340-8329-98efe601a816",
      "resource": {
        "resourceType": "Observation",
        "id": "97db9fea-ff20-4340-8329-98efe601a816",
        "meta": {
          "profile": [
            "http://hl7.org/fhir/StructureDefinition/vitalsigns"
          ]
        },
        "category": [
          {
            "coding": [
              {
                "system": "http://terminology.hl7.org/CodeSystem/observation-category",
                "code": "vital-signs",
                "display": "Vital Signs"
              }
            ]
          }
        ],
        "valueQuantity": {
          "value": 89.4,
          "code": "kg",
          "unit": "kg"
        },
        "text": {
          "status": "generated",
          "div": "<div xmlns=\"http://www.w3.org/1999/xhtml\"><table class=\"hl7__ips\"><tr><th>Vital Sign</th><th>Date</th><th>Measurement</th></tr><tr><td>Body Weight</td><td>25-Sep-2023</td><td>89.4 kg</td></tr></table></div>"
        },
        "status": "final",
        "code": {
          "coding": [
            {
              "code": "$29463-7",
              "system": "http://loinc.org",
              "display": "Body Weight"
            }
          ]
        },
        "subject": {
          "reference": "urn:uuid:5d4dc357-a124-44c9-bc59-36a5f33bfe3b",
          "display": "Khalid Nilsson"
        },
        "effectiveDateTime": "2023-09-25"
      }
    },
    {
      "fullUrl": "urn:uuid:4491d634-f29d-4fa7-a9e6-26eb19bc5d8d",
      "resource": {
        "resourceType": "Observation",
        "id": "4491d634-f29d-4fa7-a9e6-26eb19bc5d8d",
        "meta": {
          "profile": [
            "http://hl7.org/fhir/StructureDefinition/vitalsigns"
          ]
        },
        "category": [
          {
            "coding": [
              {
                "system": "http://terminology.hl7.org/CodeSystem/observation-category",
                "code": "vital-signs",
                "display": "Vital Signs"
              }
            ]
          }
        ],
        "valueQuantity": {
          "value": 30.4,
          "code": "kg/m2",
          "unit": "kg/m2"
        },
        "text": {
          "status": "generated",
          "div": "<div xmlns=\"http://www.w3.org/1999/xhtml\"><table class=\"hl7__ips\"><tr><th>Vital Sign</th><th>Date</th><th>Measurement</th></tr><tr><td>Body mass index (BMI) [Ratio]</td><td>25-Sep-2023</td><td>30.4 kg/m2</td></tr></table></div>"
        },
        "status": "final",
        "code": {
          "coding": [
            {
              "code": "$39156-5",
              "system": "http://loinc.org",
              "display": "Body mass index (BMI) [Ratio]"
            }
          ]
        },
        "subject": {
          "reference": "urn:uuid:5d4dc357-a124-44c9-bc59-36a5f33bfe3b",
          "display": "Khalid Nilsson"
        },
        "effectiveDateTime": "2023-09-25"
      }
    },
    {
      "fullUrl": "urn:uuid:783e6035-639d-4066-81b2-e143c85cd707",
      "resource": {
        "resourceType": "Observation",
        "id": "783e6035-639d-4066-81b2-e143c85cd707",
        "meta": {
          "profile": [
            "http://hl7.org/fhir/StructureDefinition/vitalsigns"
          ]
        },
        "category": [
          {
            "coding": [
              {
                "system": "http://terminology.hl7.org/CodeSystem/observation-category",
                "code": "vital-signs",
                "display": "Vital Signs"
              }
            ]
          }
        ],
        "valueQuantity": {
          "value": 61,
          "code": "mm[Hg]",
          "unit": "mm[Hg]"
        },
        "text": {
          "status": "generated",
          "div": "<div xmlns=\"http://www.w3.org/1999/xhtml\"><table class=\"hl7__ips\"><tr><th>Vital Sign</th><th>Date</th><th>Measurement</th></tr><tr><td>Diastolic Blood Pressure</td><td>25-Sep-2023</td><td>61 mm[Hg]</td></tr></table></div>"
        },
        "status": "final",
        "code": {
          "coding": [
            {
              "code": "$8462-4",
              "system": "http://loinc.org",
              "display": "Diastolic Blood Pressure"
            }
          ]
        },
        "subject": {
          "reference": "urn:uuid:5d4dc357-a124-44c9-bc59-36a5f33bfe3b",
          "display": "Khalid Nilsson"
        },
        "effectiveDateTime": "2023-09-25"
      }
    },
    {
      "fullUrl": "urn:uuid:51dc3f80-1abd-4efe-b64c-be8185207973",
      "resource": {
        "resourceType": "Observation",
        "id": "51dc3f80-1abd-4efe-b64c-be8185207973",
        "meta": {
          "profile": [
            "http://hl7.org/fhir/StructureDefinition/vitalsigns"
          ]
        },
        "category": [
          {
            "coding": [
              {
                "system": "http://terminology.hl7.org/CodeSystem/observation-category",
                "code": "vital-signs",
                "display": "Vital Signs"
              }
            ]
          }
        ],
        "valueQuantity": {
          "value": 109,
          "code": "mm[Hg]",
          "unit": "mm[Hg]"
        },
        "text": {
          "status": "generated",
          "div": "<div xmlns=\"http://www.w3.org/1999/xhtml\"><table class=\"hl7__ips\"><tr><th>Vital Sign</th><th>Date</th><th>Measurement</th></tr><tr><td>Systolic Blood Pressure</td><td>25-Sep-2023</td><td>109 mm[Hg]</td></tr></table></div>"
        },
        "status": "final",
        "code": {
          "coding": [
            {
              "code": "$8480-6",
              "system": "http://loinc.org",
              "display": "Systolic Blood Pressure"
            }
          ]
        },
        "subject": {
          "reference": "urn:uuid:5d4dc357-a124-44c9-bc59-36a5f33bfe3b",
          "display": "Khalid Nilsson"
        },
        "effectiveDateTime": "2023-09-25"
      }
    },
    {
      "fullUrl": "urn:uuid:c5ab3f2c-c0ac-4ef8-826f-6d4f360dce41",
      "resource": {
        "resourceType": "Observation",
        "id": "c5ab3f2c-c0ac-4ef8-826f-6d4f360dce41",
        "meta": {
          "profile": [
            "http://hl7.org/fhir/StructureDefinition/vitalsigns"
          ]
        },
        "category": [
          {
            "coding": [
              {
                "system": "http://terminology.hl7.org/CodeSystem/observation-category",
                "code": "vital-signs",
                "display": "Vital Signs"
              }
            ]
          }
        ],
        "valueQuantity": {
          "value": 61,
          "code": "/min",
          "unit": "/min"
        },
        "text": {
          "status": "generated",
          "div": "<div xmlns=\"http://www.w3.org/1999/xhtml\"><table class=\"hl7__ips\"><tr><th>Vital Sign</th><th>Date</th><th>Measurement</th></tr><tr><td>Heart rate</td><td>25-Sep-2023</td><td>61 /min</td></tr></table></div>"
        },
        "status": "final",
        "code": {
          "coding": [
            {
              "code": "$8867-4",
              "system": "http://loinc.org",
              "display": "Heart rate"
            }
          ]
        },
        "subject": {
          "reference": "urn:uuid:5d4dc357-a124-44c9-bc59-36a5f33bfe3b",
          "display": "Khalid Nilsson"
        },
        "effectiveDateTime": "2023-09-25"
      }
    },
    {
      "fullUrl": "urn:uuid:da36a0b9-8346-4c06-8141-37491f15e293",
      "resource": {
        "resourceType": "Observation",
        "id": "da36a0b9-8346-4c06-8141-37491f15e293",
        "meta": {
          "profile": [
            "http://hl7.org/fhir/StructureDefinition/vitalsigns"
          ]
        },
        "category": [
          {
            "coding": [
              {
                "system": "http://terminology.hl7.org/CodeSystem/observation-category",
                "code": "vital-signs",
                "display": "Vital Signs"
              }
            ]
          }
        ],
        "valueQuantity": {
          "value": 13,
          "code": "/min",
          "unit": "/min"
        },
        "text": {
          "status": "generated",
          "div": "<div xmlns=\"http://www.w3.org/1999/xhtml\"><table class=\"hl7__ips\"><tr><th>Vital Sign</th><th>Date</th><th>Measurement</th></tr><tr><td>Respiratory rate</td><td>25-Sep-2023</td><td>13 /min</td></tr></table></div>"
        },
        "status": "final",
        "code": {
          "coding": [
            {
              "code": "$9279-1",
              "system": "http://loinc.org",
              "display": "Respiratory rate"
            }
          ]
        },
        "subject": {
          "reference": "urn:uuid:5d4dc357-a124-44c9-bc59-36a5f33bfe3b",
          "display": "Khalid Nilsson"
        },
        "effectiveDateTime": "2023-09-25"
      }
    },
    {
      "fullUrl": "urn:uuid:223ef8a5-1fb3-4bb1-98df-d9fd2f962975",
      "resource": {
        "resourceType": "Observation",
        "id": "223ef8a5-1fb3-4bb1-98df-d9fd2f962975",
        "meta": {
          "profile": [
            "http://hl7.eu/fhir/laboratory/StructureDefinition/Observation-resultslab-eu-lab"
          ]
        },
        "performer": [
          {
            "display": "The Central European Lab"
          }
        ],
        "category": [
          {
            "coding": [
              {
                "system": "http://terminology.hl7.org/CodeSystem/observation-category",
                "code": "laboratory"
              }
            ]
          }
        ],
        "code": {
          "coding": [
            {
              "code": "4548-4",
              "system": "http://loinc.org",
              "display": "Hemoglobin A1c/Hemoglobin.total in Blood"
            }
          ],
          "text": "Hemoglobin A1c/Hemoglobin.total in Blood"
        },
        "valueQuantity": {
          "system": "http://unitsofmeasure.org",
          "value": 6.2,
          "unit": "%",
          "code": "%"
        },
        "referenceRange": [
          {
            "low": {
              "value": 4.5,
              "code": "%",
              "system": "http://unitsofmeasure.org"
            }
          },
          {
            "high": {
              "value": 6.4,
              "code": "%",
              "system": "http://unitsofmeasure.org"
            }
          }
        ],
        "text": {
          "status": "generated",
          "div": "<div xmlns=\"http://www.w3.org/1999/xhtml\"><table class=\"hl7__eu__lab__report\"><tr><th>Test</th><th>01-Oct-2024</th><th>Reference&#xA0;Range</th><th>Unit</th></tr><tr><td>Hemoglobin A1c/Hemoglobin.total in Blood</td><td>6.2</td><td>4.5 - 6.4</td><td></td><td>%</td></tr></table></div>"
        },
        "status": "final",
        "subject": {
          "reference": "urn:uuid:5d4dc357-a124-44c9-bc59-36a5f33bfe3b",
          "display": "Khalid Nilsson"
        },
        "effectiveDateTime": "2024-09-30T23:04:23Z"
      }
    },
    {
      "fullUrl": "urn:uuid:39b462d0-e20b-4b1b-9043-b4f9cde47c8a",
      "resource": {
        "resourceType": "Observation",
        "id": "39b462d0-e20b-4b1b-9043-b4f9cde47c8a",
        "meta": {
          "profile": [
            "http://hl7.eu/fhir/laboratory/StructureDefinition/Observation-resultslab-eu-lab"
          ]
        },
        "performer": [
          {
            "display": "The Central European Lab"
          }
        ],
        "category": [
          {
            "coding": [
              {
                "system": "http://terminology.hl7.org/CodeSystem/observation-category",
                "code": "laboratory"
              }
            ]
          }
        ],
        "code": {
          "coding": [
            {
              "code": "2339-0",
              "system": "http://loinc.org",
              "display": "Glucose [Mass/volume] in Blood"
            }
          ],
          "text": "Glucose [Mass/volume] in Blood"
        },
        "valueQuantity": {
          "system": "http://unitsofmeasure.org",
          "value": 84,
          "unit": "mg/dL",
          "code": "mg/dL"
        },
        "referenceRange": [
          {
            "low": {
              "value": 70,
              "code": "mg/dL",
              "system": "http://unitsofmeasure.org"
            }
          },
          {
            "high": {
              "value": 99,
              "code": "mg/dL",
              "system": "http://unitsofmeasure.org"
            }
          }
        ],
        "text": {
          "status": "generated",
          "div": "<div xmlns=\"http://www.w3.org/1999/xhtml\"><table class=\"hl7__eu__lab__report\"><tr><th>Test</th><th>01-Oct-2024</th><th>Reference&#xA0;Range</th><th>Unit</th></tr><tr><td>Glucose [Mass/volume] in Blood</td><td>84.0</td><td>70 - 99</td><td></td><td>mg/dL</td></tr></table></div>"
        },
        "status": "final",
        "subject": {
          "reference": "urn:uuid:5d4dc357-a124-44c9-bc59-36a5f33bfe3b",
          "display": "Khalid Nilsson"
        },
        "effectiveDateTime": "2024-09-30T23:04:23Z"
      }
    },
    {
      "fullUrl": "urn:uuid:2d68effe-eb4f-4652-b5d7-84091e388ac9",
      "resource": {
        "resourceType": "Observation",
        "id": "2d68effe-eb4f-4652-b5d7-84091e388ac9",
        "meta": {
          "profile": [
            "http://hl7.eu/fhir/laboratory/StructureDefinition/Observation-resultslab-eu-lab"
          ]
        },
        "performer": [
          {
            "display": "The Central European Lab"
          }
        ],
        "category": [
          {
            "coding": [
              {
                "system": "http://terminology.hl7.org/CodeSystem/observation-category",
                "code": "laboratory"
              }
            ]
          }
        ],
        "code": {
          "coding": [
            {
              "code": "6299-2",
              "system": "http://loinc.org",
              "display": "Urea nitrogen [Mass/volume] in Blood"
            }
          ],
          "text": "Urea nitrogen [Mass/volume] in Blood"
        },
        "valueQuantity": {
          "system": "http://unitsofmeasure.org",
          "value": 7.9,
          "unit": "mg/dL",
          "code": "mg/dL"
        },
        "referenceRange": [
          {
            "low": {
              "value": 7,
              "code": "mg/dL",
              "system": "http://unitsofmeasure.org"
            }
          },
          {
            "high": {
              "value": 20,
              "code": "mg/dL",
              "system": "http://unitsofmeasure.org"
            }
          }
        ],
        "text": {
          "status": "generated",
          "div": "<div xmlns=\"http://www.w3.org/1999/xhtml\"><table class=\"hl7__eu__lab__report\"><tr><th>Test</th><th>01-Oct-2024</th><th>Reference&#xA0;Range</th><th>Unit</th></tr><tr><td>Urea nitrogen [Mass/volume] in Blood</td><td>7.9</td><td>7 - 20</td><td></td><td>mg/dL</td></tr></table></div>"
        },
        "status": "final",
        "subject": {
          "reference": "urn:uuid:5d4dc357-a124-44c9-bc59-36a5f33bfe3b",
          "display": "Khalid Nilsson"
        },
        "effectiveDateTime": "2024-09-30T23:04:23Z"
      }
    },
    {
      "fullUrl": "urn:uuid:e642b8ce-e5d1-4636-a4a4-3d280596136e",
      "resource": {
        "resourceType": "Observation",
        "id": "e642b8ce-e5d1-4636-a4a4-3d280596136e",
        "meta": {
          "profile": [
            "http://hl7.eu/fhir/laboratory/StructureDefinition/Observation-resultslab-eu-lab"
          ]
        },
        "performer": [
          {
            "display": "The Central European Lab"
          }
        ],
        "category": [
          {
            "coding": [
              {
                "system": "http://terminology.hl7.org/CodeSystem/observation-category",
                "code": "laboratory"
              }
            ]
          }
        ],
        "code": {
          "coding": [
            {
              "code": "38483-4",
              "system": "http://loinc.org",
              "display": "Creatinine [Mass/volume] in Blood"
            }
          ],
          "text": "Creatinine [Mass/volume] in Blood"
        },
        "valueQuantity": {
          "system": "http://unitsofmeasure.org",
          "value": 0.9,
          "unit": "mg/dL",
          "code": "mg/dL"
        },
        "referenceRange": [
          {
            "low": {
              "value": 0.9,
              "code": "mg/dL",
              "system": "http://unitsofmeasure.org"
            }
          },
          {
            "high": {
              "value": 1.3,
              "code": "mg/dL",
              "system": "http://unitsofmeasure.org"
            }
          }
        ],
        "text": {
          "status": "generated",
          "div": "<div xmlns=\"http://www.w3.org/1999/xhtml\"><table class=\"hl7__eu__lab__report\"><tr><th>Test</th><th>01-Oct-2024</th><th>Reference&#xA0;Range</th><th>Unit</th></tr><tr><td>Creatinine [Mass/volume] in Blood</td><td>0.9</td><td>0.9 - 1.3</td><td></td><td>mg/dL</td></tr></table></div>"
        },
        "status": "final",
        "subject": {
          "reference": "urn:uuid:5d4dc357-a124-44c9-bc59-36a5f33bfe3b",
          "display": "Khalid Nilsson"
        },
        "effectiveDateTime": "2024-09-30T23:04:23Z"
      }
    },
    {
      "fullUrl": "urn:uuid:adfa0ad2-09c4-445a-b588-3466262fe377",
      "resource": {
        "resourceType": "Observation",
        "id": "adfa0ad2-09c4-445a-b588-3466262fe377",
        "meta": {
          "profile": [
            "http://hl7.eu/fhir/laboratory/StructureDefinition/Observation-resultslab-eu-lab"
          ]
        },
        "performer": [
          {
            "display": "The Central European Lab"
          }
        ],
        "category": [
          {
            "coding": [
              {
                "system": "http://terminology.hl7.org/CodeSystem/observation-category",
                "code": "laboratory"
              }
            ]
          }
        ],
        "code": {
          "coding": [
            {
              "code": "49765-1",
              "system": "http://loinc.org",
              "display": "Calcium [Mass/volume] in Blood"
            }
          ],
          "text": "Calcium [Mass/volume] in Blood"
        },
        "valueQuantity": {
          "system": "http://unitsofmeasure.org",
          "value": 9.3,
          "unit": "mg/dL",
          "code": "mg/dL"
        },
        "referenceRange": [
          {
            "low": {
              "value": 8.6,
              "code": "mg/dL",
              "system": "http://unitsofmeasure.org"
            }
          },
          {
            "high": {
              "value": 10.2,
              "code": "mg/dL",
              "system": "http://unitsofmeasure.org"
            }
          }
        ],
        "text": {
          "status": "generated",
          "div": "<div xmlns=\"http://www.w3.org/1999/xhtml\"><table class=\"hl7__eu__lab__report\"><tr><th>Test</th><th>01-Oct-2024</th><th>Reference&#xA0;Range</th><th>Unit</th></tr><tr><td>Calcium [Mass/volume] in Blood</td><td>9.3</td><td>8.6 - 10.2</td><td></td><td>mg/dL</td></tr></table></div>"
        },
        "status": "final",
        "subject": {
          "reference": "urn:uuid:5d4dc357-a124-44c9-bc59-36a5f33bfe3b",
          "display": "Khalid Nilsson"
        },
        "effectiveDateTime": "2024-09-30T23:04:23Z"
      }
    },
    {
      "fullUrl": "urn:uuid:02af9394-8d2d-46b5-a05e-cd59c43a53fa",
      "resource": {
        "resourceType": "Observation",
        "id": "02af9394-8d2d-46b5-a05e-cd59c43a53fa",
        "meta": {
          "profile": [
            "http://hl7.eu/fhir/laboratory/StructureDefinition/Observation-resultslab-eu-lab"
          ]
        },
        "performer": [
          {
            "display": "The Central European Lab"
          }
        ],
        "category": [
          {
            "coding": [
              {
                "system": "http://terminology.hl7.org/CodeSystem/observation-category",
                "code": "laboratory"
              }
            ]
          }
        ],
        "code": {
          "coding": [
            {
              "code": "2947-0",
              "system": "http://loinc.org",
              "display": "Sodium [Moles/volume] in Blood"
            }
          ],
          "text": "Sodium [Moles/volume] in Blood"
        },
        "valueQuantity": {
          "system": "http://unitsofmeasure.org",
          "value": 140.1,
          "unit": "mmol/L",
          "code": "mmol/L"
        },
        "referenceRange": [
          {
            "low": {
              "value": 135,
              "code": "mmol/L",
              "system": "http://unitsofmeasure.org"
            }
          },
          {
            "high": {
              "value": 145,
              "code": "mmol/L",
              "system": "http://unitsofmeasure.org"
            }
          }
        ],
        "text": {
          "status": "generated",
          "div": "<div xmlns=\"http://www.w3.org/1999/xhtml\"><table class=\"hl7__eu__lab__report\"><tr><th>Test</th><th>01-Oct-2024</th><th>Reference&#xA0;Range</th><th>Unit</th></tr><tr><td>Sodium [Moles/volume] in Blood</td><td>140.1</td><td>135 - 145</td><td></td><td>mmol/L</td></tr></table></div>"
        },
        "status": "final",
        "subject": {
          "reference": "urn:uuid:5d4dc357-a124-44c9-bc59-36a5f33bfe3b",
          "display": "Khalid Nilsson"
        },
        "effectiveDateTime": "2024-09-30T23:04:23Z"
      }
    },
    {
      "fullUrl": "urn:uuid:7086206e-b631-489f-9cf7-e0fe7a1559f9",
      "resource": {
        "resourceType": "Observation",
        "id": "7086206e-b631-489f-9cf7-e0fe7a1559f9",
        "meta": {
          "profile": [
            "http://hl7.eu/fhir/laboratory/StructureDefinition/Observation-resultslab-eu-lab"
          ]
        },
        "performer": [
          {
            "display": "The Central European Lab"
          }
        ],
        "category": [
          {
            "coding": [
              {
                "system": "http://terminology.hl7.org/CodeSystem/observation-category",
                "code": "laboratory"
              }
            ]
          }
        ],
        "code": {
          "coding": [
            {
              "code": "6298-4",
              "system": "http://loinc.org",
              "display": "Potassium [Moles/volume] in Blood"
            }
          ],
          "text": "Potassium [Moles/volume] in Blood"
        },
        "valueQuantity": {
          "system": "http://unitsofmeasure.org",
          "value": 4.3,
          "unit": "mmol/L",
          "code": "mmol/L"
        },
        "referenceRange": [
          {
            "low": {
              "value": 3.5,
              "code": "mmol/L",
              "system": "http://unitsofmeasure.org"
            }
          },
          {
            "high": {
              "value": 5.1,
              "code": "mmol/L",
              "system": "http://unitsofmeasure.org"
            }
          }
        ],
        "text": {
          "status": "generated",
          "div": "<div xmlns=\"http://www.w3.org/1999/xhtml\"><table class=\"hl7__eu__lab__report\"><tr><th>Test</th><th>01-Oct-2024</th><th>Reference&#xA0;Range</th><th>Unit</th></tr><tr><td>Potassium [Moles/volume] in Blood</td><td>4.3</td><td>3.5 - 5.1</td><td></td><td>mmol/L</td></tr></table></div>"
        },
        "status": "final",
        "subject": {
          "reference": "urn:uuid:5d4dc357-a124-44c9-bc59-36a5f33bfe3b",
          "display": "Khalid Nilsson"
        },
        "effectiveDateTime": "2024-09-30T23:04:23Z"
      }
    },
    {
      "fullUrl": "urn:uuid:7a0735eb-583c-4406-92e7-47f24eef6fc1",
      "resource": {
        "resourceType": "Observation",
        "id": "7a0735eb-583c-4406-92e7-47f24eef6fc1",
        "meta": {
          "profile": [
            "http://hl7.eu/fhir/laboratory/StructureDefinition/Observation-resultslab-eu-lab"
          ]
        },
        "performer": [
          {
            "display": "The Central European Lab"
          }
        ],
        "category": [
          {
            "coding": [
              {
                "system": "http://terminology.hl7.org/CodeSystem/observation-category",
                "code": "laboratory"
              }
            ]
          }
        ],
        "code": {
          "coding": [
            {
              "code": "2069-3",
              "system": "http://loinc.org",
              "display": "Chloride [Moles/volume] in Blood"
            }
          ],
          "text": "Chloride [Moles/volume] in Blood"
        },
        "valueQuantity": {
          "system": "http://unitsofmeasure.org",
          "value": 104.3,
          "unit": "mmol/L",
          "code": "mmol/L"
        },
        "referenceRange": [
          {
            "low": {
              "value": 98,
              "code": "mmol/L",
              "system": "http://unitsofmeasure.org"
            }
          },
          {
            "high": {
              "value": 108,
              "code": "mmol/L",
              "system": "http://unitsofmeasure.org"
            }
          }
        ],
        "text": {
          "status": "generated",
          "div": "<div xmlns=\"http://www.w3.org/1999/xhtml\"><table class=\"hl7__eu__lab__report\"><tr><th>Test</th><th>01-Oct-2024</th><th>Reference&#xA0;Range</th><th>Unit</th></tr><tr><td>Chloride [Moles/volume] in Blood</td><td>104.3</td><td>98 - 108</td><td></td><td>mmol/L</td></tr></table></div>"
        },
        "status": "final",
        "subject": {
          "reference": "urn:uuid:5d4dc357-a124-44c9-bc59-36a5f33bfe3b",
          "display": "Khalid Nilsson"
        },
        "effectiveDateTime": "2024-09-30T23:04:23Z"
      }
    },
    {
      "fullUrl": "urn:uuid:03d0e636-0a42-4adb-91c7-825ac4252d17",
      "resource": {
        "resourceType": "Observation",
        "id": "03d0e636-0a42-4adb-91c7-825ac4252d17",
        "meta": {
          "profile": [
            "http://hl7.eu/fhir/laboratory/StructureDefinition/Observation-resultslab-eu-lab"
          ]
        },
        "performer": [
          {
            "display": "The Central European Lab"
          }
        ],
        "category": [
          {
            "coding": [
              {
                "system": "http://terminology.hl7.org/CodeSystem/observation-category",
                "code": "laboratory"
              }
            ]
          }
        ],
        "code": {
          "coding": [
            {
              "code": "20565-8",
              "system": "http://loinc.org",
              "display": "Carbon dioxide, total [Moles/volume] in Blood"
            }
          ],
          "text": "Carbon dioxide, total [Moles/volume] in Blood"
        },
        "valueQuantity": {
          "system": "http://unitsofmeasure.org",
          "value": 20.8,
          "unit": "mmol/L",
          "code": "mmol/L"
        },
        "referenceRange": [
          {
            "low": {
              "value": 22,
              "code": "mmol/L",
              "system": "http://unitsofmeasure.org"
            }
          },
          {
            "high": {
              "value": 29,
              "code": "mmol/L",
              "system": "http://unitsofmeasure.org"
            }
          }
        ],
        "interpretation": [
          {
            "coding": [
              {
                "code": "L",
                "system": "http://terminology.hl7.org/CodeSystem/v3-ObservationInterpretation",
                "display": "Low"
              }
            ]
          }
        ],
        "text": {
          "status": "generated",
          "div": "<div xmlns=\"http://www.w3.org/1999/xhtml\"><table class=\"hl7__eu__lab__report\"><tr><th>Test</th><th>01-Oct-2024</th><th>Reference&#xA0;Range</th><th>Unit</th></tr><tr><td>Carbon dioxide, total [Moles/volume] in Blood</td><td>20.8</td><td>22 - 29</td><td>L</td><td>mmol/L</td></tr></table></div>"
        },
        "status": "final",
        "subject": {
          "reference": "urn:uuid:5d4dc357-a124-44c9-bc59-36a5f33bfe3b",
          "display": "Khalid Nilsson"
        },
        "effectiveDateTime": "2024-09-30T23:04:23Z"
      }
    },
    {
      "fullUrl": "urn:uuid:91495023-2599-4484-9431-63cd68242cd7",
      "resource": {
        "resourceType": "DeviceUseStatement",
        "id": "91495023-2599-4484-9431-63cd68242cd7",
        "meta": {
          "profile": [
            "http://hl7.eu/fhir/eps/StructureDefinition/deviceUseStatement-eu-eps"
          ]
        },
        "timingPeriod": {
          "start": "1985-10-22"
        },
        "text": {
          "status": "generated",
          "div": "<div xmlns=\"http://www.w3.org/1999/xhtml\"><table class=\"hl7__ips\"><tr><td>Home nebulizer (physical object)</td><td><span class=\"nb\">22-Oct-1985</span></td></tr></table></div>"
        },
        "status": "active",
        "device": {
          "reference": "urn:uuid:af8aa02d-1dfe-41b2-bacf-f8776fe5eecd",
          "display": "Home nebulizer (physical object)"
        },
        "subject": {
          "reference": "urn:uuid:5d4dc357-a124-44c9-bc59-36a5f33bfe3b",
          "display": "Khalid Nilsson"
        }
      }
    },
    {
      "fullUrl": "urn:uuid:af8aa02d-1dfe-41b2-bacf-f8776fe5eecd",
      "resource": {
        "resourceType": "Device",
        "id": "af8aa02d-1dfe-41b2-bacf-f8776fe5eecd",
        "meta": {
          "profile": [
            "http://hl7.eu/fhir/eps/StructureDefinition/device-eu-eps"
          ]
        },
        "udiCarrier": [
          {
            "id": "(01)12992241366142(11)851001(17)101016(10)62905665(21)205426860812819"
          }
        ],
        "status": "active",
        "patient": {
          "reference": "urn:uuid:5d4dc357-a124-44c9-bc59-36a5f33bfe3b",
          "display": "Khalid Nilsson"
        },
        "type": {
          "coding": [
            {
              "code": "170615005",
              "system": "http://snomed.info/sct",
              "display": "Home nebulizer (physical object)"
            }
          ]
        }
      }
    },
    {
      "fullUrl": "urn:uuid:3872d1cb-68ff-4f6c-9b0a-1231b382defb",
      "resource": {
        "resourceType": "DeviceUseStatement",
        "id": "3872d1cb-68ff-4f6c-9b0a-1231b382defb",
        "meta": {
          "profile": [
            "http://hl7.eu/fhir/eps/StructureDefinition/deviceUseStatement-eu-eps"
          ]
        },
        "timingPeriod": {
          "start": "1973-07-09"
        },
        "text": {
          "status": "generated",
          "div": "<div xmlns=\"http://www.w3.org/1999/xhtml\"><table class=\"hl7__ips\"><tr><td>Blood glucose meter (physical object)</td><td><span class=\"nb\">09-Jul-1973</span></td></tr></table></div>"
        },
        "status": "active",
        "device": {
          "reference": "urn:uuid:d847ca38-3f8a-4225-9858-cfbb98fd7376",
          "display": "Blood glucose meter (physical object)"
        },
        "subject": {
          "reference": "urn:uuid:5d4dc357-a124-44c9-bc59-36a5f33bfe3b",
          "display": "Khalid Nilsson"
        }
      }
    },
    {
      "fullUrl": "urn:uuid:d847ca38-3f8a-4225-9858-cfbb98fd7376",
      "resource": {
        "resourceType": "Device",
        "id": "d847ca38-3f8a-4225-9858-cfbb98fd7376",
        "meta": {
          "profile": [
            "http://hl7.eu/fhir/eps/StructureDefinition/device-eu-eps"
          ]
        },
        "udiCarrier": [
          {
            "id": "(01)40131624648302(11)730619(17)980704(10)452435623(21)4594442144383605"
          }
        ],
        "status": "active",
        "patient": {
          "reference": "urn:uuid:5d4dc357-a124-44c9-bc59-36a5f33bfe3b",
          "display": "Khalid Nilsson"
        },
        "type": {
          "coding": [
            {
              "code": "337414009",
              "system": "http://snomed.info/sct",
              "display": "Blood glucose meter (physical object)"
            }
          ]
        }
      }
    },
    {
      "fullUrl": "urn:uuid:2f41f998-22d7-4044-b802-6a2b76fb15b8",
      "resource": {
        "resourceType": "Device",
        "id": "2f41f998-22d7-4044-b802-6a2b76fb15b8",
        "deviceName": [
          {
            "name": "SYNDERAI Synthetic Generator",
            "type": "manufacturer-name"
          }
        ],
        "version": [
          {
            "value": "5.0"
          }
        ],
        "text": {
          "status": "generated",
          "div": "<div xmlns=\"http://www.w3.org/1999/xhtml\">SYNDERAI Synthetic Generator v5.0</div>"
        },
        "status": "active\"",
        "distinctIdentifier": "synderai-generator-50",
        "manufacturer": "SYNDERAI Project"
      }
    },
    {
      "fullUrl": "urn:uuid:67866864-9d7a-4324-8875-067cff31d605",
      "resource": {
        "resourceType": "Provenance",
        "id": "67866864-9d7a-4324-8875-067cff31d605",
        "target": [
          {
            "reference": "Patient/5d4dc357-a124-44c9-bc59-36a5f33bfe3b"
          },
          {
            "reference": "Bundle/fe15b42a-60e4-47d7-8840-ef7c412293ee"
          },
          {
            "reference": "Composition/9970dad8-f036-421a-b25f-efee9c4c91da"
          },
          {
            "reference": "PractitionerRole/c54be3ff-a24c-4fa4-a84f-fb6b39587620"
          },
          {
            "reference": "Organization/1723422e-2f4f-4ead-ae26-938ea328dcb8"
          },
          {
            "reference": "Practitioner/0107821c-2d07-4573-8408-46264f7406fe"
          }
        ],
        "activity": {
          "text": "Synthetic Example Data Generation"
        },
        "policy": [
          "https://synderai.net/synderai-synthetic-data-policy"
        ],
        "agent": [
          {
            "type": {
              "text": "author"
            },
            "who": {
              "reference": "Device/2f41f998-22d7-4044-b802-6a2b76fb15b8"
            }
          }
        ],
        "reason": [
          {
            "text": "Interoperability Testing and Training (non-clinical use)"
          }
        ],
        "text": {
          "status": "generated",
          "div": "<div xmlns=\"http://www.w3.org/1999/xhtml\">Provenance for SYNDERAI Synthetic Example Data Resource</div>"
        },
        "recorded": "2024-09-30T23:04:23Z"
      }
    }
  ],
  "type": "document",
  "timestamp": "2024-09-30T23:04:23Z"
}
