{
  "resourceType": "Bundle",
  "id": "6fc96815-65cf-42bc-80c2-58910a206812",
  "meta": {
    "profile": [
      "http://hl7.eu/fhir/eps/StructureDefinition/bundle-eu-eps"
    ]
  },
  "identifier": {
    "assigner": {
      "display": "HL7 Europe"
    },
    "system": "urn:oid:2.16.840.1.113883.2.51.999",
    "value": "dd1f00b4-528d-4817-92e9-230e6bef52e7"
  },
  "entry": [
    {
      "fullUrl": "urn:uuid:b4136a08-b16b-4647-a935-1ac280623305",
      "resource": {
        "resourceType": "Composition",
        "id": "b4136a08-b16b-4647-a935-1ac280623305",
        "meta": {
          "security": [
            {
              "system": "http://terminology.hl7.org/CodeSystem/v3-ActReason",
              "code": "HTEST"
            },
            {
              "system": "http://terminology.hl7.org/CodeSystem/v3-ActReason",
              "code": "TRAIN"
            }
          ],
          "tag": [
            {
              "system": "https://synderai.net/fhir/CodeSystem/tags",
              "code": "synthetic",
              "display": "SYNDERAI Synthetic data"
            }
          ],
          "profile": [
            "http://hl7.eu/fhir/eps/StructureDefinition/composition-eu-eps"
          ]
        },
        "identifier": {
          "assigner": {
            "display": "HL7 Europe"
          },
          "system": "urn:oid:2.16.840.1.113883.2.51.999",
          "value": "1c8fa9e0-863a-440d-a4d2-11727d36bfa9"
        },
        "type": {
          "coding": [
            {
              "system": "http://loinc.org",
              "code": "60591-5",
              "display": "Patient summary Document"
            }
          ],
          "text": "Patient summary Document"
        },
        "author": [
          {
            "reference": "urn:uuid:afc4ac74-2146-4c43-b9cf-3324531a4d64"
          }
        ],
        "section": [
          {
            "text": {
              "status": "generated",
              "div": "<div xmlns=\"http://www.w3.org/1999/xhtml\"><table class=\"hl7__ips\"><tr><th>Condition</th><th>Onset Date</th><th>Status</th></tr><tr><td>Acute non-ST segment elevation myocardial infarction</td><td><span class=\"nb\">25-Jul-2022</span></td><td>active</td></tr><tr><td>Proteinuria due to type 2 diabetes mellitus</td><td><span class=\"nb\">31-Jan-2007</span></td><td>active</td></tr><tr><td>Metabolic syndrome X</td><td><span class=\"nb\">08-Oct-2003</span></td><td>active</td></tr><tr><td>Microalbuminuria due to type 2 diabetes mellitus</td><td><span class=\"nb\">25-Jul-2001</span></td><td>active</td></tr><tr><td>Disorder of kidney due to diabetes mellitus</td><td><span class=\"nb\">03-Nov-1999</span></td><td>active</td></tr><tr><td>Essential hypertension</td><td><span class=\"nb\">16-Dec-1998</span></td><td>active</td></tr><tr><td>Anemia</td><td><span class=\"nb\">23-Nov-1994</span></td><td>active</td></tr><tr><td>Prediabetes</td><td><span class=\"nb\">17-Nov-1993</span></td><td>active</td></tr></table></div>"
            },
            "entry": [
              {
                "reference": "urn:uuid:b58d4307-2a01-4342-bcce-725fda3c98b4"
              },
              {
                "reference": "urn:uuid:257e8e22-6365-4057-a0ab-883cdeed32e9"
              },
              {
                "reference": "urn:uuid:eeadd200-0fc5-427a-9cf6-4821930fb9dd"
              },
              {
                "reference": "urn:uuid:03f50cf0-cded-4ff9-8355-ef6853ee8b5b"
              },
              {
                "reference": "urn:uuid:2aab2707-af23-421b-b854-1ca86c7d88c1"
              },
              {
                "reference": "urn:uuid:ab5bca49-529e-4647-9ce3-8f5bab7cf811"
              },
              {
                "reference": "urn:uuid:e649eb2d-3607-464a-9d29-c586f6fa8a63"
              },
              {
                "reference": "urn:uuid:5f1c2ba2-6740-45ba-9933-75d7a70a89ec"
              }
            ],
            "code": {
              "coding": [
                {
                  "system": "http://loinc.org",
                  "code": "11450-4",
                  "display": "Problem list - Reported"
                }
              ]
            },
            "title": "Problem list"
          },
          {
            "text": {
              "status": "generated",
              "div": "<div xmlns=\"http://www.w3.org/1999/xhtml\"><table class=\"hl7__ips\"><tr><th>Medication</th><th>Since</th><th>Form</th><th>Dosage</th><th>Reason</th></tr><tr><td>insulin isophane human 70 UNT/ML / insulin regular human 30 UNT/ML Injectable Suspension [Humulin]</td><td><span class=\"nb\">2025-05-21</span></td><td>-</td><td>10 units subcutaneously before breakfast and dinner</td><td>Prediabetes</td></tr><tr><td>Hydrochlorothiazide 25 mg oral tablet</td><td><span class=\"nb\">2025-05-21</span></td><td>-</td><td>1 tablet (25 mg) by mouth once daily</td><td>Essential hypertension (disorder)</td></tr><tr><td>Acetaminophen 300 mg and hydrocodone bitartrate 5 mg oral tablet</td><td><span class=\"nb\">2025-05-21</span></td><td>-</td><td>1 tablet (300 mg/5 mg) by mouth every 4 to 6 hours as needed for pain</td><td>-</td></tr><tr><td>24 HR tacrolimus 1 MG Extended Release Oral Tablet</td><td><span class=\"nb\">2025-05-21</span></td><td>-</td><td>1 tablet (1 mg) by mouth once daily</td><td>History of renal transplant (situation)</td></tr><tr><td>Aspirin 81 mg gastro-resistant oral tablet</td><td><span class=\"nb\">2022-07-25</span></td><td>-</td><td>1 tablet (81 mg) by mouth once daily</td><td>-</td></tr><tr><td>Atorvastatin (as atorvastatin calcium) 20 mg oral tablet</td><td><span class=\"nb\">2022-07-25</span></td><td>-</td><td>1 tablet (20 mg) by mouth once daily</td><td>-</td></tr><tr><td>Prasugrel (as prasugrel hydrochloride) 10 mg oral tablet</td><td><span class=\"nb\">2022-07-25</span></td><td>-</td><td>1 tablet (10 mg) once daily</td><td>-</td></tr><tr><td>Losartan potassium 50 mg oral tablet</td><td><span class=\"nb\">2022-07-25</span></td><td>-</td><td>1 tablet (50 mg) by mouth once daily</td><td>-</td></tr></table></div>"
            },
            "entry": [
              {
                "reference": "urn:uuid:7b86c2b6-9540-4e99-b351-366925058513"
              },
              {
                "reference": "urn:uuid:6c498f47-8346-4295-81d6-dbd6c9e549a7"
              },
              {
                "reference": "urn:uuid:71b648c1-b439-4fef-854e-c47e9d090750"
              },
              {
                "reference": "urn:uuid:b09f7eb3-21d9-4bf4-9c48-3bc3da74f29c"
              },
              {
                "reference": "urn:uuid:6cc2011f-d92e-4674-80f5-1797a40090d6"
              },
              {
                "reference": "urn:uuid:8d62b1f9-d712-4a5d-8c53-232259fa5dea"
              },
              {
                "reference": "urn:uuid:59c99072-95e6-40fd-9c1b-f2eb11d70731"
              },
              {
                "reference": "urn:uuid:ead8473f-224e-4fe1-93e2-16609ef95482"
              }
            ],
            "code": {
              "coding": [
                {
                  "system": "http://loinc.org",
                  "code": "10160-0",
                  "display": "History of Medication use Narrative"
                }
              ]
            },
            "title": "Medication list"
          },
          {
            "text": {
              "status": "generated",
              "div": "<div xmlns=\"http://www.w3.org/1999/xhtml\"><table class=\"hl7__ips\"><tr><th>Vaccine</th><th>Date</th></tr><tr><td>Influenza virus antigen only vaccine product</td><td><span class=\"nb\">21-May-2025</span></td></tr><tr><td>Clostridium tetani toxoid antigen adsorbed only vaccine product</td><td><span class=\"nb\">08-Jan-2025</span></td></tr><tr><td>SARS-CoV-2 mRNA vaccine</td><td><span class=\"nb\">03-Mar-2021</span></td></tr></table></div>"
            },
            "entry": [
              {
                "reference": "urn:uuid:22784c20-910e-4713-b17a-c6f531cd5936"
              },
              {
                "reference": "urn:uuid:bef80082-ad62-41ad-bbe2-d049e05bad0f"
              },
              {
                "reference": "urn:uuid:2b0f363c-776f-4eea-bd4a-b7da39eddd51"
              }
            ],
            "code": {
              "coding": [
                {
                  "system": "http://loinc.org",
                  "code": "11369-6",
                  "display": "History of Immunization note"
                }
              ]
            },
            "title": "Immunizations list"
          },
          {
            "text": {
              "status": "generated",
              "div": "<div xmlns=\"http://www.w3.org/1999/xhtml\"><table class=\"hl7__ips\"><tr><th>Procedure</th><th>Date</th><th>Reason</th></tr><tr><td>Depression screening</td><td><span class=\"nb\">22-Jan-2025</span></td><td>-</td></tr><tr><td>Assessment of health and social care needs</td><td><span class=\"nb\">22-Jan-2025</span></td><td>-</td></tr><tr><td>Assessment using Morse Fall Scale</td><td><span class=\"nb\">22-Jan-2025</span></td><td>-</td></tr><tr><td>Depression screening using Patient Health Questionnaire Two-Item score (procedure)</td><td><span class=\"nb\">22-Jan-2025</span></td><td>-</td></tr><tr><td>Medication reconciliation</td><td><span class=\"nb\">15-Jan-2025</span></td><td>-</td></tr><tr><td>Screening for drug abuse</td><td><span class=\"nb\">08-Jan-2025</span></td><td>-</td></tr><tr><td>Screening for domestic abuse</td><td><span class=\"nb\">08-Jan-2025</span></td><td>-</td></tr><tr><td>Assessment of substance use</td><td><span class=\"nb\">08-Jan-2025</span></td><td>-</td></tr><tr><td>Plain X-ray of clavicle</td><td><span class=\"nb\">15-Feb-2024</span></td><td>-</td></tr><tr><td>Admission to orthopedic department</td><td><span class=\"nb\">15-Feb-2024</span></td><td>Fracture of clavicle</td></tr><tr><td>Bone density scan</td><td><span class=\"nb\">15-Feb-2024</span></td><td>Fracture of clavicle</td></tr><tr><td>Laboratory test</td><td><span class=\"nb\">25-Jul-2022</span></td><td>-</td></tr><tr><td>Electrocardiographic procedure</td><td><span class=\"nb\">25-Jul-2022</span></td><td>-</td></tr><tr><td>Angiography of coronary artery</td><td><span class=\"nb\">25-Jul-2022</span></td><td>-</td></tr><tr><td>Cardiovascular stress testing</td><td><span class=\"nb\">25-Jul-2022</span></td><td>Acute non-ST segment elevation myocardial infarction (disorder)</td></tr><tr><td>Diagnostic assessment</td><td><span class=\"nb\">25-Jul-2022</span></td><td>-</td></tr><tr><td>Risk assessment</td><td><span class=\"nb\">25-Jul-2022</span></td><td>Acute non-ST segment elevation myocardial infarction (disorder)</td></tr><tr><td>Oxygen administration by mask</td><td><span class=\"nb\">25-Jul-2022</span></td><td>-</td></tr><tr><td>Plain X-ray of chest</td><td><span class=\"nb\">25-Jul-2022</span></td><td>-</td></tr><tr><td>Percutaneous coronary intervention</td><td><span class=\"nb\">25-Jul-2022</span></td><td>Acute non-ST segment elevation myocardial infarction (disorder)</td></tr><tr><td>Transthoracic echocardiography</td><td><span class=\"nb\">25-Jul-2022</span></td><td>-</td></tr><tr><td>Assessment of cardiac status using monitoring device</td><td><span class=\"nb\">25-Jul-2022</span></td><td>-</td></tr><tr><td>Radiography of humerus</td><td><span class=\"nb\">28-Feb-2019</span></td><td>-</td></tr><tr><td>Bone immobilization</td><td><span class=\"nb\">28-Feb-2019</span></td><td>Fracture of forearm</td></tr><tr><td>Patient discharge</td><td><span class=\"nb\">04-Dec-2018</span></td><td>-</td></tr><tr><td>Hospice care</td><td><span class=\"nb\">03-Dec-2018</span></td><td>-</td></tr><tr><td>Notifications</td><td><span class=\"nb\">21-Nov-2018</span></td><td>-</td></tr><tr><td>Certification procedure</td><td><span class=\"nb\">21-Nov-2018</span></td><td>-</td></tr><tr><td>Initial patient assessment</td><td><span class=\"nb\">21-Nov-2018</span></td><td>-</td></tr><tr><td>Development of individualized plan of care</td><td><span class=\"nb\">21-Nov-2018</span></td><td>-</td></tr><tr><td>Transplantation of kidney regime</td><td><span class=\"nb\">22-Jul-2018</span></td><td>History of renal transplant (situation)</td></tr><tr><td>Transplant of kidney</td><td><span class=\"nb\">16-Jul-2018</span></td><td>Awaiting transplantation of kidney (situation)</td></tr><tr><td>Pretransplant evaluation of kidney recipient</td><td><span class=\"nb\">16-Jul-2018</span></td><td>Awaiting transplantation of kidney (situation)</td></tr><tr><td>Assessment using AUDIT-C (Alcohol Use Disorders Identification Test - Consumption)</td><td><span class=\"nb\">03-Jan-2018</span></td><td>-</td></tr><tr><td>Assessment of anxiety</td><td><span class=\"nb\">08-Feb-2017</span></td><td>-</td></tr></table></div>"
            },
            "entry": [
              {
                "reference": "urn:uuid:b7ecd856-b5ec-4490-855f-8b8e8701cdef"
              },
              {
                "reference": "urn:uuid:2d781098-418f-4a96-8ab0-4e6829d2a116"
              },
              {
                "reference": "urn:uuid:82bb6fe0-c38f-4459-87f0-2a5606bb5a6e"
              },
              {
                "reference": "urn:uuid:a48a5560-d06f-48d2-ae60-053dc6792858"
              },
              {
                "reference": "urn:uuid:3c4f790d-1bf1-4e9d-899e-f5f665e9ad26"
              },
              {
                "reference": "urn:uuid:6b36e6bf-c091-4b35-82fd-a52fdd0e257f"
              },
              {
                "reference": "urn:uuid:16d2dc00-8302-4b43-8941-28848280f8fb"
              },
              {
                "reference": "urn:uuid:1b8a002f-8bc6-4454-beda-c7f203261b44"
              },
              {
                "reference": "urn:uuid:dcfada51-d793-46ab-91bd-19c918752b9d"
              },
              {
                "reference": "urn:uuid:ec370845-d470-46c2-8527-a8a769f6027e"
              },
              {
                "reference": "urn:uuid:bd7f31cd-edb6-443b-a144-0b20e289fcc3"
              },
              {
                "reference": "urn:uuid:c112f171-baf9-43cd-8b7c-7f5efc14b5ad"
              },
              {
                "reference": "urn:uuid:7bcc3816-364c-4a7b-8ee0-567b59ca4920"
              },
              {
                "reference": "urn:uuid:33a9d373-c31e-4cb3-8dc9-e9783e6a91ee"
              },
              {
                "reference": "urn:uuid:3a55bb18-bb9d-4ac5-9037-05a8ee4281d0"
              },
              {
                "reference": "urn:uuid:f57e8aa1-054f-4def-8021-2978cb5e9d9a"
              },
              {
                "reference": "urn:uuid:59c8c4e8-3724-4142-959a-d868aabae43f"
              },
              {
                "reference": "urn:uuid:104cd48e-9417-4472-9f96-dc7bc5ea9a15"
              },
              {
                "reference": "urn:uuid:d4d51946-477d-4998-a218-ffc3f6c5f307"
              },
              {
                "reference": "urn:uuid:f1efb4b7-5bf7-4190-85e6-b9022eb3b52d"
              },
              {
                "reference": "urn:uuid:3fc9c736-f82d-498c-ac0e-348dae67f121"
              },
              {
                "reference": "urn:uuid:81081960-3e81-4d1c-8063-cd5f403f7b73"
              },
              {
                "reference": "urn:uuid:d865dd09-1577-4fd2-bd78-27d4fe09c39b"
              },
              {
                "reference": "urn:uuid:7c8e692d-4630-43d6-a350-49cc5ad86779"
              },
              {
                "reference": "urn:uuid:660cb38e-2fed-41f4-81bd-8b40dbc1c9ea"
              },
              {
                "reference": "urn:uuid:a2ef9a78-e18b-4494-a94b-d8517c5522d6"
              },
              {
                "reference": "urn:uuid:098a2649-9db4-40ed-8ef5-d0f8b2beae1b"
              },
              {
                "reference": "urn:uuid:f24ae23f-fb8f-43e1-82b3-12a8f9e69e58"
              },
              {
                "reference": "urn:uuid:ddd52c97-5002-4c8f-b2cd-99e424860614"
              },
              {
                "reference": "urn:uuid:31fe7620-f909-4311-b198-a4f6eedee544"
              },
              {
                "reference": "urn:uuid:648264c1-9a31-4e77-bdeb-e9847b7dc8ad"
              },
              {
                "reference": "urn:uuid:71b13f42-8642-4a85-880d-a328dc0b7b75"
              },
              {
                "reference": "urn:uuid:a6441d96-a018-4e61-9fb9-2fb9e3d95102"
              },
              {
                "reference": "urn:uuid:23cca861-0c05-46aa-b450-f85108f73237"
              },
              {
                "reference": "urn:uuid:f6421605-6fbd-43ee-81ab-e75a111b58a2"
              }
            ],
            "code": {
              "coding": [
                {
                  "system": "http://loinc.org",
                  "code": "47519-4",
                  "display": "History of Procedures Document"
                }
              ]
            },
            "title": "Procedure History list"
          },
          {
            "text": {
              "status": "generated",
              "div": "<div xmlns=\"http://www.w3.org/1999/xhtml\"><table class=\"hl7__ips\"><tr><th>Allergy/Intolerance</th><th>Onset Date</th><th>Status</th><th>Type</th><th>Reaction</th></tr><tr><td></td><td>?</td><td>active</td><td>?</td><td></td></tr></table></div>"
            },
            "entry": [
              {
                "reference": "urn:uuid:d1145436-c6d2-45b8-8085-39f70599d958"
              }
            ],
            "code": {
              "coding": [
                {
                  "system": "http://loinc.org",
                  "code": "48765-2",
                  "display": "Allergies and adverse reactions Document"
                }
              ]
            },
            "title": "Allergies and Intolerances"
          },
          {
            "text": {
              "status": "generated",
              "div": "<div xmlns=\"http://www.w3.org/1999/xhtml\"><table class=\"hl7__ips\"><tr><th>Active Planned Care / Goals</th><th>Start Date</th><th>Reason</th></tr><tr><td>Discharge care plan</td><td><span class=\"nb\">25-Jul-2022</span></td><td>-</td></tr><tr><td>Care plan</td><td><span class=\"nb\">16-Jul-2018</span></td><td>-</td></tr><tr><td>Dialysis care plan</td><td><span class=\"nb\">21-Apr-2012</span></td><td>-</td></tr><tr><td>Lifestyle education regarding hypertension</td><td><span class=\"nb\">16-Dec-1998</span></td><td>Essential hypertension (disorder)</td></tr><tr><td><ul><li>Maintain blood pressure below 130/80 mmHg to reduce cardiovascular and renal risk.</li><li>Adopt dietary changes, increase physical activity, and reduce sodium intake to support blood pressure control.</li></ul></td><td></td><td></td></tr><tr><td>Diabetes self management plan</td><td><span class=\"nb\">17-Nov-1993</span></td><td>Prediabetes</td></tr><tr><td><ul><li>Patient will implement and maintain a diabetes self-management plan to delay or prevent progression to type 2 diabetes.</li><li>Patient will achieve and maintain a weight loss of at least 5% of baseline body weight to improve insulin sensitivity.</li><li>Patient will maintain blood pressure below 130/80 mmHg to reduce cardiovascular risk.</li></ul></td><td></td><td></td></tr><tr><th>Immunization Recommendation</th><th>Due Date</th><th>Reason</th></tr><tr><td>Vaccine product containing only Influenza virus antigen (medicinal product)</td><td><span class=\"nb\">01-Oct-2025</span></td><td>Annual seasonal influenza vaccination</td></tr></table></div>"
            },
            "entry": [
              {
                "reference": "urn:uuid:547f62cd-f2ff-4562-9f58-e4e11cd56f2b"
              },
              {
                "reference": "urn:uuid:f1d73439-801b-46fe-9a08-d194dd520f14"
              },
              {
                "reference": "urn:uuid:954a4ebe-5272-474c-bd83-3e6bcb2706e3"
              },
              {
                "reference": "urn:uuid:5a6ccf06-6e64-42b8-b737-769c8f785504"
              },
              {
                "reference": "urn:uuid:09bc8237-2e6c-444a-b91d-76f7e152a80d"
              },
              {
                "reference": "urn:uuid:49333837-3027-4baa-8dd6-016680fa900a"
              }
            ],
            "code": {
              "coding": [
                {
                  "system": "http://loinc.org",
                  "code": "18776-5",
                  "display": "Plan of care note"
                }
              ]
            },
            "title": "Care Plan"
          },
          {
            "text": {
              "status": "generated",
              "div": "<div xmlns=\"http://www.w3.org/1999/xhtml\"><table class=\"hl7__ips\"><tr><th>Vital Signs</th><th>2025-05-21</th><th>2025-01-22</th></tr><tr><td>Body Height</td><td>172 cm</td><td>172 cm</td></tr><tr><td>Pain severity - 0-10 verbal numeric rating [Score] - Reported</td><td>0 {score}</td><td>1 {score}</td></tr><tr><td>Body Weight</td><td>89.1 kg</td><td>89.1 kg</td></tr><tr><td>Body mass index (BMI) [Ratio]</td><td>30.1 kg/m2</td><td>30.1 kg/m2</td></tr><tr><td>Diastolic Blood Pressure</td><td>95 mm[Hg]</td><td>86 mm[Hg]</td></tr><tr><td>Systolic Blood Pressure</td><td>134 mm[Hg]</td><td>128 mm[Hg]</td></tr><tr><td>Heart rate</td><td>80 /min</td><td>67 /min</td></tr><tr><td>Respiratory rate</td><td>13 /min</td><td>13 /min</td></tr></table></div>"
            },
            "entry": [
              {
                "reference": "urn:uuid:431c1fb1-2241-4172-a62f-074a36ebee90"
              },
              {
                "reference": "urn:uuid:9cd2c447-5ab6-482a-81b3-eaf33ff8b863"
              },
              {
                "reference": "urn:uuid:f398ee00-c4cf-443e-8a18-c5f6105c2d0b"
              },
              {
                "reference": "urn:uuid:fd51f51b-c2ca-4e1b-b284-85747bcf3aff"
              },
              {
                "reference": "urn:uuid:dcd59adb-0e6e-49c3-8255-8a75ce883bc3"
              },
              {
                "reference": "urn:uuid:017122ca-4086-48dd-a0cc-487adbcca5b1"
              },
              {
                "reference": "urn:uuid:c7a08b70-1731-4a1b-9c95-af617a975eb6"
              },
              {
                "reference": "urn:uuid:d724a90f-d0e0-4a08-a487-e842774f82fc"
              },
              {
                "reference": "urn:uuid:6cde7883-5853-4a28-942b-afb296d97c17"
              },
              {
                "reference": "urn:uuid:5f3dd673-e5cc-4d74-a3ac-86321c99f3d1"
              },
              {
                "reference": "urn:uuid:f4a31d04-65a9-4de6-81b9-3aad1a2d6099"
              },
              {
                "reference": "urn:uuid:5f76a5e1-4d98-418a-a851-c1201fff57c7"
              },
              {
                "reference": "urn:uuid:4a7aaf02-5692-4d7f-bb0c-3795f359b2fa"
              },
              {
                "reference": "urn:uuid:10f3a2d8-2922-4f65-ab90-14fcb30e7672"
              },
              {
                "reference": "urn:uuid:52f54ab9-530b-41df-8f31-02542764a219"
              },
              {
                "reference": "urn:uuid:62ea35ae-331c-44c7-9d30-6e3145718c2f"
              }
            ],
            "code": {
              "coding": [
                {
                  "system": "http://loinc.org",
                  "code": "8716-3",
                  "display": "Vital signs note"
                }
              ]
            },
            "title": "Vital Signs"
          },
          {
            "text": {
              "status": "generated",
              "div": "<div xmlns=\"http://www.w3.org/1999/xhtml\"><table class=\"hl7__ips\"><table class=\"hl7__ips\"><thead><tr><th>Recent Lab Observations</th><th>21-MAY-2025</th><th>Reference&#xA0;Range</th><th>Unit</th></tr></thead><tbody><tr><td>Hemoglobin A1c/Hemoglobin.total in Blood</td><td><strong>3.3 L</strong></td><td>4.5 - 6.4</td><td>%</td></tr><tr><td>Glucose [Mass/volume] in Blood</td><td>73.3</td><td>70 - 140</td><td>mg/dL</td></tr><tr><td>Urea nitrogen [Mass/volume] in Blood</td><td>16.6</td><td>7 - 30</td><td>mg/dL</td></tr><tr><td>Creatinine [Mass/volume] in Blood</td><td>0.9</td><td>0.5 - 1.3</td><td>mg/dL</td></tr><tr><td>Calcium [Mass/volume] in Blood</td><td>8.6</td><td>8.6 - 10.2</td><td>mg/dL</td></tr><tr><td>Sodium [Moles/volume] in Blood</td><td>141.0</td><td>135 - 145</td><td>mmol/L</td></tr><tr><td>Potassium [Moles/volume] in Blood</td><td>3.8</td><td>3.5 - 5.1</td><td>mmol/L</td></tr><tr><td>Chloride [Moles/volume] in Blood</td><td>102.6</td><td>98 - 114</td><td>mmol/L</td></tr><tr><td>Carbon dioxide, total [Moles/volume] in Blood</td><td>26.9</td><td>22 - 32</td><td>mmol/L</td></tr></tbody></table></table></div>"
            },
            "entry": [
              {
                "reference": "urn:uuid:edc68494-cc7b-414f-b20d-77f8e8104c85"
              },
              {
                "reference": "urn:uuid:3f465878-dca5-416e-98ec-36f0bd954e64"
              },
              {
                "reference": "urn:uuid:8b3efeda-8915-4d5c-a28a-a4580977d65d"
              },
              {
                "reference": "urn:uuid:3f51428a-9e16-4988-abc3-f36894dcebfd"
              },
              {
                "reference": "urn:uuid:bf3d8eb8-2f96-4771-9672-67f03a02f0fb"
              },
              {
                "reference": "urn:uuid:28e4966a-63b4-4a6a-bd72-730a8ca2b267"
              },
              {
                "reference": "urn:uuid:a9ab58b0-7461-4fcb-8eb0-7dd41f9d936d"
              },
              {
                "reference": "urn:uuid:4585beef-fde7-4953-bd84-30f19526372e"
              },
              {
                "reference": "urn:uuid:b2120f3c-bc8c-4059-9913-8ca7e56c17cc"
              }
            ],
            "code": {
              "coding": [
                {
                  "system": "http://loinc.org",
                  "code": "30954-2",
                  "display": "Relevant diagnostic tests/laboratory data note"
                }
              ]
            },
            "title": "Relevant diagnostic tests/laboratory data"
          },
          {
            "text": {
              "status": "generated",
              "div": "<div xmlns=\"http://www.w3.org/1999/xhtml\"><table class=\"hl7__ips\"><tr><th>Device</th><th>Date (since)</th></tr><tr><td>Blood glucose meter (physical object)</td><td><span class=\"nb\">17-Nov-1993</span></td></tr></table></div>"
            },
            "entry": [
              {
                "reference": "urn:uuid:650704b8-4a2e-41f9-9218-c606a8a0e92d"
              }
            ],
            "code": {
              "coding": [
                {
                  "system": "http://loinc.org",
                  "code": "46264-8",
                  "display": "History of medical device use"
                }
              ]
            },
            "title": "Device Use"
          }
        ],
        "title": "European Patient Summary",
        "status": "final",
        "subject": {
          "reference": "urn:uuid:457f460b-adcb-405a-b68d-42e4bb28c426",
          "display": "Maria Nohlmans"
        },
        "custodian": {
          "reference": "urn:uuid:fba42d9a-0db4-4f9a-8f6a-9b0ffbe0aea3"
        },
        "date": "2025-05-21",
        "confidentiality": "N"
      }
    },
    {
      "fullUrl": "urn:uuid:457f460b-adcb-405a-b68d-42e4bb28c426",
      "resource": {
        "resourceType": "Patient",
        "id": "457f460b-adcb-405a-b68d-42e4bb28c426",
        "meta": {
          "security": [
            {
              "system": "http://terminology.hl7.org/CodeSystem/v3-ActReason",
              "code": "HTEST"
            },
            {
              "system": "http://terminology.hl7.org/CodeSystem/v3-ActReason",
              "code": "TRAIN"
            }
          ],
          "tag": [
            {
              "system": "https://synderai.net/fhir/CodeSystem/tags",
              "code": "synthetic",
              "display": "SYNDERAI Synthetic data"
            }
          ],
          "profile": [
            "http://hl7.eu/fhir/eps/StructureDefinition/patient-eu-eps"
          ]
        },
        "identifier": [
          {
            "type": {
              "coding": [
                {
                  "code": "PT",
                  "system": "http://terminology.hl7.org/CodeSystem/v2-0203"
                }
              ]
            },
            "system": "http://ec.europa.eu/identifier/eci",
            "value": "6886-506417-1"
          },
          {
            "type": {
              "coding": [
                {
                  "code": "MR",
                  "system": "http://terminology.hl7.org/CodeSystem/v2-0203"
                }
              ]
            },
            "system": "http://local.setting.eu/identifier",
            "value": "2cb21ed6-b617-b1f3-2290-589a710de5ee"
          }
        ],
        "name": [
          {
            "family": "Nohlmans"
          },
          {
            "given": [
              "Maria"
            ]
          },
          {
            "text": "Maria Nohlmans"
          }
        ],
        "address": [
          {
            "line": [
              "Alfons-Wulff-Weg 1"
            ],
            "use": "home",
            "type": "physical",
            "postalCode": "25813",
            "city": "Husum",
            "country": "Germany"
          }
        ],
        "telecom": [
          {
            "system": "phone",
            "value": "+49(0)1911 105501"
          }
        ],
        "extension": [
          {
            "url": "http://hl7.org/fhir/StructureDefinition/patient-nationality",
            "valueCodeableConcept": {
              "coding": [
                {
                  "code": "DE",
                  "system": "http://hl7.org/fhir/ValueSet/country"
                }
              ]
            }
          }
        ],
        "text": {
          "status": "generated",
          "div": "<div xmlns=\"http://www.w3.org/1999/xhtml\"><table class=\"hl7__ips\"><tr><td>Maria Nohlmans</td><td>female</td><td>11-Jun-1947</td></tr></table></div>"
        },
        "gender": "female",
        "birthDate": "1947-06-11"
      }
    },
    {
      "fullUrl": "urn:uuid:afc4ac74-2146-4c43-b9cf-3324531a4d64",
      "resource": {
        "resourceType": "PractitionerRole",
        "id": "afc4ac74-2146-4c43-b9cf-3324531a4d64",
        "meta": {
          "profile": [
            "http://hl7.eu/fhir/base/StructureDefinition/practitionerRole-eu"
          ]
        },
        "text": {
          "status": "generated",
          "div": "<div xmlns=\"http://www.w3.org/1999/xhtml\"><table class=\"hl7__ips\">Provider Role Id afc4ac74-2146-4c43-b9cf-3324531a4d64</table></div>"
        },
        "practitioner": {
          "reference": "urn:uuid:78b485b8-347f-4b5a-aa15-4a364afdbd9b"
        },
        "organization": {
          "reference": "urn:uuid:fba42d9a-0db4-4f9a-8f6a-9b0ffbe0aea3"
        }
      }
    },
    {
      "fullUrl": "urn:uuid:78b485b8-347f-4b5a-aa15-4a364afdbd9b",
      "resource": {
        "resourceType": "Practitioner",
        "id": "78b485b8-347f-4b5a-aa15-4a364afdbd9b",
        "meta": {
          "profile": [
            "http://hl7.eu/fhir/base/StructureDefinition/practitioner-eu"
          ]
        },
        "name": [
          {
            "prefix": [
              "Dr."
            ],
            "given": [
              "Hel"
            ],
            "family": "Ping"
          }
        ],
        "text": {
          "status": "generated",
          "div": "<div xmlns=\"http://www.w3.org/1999/xhtml\"><table class=\"hl7__ips\">Dr. Hel Ping</table></div>"
        }
      }
    },
    {
      "fullUrl": "urn:uuid:fba42d9a-0db4-4f9a-8f6a-9b0ffbe0aea3",
      "resource": {
        "resourceType": "Organization",
        "id": "fba42d9a-0db4-4f9a-8f6a-9b0ffbe0aea3",
        "meta": {
          "profile": [
            "http://hl7.eu/fhir/base/StructureDefinition/organization-eu"
          ]
        },
        "identifier": [
          {
            "assigner": {
              "display": "HL7 Europe"
            },
            "system": "urn:oid:2.16.840.1.113883.2.51.999",
            "value": "0fad8217-a1e3-4adf-bf27-1d1d0592eac7"
          }
        ],
        "address": [
          {
            "line": [
              "Brinckmannstraße 35"
            ],
            "city": "Husum",
            "postalCode": "25813",
            "country": "Germany"
          }
        ],
        "text": {
          "status": "generated",
          "div": "<div xmlns=\"http://www.w3.org/1999/xhtml\"><table class=\"hl7__ips\">Dr. Wolfram Hussels Kieferorthopäde</table></div>"
        },
        "name": "Dr. Wolfram Hussels Kieferorthopäde"
      }
    },
    {
      "fullUrl": "urn:uuid:b58d4307-2a01-4342-bcce-725fda3c98b4",
      "resource": {
        "resourceType": "Condition",
        "id": "b58d4307-2a01-4342-bcce-725fda3c98b4",
        "meta": {
          "profile": [
            "http://hl7.org/fhir/uv/ips/StructureDefinition/Condition-uv-ips"
          ]
        },
        "category": [
          {
            "coding": [
              {
                "code": "problem-list-item",
                "system": "http://terminology.hl7.org/CodeSystem/condition-category",
                "display": "Problem List Item"
              }
            ]
          }
        ],
        "code": {
          "coding": [
            {
              "code": "401314000",
              "system": "http://snomed.info/sct",
              "display": "Acute non-ST segment elevation myocardial infarction (disorder)"
            }
          ],
          "text": "Acute non-ST segment elevation myocardial infarction"
        },
        "text": {
          "status": "generated",
          "div": "<div xmlns=\"http://www.w3.org/1999/xhtml\"><table class=\"hl7__ips\"><tr><td>Acute non-ST segment elevation myocardial infarction</td><td><span class=\"nb\">25-Jul-2022</span></td><td>active</td></tr></table></div>"
        },
        "onsetDateTime": "2022-07-25",
        "subject": {
          "reference": "urn:uuid:",
          "display": "Maria Nohlmans"
        },
        "asserter": {
          "reference": "urn:uuid:",
          "display": "Dr. Wolfram Hussels Kieferorthopäde"
        }
      }
    },
    {
      "fullUrl": "urn:uuid:257e8e22-6365-4057-a0ab-883cdeed32e9",
      "resource": {
        "resourceType": "Condition",
        "id": "257e8e22-6365-4057-a0ab-883cdeed32e9",
        "meta": {
          "profile": [
            "http://hl7.org/fhir/uv/ips/StructureDefinition/Condition-uv-ips"
          ]
        },
        "category": [
          {
            "coding": [
              {
                "code": "problem-list-item",
                "system": "http://terminology.hl7.org/CodeSystem/condition-category",
                "display": "Problem List Item"
              }
            ]
          }
        ],
        "code": {
          "coding": [
            {
              "code": "157141000119108",
              "system": "http://snomed.info/sct",
              "display": "Proteinuria due to type 2 diabetes mellitus (disorder)"
            }
          ],
          "text": "Proteinuria due to type 2 diabetes mellitus"
        },
        "text": {
          "status": "generated",
          "div": "<div xmlns=\"http://www.w3.org/1999/xhtml\"><table class=\"hl7__ips\"><tr><td>Proteinuria due to type 2 diabetes mellitus</td><td><span class=\"nb\">31-Jan-2007</span></td><td>active</td></tr></table></div>"
        },
        "onsetDateTime": "2007-01-31",
        "subject": {
          "reference": "urn:uuid:",
          "display": "Maria Nohlmans"
        },
        "asserter": {
          "reference": "urn:uuid:",
          "display": "Dr. Wolfram Hussels Kieferorthopäde"
        }
      }
    },
    {
      "fullUrl": "urn:uuid:eeadd200-0fc5-427a-9cf6-4821930fb9dd",
      "resource": {
        "resourceType": "Condition",
        "id": "eeadd200-0fc5-427a-9cf6-4821930fb9dd",
        "meta": {
          "profile": [
            "http://hl7.org/fhir/uv/ips/StructureDefinition/Condition-uv-ips"
          ]
        },
        "category": [
          {
            "coding": [
              {
                "code": "problem-list-item",
                "system": "http://terminology.hl7.org/CodeSystem/condition-category",
                "display": "Problem List Item"
              }
            ]
          }
        ],
        "code": {
          "coding": [
            {
              "code": "237602007",
              "system": "http://snomed.info/sct",
              "display": "Metabolic syndrome X (disorder)"
            }
          ],
          "text": "Metabolic syndrome X"
        },
        "text": {
          "status": "generated",
          "div": "<div xmlns=\"http://www.w3.org/1999/xhtml\"><table class=\"hl7__ips\"><tr><td>Metabolic syndrome X</td><td><span class=\"nb\">08-Oct-2003</span></td><td>active</td></tr></table></div>"
        },
        "onsetDateTime": "2003-10-08",
        "subject": {
          "reference": "urn:uuid:",
          "display": "Maria Nohlmans"
        },
        "asserter": {
          "reference": "urn:uuid:",
          "display": "Dr. Wolfram Hussels Kieferorthopäde"
        }
      }
    },
    {
      "fullUrl": "urn:uuid:03f50cf0-cded-4ff9-8355-ef6853ee8b5b",
      "resource": {
        "resourceType": "Condition",
        "id": "03f50cf0-cded-4ff9-8355-ef6853ee8b5b",
        "meta": {
          "profile": [
            "http://hl7.org/fhir/uv/ips/StructureDefinition/Condition-uv-ips"
          ]
        },
        "category": [
          {
            "coding": [
              {
                "code": "problem-list-item",
                "system": "http://terminology.hl7.org/CodeSystem/condition-category",
                "display": "Problem List Item"
              }
            ]
          }
        ],
        "code": {
          "coding": [
            {
              "code": "90781000119102",
              "system": "http://snomed.info/sct",
              "display": "Microalbuminuria due to type 2 diabetes mellitus (disorder)"
            }
          ],
          "text": "Microalbuminuria due to type 2 diabetes mellitus"
        },
        "text": {
          "status": "generated",
          "div": "<div xmlns=\"http://www.w3.org/1999/xhtml\"><table class=\"hl7__ips\"><tr><td>Microalbuminuria due to type 2 diabetes mellitus</td><td><span class=\"nb\">25-Jul-2001</span></td><td>active</td></tr></table></div>"
        },
        "onsetDateTime": "2001-07-25",
        "subject": {
          "reference": "urn:uuid:",
          "display": "Maria Nohlmans"
        },
        "asserter": {
          "reference": "urn:uuid:",
          "display": "Dr. Wolfram Hussels Kieferorthopäde"
        }
      }
    },
    {
      "fullUrl": "urn:uuid:2aab2707-af23-421b-b854-1ca86c7d88c1",
      "resource": {
        "resourceType": "Condition",
        "id": "2aab2707-af23-421b-b854-1ca86c7d88c1",
        "meta": {
          "profile": [
            "http://hl7.org/fhir/uv/ips/StructureDefinition/Condition-uv-ips"
          ]
        },
        "category": [
          {
            "coding": [
              {
                "code": "problem-list-item",
                "system": "http://terminology.hl7.org/CodeSystem/condition-category",
                "display": "Problem List Item"
              }
            ]
          }
        ],
        "code": {
          "coding": [
            {
              "code": "127013003",
              "system": "http://snomed.info/sct",
              "display": "Disorder of kidney due to diabetes mellitus (disorder)"
            }
          ],
          "text": "Disorder of kidney due to diabetes mellitus"
        },
        "text": {
          "status": "generated",
          "div": "<div xmlns=\"http://www.w3.org/1999/xhtml\"><table class=\"hl7__ips\"><tr><td>Disorder of kidney due to diabetes mellitus</td><td><span class=\"nb\">03-Nov-1999</span></td><td>active</td></tr></table></div>"
        },
        "onsetDateTime": "1999-11-03",
        "subject": {
          "reference": "urn:uuid:",
          "display": "Maria Nohlmans"
        },
        "asserter": {
          "reference": "urn:uuid:",
          "display": "Dr. Wolfram Hussels Kieferorthopäde"
        }
      }
    },
    {
      "fullUrl": "urn:uuid:ab5bca49-529e-4647-9ce3-8f5bab7cf811",
      "resource": {
        "resourceType": "Condition",
        "id": "ab5bca49-529e-4647-9ce3-8f5bab7cf811",
        "meta": {
          "profile": [
            "http://hl7.org/fhir/uv/ips/StructureDefinition/Condition-uv-ips"
          ]
        },
        "category": [
          {
            "coding": [
              {
                "code": "problem-list-item",
                "system": "http://terminology.hl7.org/CodeSystem/condition-category",
                "display": "Problem List Item"
              }
            ]
          }
        ],
        "code": {
          "coding": [
            {
              "code": "59621000",
              "system": "http://snomed.info/sct",
              "display": "Essential hypertension (disorder)"
            }
          ],
          "text": "Essential hypertension"
        },
        "text": {
          "status": "generated",
          "div": "<div xmlns=\"http://www.w3.org/1999/xhtml\"><table class=\"hl7__ips\"><tr><td>Essential hypertension</td><td><span class=\"nb\">16-Dec-1998</span></td><td>active</td></tr></table></div>"
        },
        "onsetDateTime": "1998-12-16",
        "subject": {
          "reference": "urn:uuid:",
          "display": "Maria Nohlmans"
        },
        "asserter": {
          "reference": "urn:uuid:",
          "display": "Dr. Wolfram Hussels Kieferorthopäde"
        }
      }
    },
    {
      "fullUrl": "urn:uuid:e649eb2d-3607-464a-9d29-c586f6fa8a63",
      "resource": {
        "resourceType": "Condition",
        "id": "e649eb2d-3607-464a-9d29-c586f6fa8a63",
        "meta": {
          "profile": [
            "http://hl7.org/fhir/uv/ips/StructureDefinition/Condition-uv-ips"
          ]
        },
        "category": [
          {
            "coding": [
              {
                "code": "problem-list-item",
                "system": "http://terminology.hl7.org/CodeSystem/condition-category",
                "display": "Problem List Item"
              }
            ]
          }
        ],
        "code": {
          "coding": [
            {
              "code": "271737000",
              "system": "http://snomed.info/sct",
              "display": "Anemia (disorder)"
            }
          ],
          "text": "Anemia"
        },
        "text": {
          "status": "generated",
          "div": "<div xmlns=\"http://www.w3.org/1999/xhtml\"><table class=\"hl7__ips\"><tr><td>Anemia</td><td><span class=\"nb\">23-Nov-1994</span></td><td>active</td></tr></table></div>"
        },
        "onsetDateTime": "1994-11-23",
        "subject": {
          "reference": "urn:uuid:",
          "display": "Maria Nohlmans"
        },
        "asserter": {
          "reference": "urn:uuid:",
          "display": "Dr. Wolfram Hussels Kieferorthopäde"
        }
      }
    },
    {
      "fullUrl": "urn:uuid:5f1c2ba2-6740-45ba-9933-75d7a70a89ec",
      "resource": {
        "resourceType": "Condition",
        "id": "5f1c2ba2-6740-45ba-9933-75d7a70a89ec",
        "meta": {
          "profile": [
            "http://hl7.org/fhir/uv/ips/StructureDefinition/Condition-uv-ips"
          ]
        },
        "category": [
          {
            "coding": [
              {
                "code": "problem-list-item",
                "system": "http://terminology.hl7.org/CodeSystem/condition-category",
                "display": "Problem List Item"
              }
            ]
          }
        ],
        "code": {
          "coding": [
            {
              "code": "15777000",
              "system": "http://snomed.info/sct",
              "display": "Prediabetes (disorder)"
            }
          ],
          "text": "Prediabetes"
        },
        "text": {
          "status": "generated",
          "div": "<div xmlns=\"http://www.w3.org/1999/xhtml\"><table class=\"hl7__ips\"><tr><td>Prediabetes</td><td><span class=\"nb\">17-Nov-1993</span></td><td>active</td></tr></table></div>"
        },
        "onsetDateTime": "1993-11-17",
        "subject": {
          "reference": "urn:uuid:",
          "display": "Maria Nohlmans"
        },
        "asserter": {
          "reference": "urn:uuid:",
          "display": "Dr. Wolfram Hussels Kieferorthopäde"
        }
      }
    },
    {
      "fullUrl": "urn:uuid:0f3444a4-e687-4801-9655-5d829909fc34",
      "resource": {
        "resourceType": "Condition",
        "id": "0f3444a4-e687-4801-9655-5d829909fc34",
        "meta": {
          "profile": [
            "http://hl7.org/fhir/uv/ips/StructureDefinition/Condition-uv-ips"
          ]
        },
        "category": [
          {
            "coding": [
              {
                "code": "problem-list-item",
                "system": "http://terminology.hl7.org/CodeSystem/condition-category",
                "display": "Problem List Item"
              }
            ]
          }
        ],
        "code": {
          "coding": [
            {
              "code": "444814009",
              "system": "http://snomed.info/sct",
              "display": "Viral sinusitis (disorder)"
            }
          ],
          "text": "Viral sinusitis"
        },
        "text": {
          "status": "generated",
          "div": "<div xmlns=\"http://www.w3.org/1999/xhtml\"><table class=\"hl7__ips\"><tr><td><span class=\"grayedout\">Viral sinusitis</span></td><td><span class=\"nb\">05-Feb-2025 - 24-Feb-2025</span></td><td><span class=\"grayedout\">inactive</span></td></tr></table></div>"
        },
        "onsetDateTime": "2025-02-05",
        "abatementDateTime": "2025-02-24",
        "subject": {
          "reference": "urn:uuid:",
          "display": "Maria Nohlmans"
        },
        "asserter": {
          "reference": "urn:uuid:",
          "display": "Dr. Wolfram Hussels Kieferorthopäde"
        }
      }
    },
    {
      "fullUrl": "urn:uuid:9b93de2c-859d-4c17-be05-1e68397887c4",
      "resource": {
        "resourceType": "Condition",
        "id": "9b93de2c-859d-4c17-be05-1e68397887c4",
        "meta": {
          "profile": [
            "http://hl7.org/fhir/uv/ips/StructureDefinition/Condition-uv-ips"
          ]
        },
        "category": [
          {
            "coding": [
              {
                "code": "problem-list-item",
                "system": "http://terminology.hl7.org/CodeSystem/condition-category",
                "display": "Problem List Item"
              }
            ]
          }
        ],
        "code": {
          "coding": [
            {
              "code": "58150001",
              "system": "http://snomed.info/sct",
              "display": "Fracture of clavicle (disorder)"
            }
          ],
          "text": "Fracture of clavicle"
        },
        "text": {
          "status": "generated",
          "div": "<div xmlns=\"http://www.w3.org/1999/xhtml\"><table class=\"hl7__ips\"><tr><td><span class=\"grayedout\">Fracture of clavicle</span></td><td><span class=\"nb\">15-Feb-2024 - 17-May-2024</span></td><td><span class=\"grayedout\">inactive</span></td></tr></table></div>"
        },
        "onsetDateTime": "2024-02-15",
        "abatementDateTime": "2024-05-17",
        "subject": {
          "reference": "urn:uuid:",
          "display": "Maria Nohlmans"
        },
        "asserter": {
          "reference": "urn:uuid:",
          "display": "Dr. Wolfram Hussels Kieferorthopäde"
        }
      }
    },
    {
      "fullUrl": "urn:uuid:b9e24a54-6de1-44ea-be4e-130780e4d5d7",
      "resource": {
        "resourceType": "Condition",
        "id": "b9e24a54-6de1-44ea-be4e-130780e4d5d7",
        "meta": {
          "profile": [
            "http://hl7.org/fhir/uv/ips/StructureDefinition/Condition-uv-ips"
          ]
        },
        "category": [
          {
            "coding": [
              {
                "code": "problem-list-item",
                "system": "http://terminology.hl7.org/CodeSystem/condition-category",
                "display": "Problem List Item"
              }
            ]
          }
        ],
        "code": {
          "coding": [
            {
              "code": "125605004",
              "system": "http://snomed.info/sct",
              "display": "Fracture of bone (disorder)"
            }
          ],
          "text": "Fracture of bone"
        },
        "text": {
          "status": "generated",
          "div": "<div xmlns=\"http://www.w3.org/1999/xhtml\"><table class=\"hl7__ips\"><tr><td><span class=\"grayedout\">Fracture of bone</span></td><td><span class=\"nb\">15-Feb-2024 - 17-May-2024</span></td><td><span class=\"grayedout\">inactive</span></td></tr></table></div>"
        },
        "onsetDateTime": "2024-02-15",
        "abatementDateTime": "2024-05-17",
        "subject": {
          "reference": "urn:uuid:",
          "display": "Maria Nohlmans"
        },
        "asserter": {
          "reference": "urn:uuid:",
          "display": "Dr. Wolfram Hussels Kieferorthopäde"
        }
      }
    },
    {
      "fullUrl": "urn:uuid:cc979f35-adb9-4656-bddd-fd861ae1a87b",
      "resource": {
        "resourceType": "Condition",
        "id": "cc979f35-adb9-4656-bddd-fd861ae1a87b",
        "meta": {
          "profile": [
            "http://hl7.org/fhir/uv/ips/StructureDefinition/Condition-uv-ips"
          ]
        },
        "category": [
          {
            "coding": [
              {
                "code": "problem-list-item",
                "system": "http://terminology.hl7.org/CodeSystem/condition-category",
                "display": "Problem List Item"
              }
            ]
          }
        ],
        "code": {
          "coding": [
            {
              "code": "22298006",
              "system": "http://snomed.info/sct",
              "display": "Myocardial infarction (disorder)"
            }
          ],
          "text": "Myocardial infarction"
        },
        "text": {
          "status": "generated",
          "div": "<div xmlns=\"http://www.w3.org/1999/xhtml\"><table class=\"hl7__ips\"><tr><td><span class=\"grayedout\">Myocardial infarction</span></td><td><span class=\"nb\">25-Jul-2022 - 25-Jul-2022</span></td><td><span class=\"grayedout\">inactive</span></td></tr></table></div>"
        },
        "onsetDateTime": "2022-07-25",
        "abatementDateTime": "2022-07-25",
        "subject": {
          "reference": "urn:uuid:",
          "display": "Maria Nohlmans"
        },
        "asserter": {
          "reference": "urn:uuid:",
          "display": "Dr. Wolfram Hussels Kieferorthopäde"
        }
      }
    },
    {
      "fullUrl": "urn:uuid:aaf40ff3-acce-41d5-9f54-783c8e8e4975",
      "resource": {
        "resourceType": "Condition",
        "id": "aaf40ff3-acce-41d5-9f54-783c8e8e4975",
        "meta": {
          "profile": [
            "http://hl7.org/fhir/uv/ips/StructureDefinition/Condition-uv-ips"
          ]
        },
        "category": [
          {
            "coding": [
              {
                "code": "problem-list-item",
                "system": "http://terminology.hl7.org/CodeSystem/condition-category",
                "display": "Problem List Item"
              }
            ]
          }
        ],
        "code": {
          "coding": [
            {
              "code": "68496003",
              "system": "http://snomed.info/sct",
              "display": "Polyp of colon (disorder)"
            }
          ],
          "text": "Polyp of colon"
        },
        "text": {
          "status": "generated",
          "div": "<div xmlns=\"http://www.w3.org/1999/xhtml\"><table class=\"hl7__ips\"><tr><td><span class=\"grayedout\">Polyp of colon</span></td><td><span class=\"nb\">05-Feb-2021 - 03-Jun-2022</span></td><td><span class=\"grayedout\">inactive</span></td></tr></table></div>"
        },
        "onsetDateTime": "2021-02-05",
        "abatementDateTime": "2022-06-03",
        "subject": {
          "reference": "urn:uuid:",
          "display": "Maria Nohlmans"
        },
        "asserter": {
          "reference": "urn:uuid:",
          "display": "Dr. Wolfram Hussels Kieferorthopäde"
        }
      }
    },
    {
      "fullUrl": "urn:uuid:6f4ab105-fde3-4776-8d71-a96a657e8133",
      "resource": {
        "resourceType": "Condition",
        "id": "6f4ab105-fde3-4776-8d71-a96a657e8133",
        "meta": {
          "profile": [
            "http://hl7.org/fhir/uv/ips/StructureDefinition/Condition-uv-ips"
          ]
        },
        "category": [
          {
            "coding": [
              {
                "code": "problem-list-item",
                "system": "http://terminology.hl7.org/CodeSystem/condition-category",
                "display": "Problem List Item"
              }
            ]
          }
        ],
        "code": {
          "coding": [
            {
              "code": "65966004",
              "system": "http://snomed.info/sct",
              "display": "Fracture of forearm (disorder)"
            }
          ],
          "text": "Fracture of forearm"
        },
        "text": {
          "status": "generated",
          "div": "<div xmlns=\"http://www.w3.org/1999/xhtml\"><table class=\"hl7__ips\"><tr><td><span class=\"grayedout\">Fracture of forearm</span></td><td><span class=\"nb\">28-Feb-2019 - 08-Apr-2019</span></td><td><span class=\"grayedout\">inactive</span></td></tr></table></div>"
        },
        "onsetDateTime": "2019-02-28",
        "abatementDateTime": "2019-04-08",
        "subject": {
          "reference": "urn:uuid:",
          "display": "Maria Nohlmans"
        },
        "asserter": {
          "reference": "urn:uuid:",
          "display": "Dr. Wolfram Hussels Kieferorthopäde"
        }
      }
    },
    {
      "fullUrl": "urn:uuid:d574942b-7fea-4d31-b04a-875d1866c57a",
      "resource": {
        "resourceType": "Condition",
        "id": "d574942b-7fea-4d31-b04a-875d1866c57a",
        "meta": {
          "profile": [
            "http://hl7.org/fhir/uv/ips/StructureDefinition/Condition-uv-ips"
          ]
        },
        "category": [
          {
            "coding": [
              {
                "code": "problem-list-item",
                "system": "http://terminology.hl7.org/CodeSystem/condition-category",
                "display": "Problem List Item"
              }
            ]
          }
        ],
        "code": {
          "coding": [
            {
              "code": "125605004",
              "system": "http://snomed.info/sct",
              "display": "Fracture of bone (disorder)"
            }
          ],
          "text": "Fracture of bone"
        },
        "text": {
          "status": "generated",
          "div": "<div xmlns=\"http://www.w3.org/1999/xhtml\"><table class=\"hl7__ips\"><tr><td><span class=\"grayedout\">Fracture of bone</span></td><td><span class=\"nb\">28-Feb-2019 - 08-Apr-2019</span></td><td><span class=\"grayedout\">inactive</span></td></tr></table></div>"
        },
        "onsetDateTime": "2019-02-28",
        "abatementDateTime": "2019-04-08",
        "subject": {
          "reference": "urn:uuid:",
          "display": "Maria Nohlmans"
        },
        "asserter": {
          "reference": "urn:uuid:",
          "display": "Dr. Wolfram Hussels Kieferorthopäde"
        }
      }
    },
    {
      "fullUrl": "urn:uuid:a572d43d-49ea-4f90-89dc-2d5c2fbc46fd",
      "resource": {
        "resourceType": "Condition",
        "id": "a572d43d-49ea-4f90-89dc-2d5c2fbc46fd",
        "meta": {
          "profile": [
            "http://hl7.org/fhir/uv/ips/StructureDefinition/Condition-uv-ips"
          ]
        },
        "category": [
          {
            "coding": [
              {
                "code": "problem-list-item",
                "system": "http://terminology.hl7.org/CodeSystem/condition-category",
                "display": "Problem List Item"
              }
            ]
          }
        ],
        "code": {
          "coding": [
            {
              "code": "10509002",
              "system": "http://snomed.info/sct",
              "display": "Acute bronchitis (disorder)"
            }
          ],
          "text": "Acute bronchitis"
        },
        "text": {
          "status": "generated",
          "div": "<div xmlns=\"http://www.w3.org/1999/xhtml\"><table class=\"hl7__ips\"><tr><td><span class=\"grayedout\">Acute bronchitis</span></td><td><span class=\"nb\">26-Dec-2017 - 14-Jan-2018</span></td><td><span class=\"grayedout\">inactive</span></td></tr></table></div>"
        },
        "onsetDateTime": "2017-12-26",
        "abatementDateTime": "2018-01-14",
        "subject": {
          "reference": "urn:uuid:",
          "display": "Maria Nohlmans"
        },
        "asserter": {
          "reference": "urn:uuid:",
          "display": "Dr. Wolfram Hussels Kieferorthopäde"
        }
      }
    },
    {
      "fullUrl": "urn:uuid:9fc07235-3dbc-4b95-8e7f-edd20995683c",
      "resource": {
        "resourceType": "Condition",
        "id": "9fc07235-3dbc-4b95-8e7f-edd20995683c",
        "meta": {
          "profile": [
            "http://hl7.org/fhir/uv/ips/StructureDefinition/Condition-uv-ips"
          ]
        },
        "category": [
          {
            "coding": [
              {
                "code": "problem-list-item",
                "system": "http://terminology.hl7.org/CodeSystem/condition-category",
                "display": "Problem List Item"
              }
            ]
          }
        ],
        "code": {
          "coding": [
            {
              "code": "444814009",
              "system": "http://snomed.info/sct",
              "display": "Viral sinusitis (disorder)"
            }
          ],
          "text": "Viral sinusitis"
        },
        "text": {
          "status": "generated",
          "div": "<div xmlns=\"http://www.w3.org/1999/xhtml\"><table class=\"hl7__ips\"><tr><td><span class=\"grayedout\">Viral sinusitis</span></td><td><span class=\"nb\">01-Mar-2017 - 13-Mar-2017</span></td><td><span class=\"grayedout\">inactive</span></td></tr></table></div>"
        },
        "onsetDateTime": "2017-03-01",
        "abatementDateTime": "2017-03-13",
        "subject": {
          "reference": "urn:uuid:",
          "display": "Maria Nohlmans"
        },
        "asserter": {
          "reference": "urn:uuid:",
          "display": "Dr. Wolfram Hussels Kieferorthopäde"
        }
      }
    },
    {
      "fullUrl": "urn:uuid:85912998-4eed-48d2-8017-820db2f6491f",
      "resource": {
        "resourceType": "Condition",
        "id": "85912998-4eed-48d2-8017-820db2f6491f",
        "meta": {
          "profile": [
            "http://hl7.org/fhir/uv/ips/StructureDefinition/Condition-uv-ips"
          ]
        },
        "category": [
          {
            "coding": [
              {
                "code": "problem-list-item",
                "system": "http://terminology.hl7.org/CodeSystem/condition-category",
                "display": "Problem List Item"
              }
            ]
          }
        ],
        "code": {
          "coding": [
            {
              "code": "431857002",
              "system": "http://snomed.info/sct",
              "display": "Chronic kidney disease stage 4 (disorder)"
            }
          ],
          "text": "Chronic kidney disease stage 4"
        },
        "text": {
          "status": "generated",
          "div": "<div xmlns=\"http://www.w3.org/1999/xhtml\"><table class=\"hl7__ips\"><tr><td><span class=\"grayedout\">Chronic kidney disease stage 4</span></td><td><span class=\"nb\">06-Mar-2013 - 16-Jul-2018</span></td><td><span class=\"grayedout\">inactive</span></td></tr></table></div>"
        },
        "onsetDateTime": "2013-03-06",
        "abatementDateTime": "2018-07-16",
        "subject": {
          "reference": "urn:uuid:",
          "display": "Maria Nohlmans"
        },
        "asserter": {
          "reference": "urn:uuid:",
          "display": "Dr. Wolfram Hussels Kieferorthopäde"
        }
      }
    },
    {
      "fullUrl": "urn:uuid:98e9f94f-ea60-45fa-9c5c-b2b681f50288",
      "resource": {
        "resourceType": "Condition",
        "id": "98e9f94f-ea60-45fa-9c5c-b2b681f50288",
        "meta": {
          "profile": [
            "http://hl7.org/fhir/uv/ips/StructureDefinition/Condition-uv-ips"
          ]
        },
        "category": [
          {
            "coding": [
              {
                "code": "problem-list-item",
                "system": "http://terminology.hl7.org/CodeSystem/condition-category",
                "display": "Problem List Item"
              }
            ]
          }
        ],
        "code": {
          "coding": [
            {
              "code": "433144002",
              "system": "http://snomed.info/sct",
              "display": "Chronic kidney disease stage 3 (disorder)"
            }
          ],
          "text": "Chronic kidney disease stage 3"
        },
        "text": {
          "status": "generated",
          "div": "<div xmlns=\"http://www.w3.org/1999/xhtml\"><table class=\"hl7__ips\"><tr><td><span class=\"grayedout\">Chronic kidney disease stage 3</span></td><td><span class=\"nb\">31-Jan-2007 - 16-Jul-2018</span></td><td><span class=\"grayedout\">inactive</span></td></tr></table></div>"
        },
        "onsetDateTime": "2007-01-31",
        "abatementDateTime": "2018-07-16",
        "subject": {
          "reference": "urn:uuid:",
          "display": "Maria Nohlmans"
        },
        "asserter": {
          "reference": "urn:uuid:",
          "display": "Dr. Wolfram Hussels Kieferorthopäde"
        }
      }
    },
    {
      "fullUrl": "urn:uuid:bcaf359a-5a2e-4529-b6a6-4b85355bdc28",
      "resource": {
        "resourceType": "Condition",
        "id": "bcaf359a-5a2e-4529-b6a6-4b85355bdc28",
        "meta": {
          "profile": [
            "http://hl7.org/fhir/uv/ips/StructureDefinition/Condition-uv-ips"
          ]
        },
        "category": [
          {
            "coding": [
              {
                "code": "problem-list-item",
                "system": "http://terminology.hl7.org/CodeSystem/condition-category",
                "display": "Problem List Item"
              }
            ]
          }
        ],
        "code": {
          "coding": [
            {
              "code": "431856006",
              "system": "http://snomed.info/sct",
              "display": "Chronic kidney disease stage 2 (disorder)"
            }
          ],
          "text": "Chronic kidney disease stage 2"
        },
        "text": {
          "status": "generated",
          "div": "<div xmlns=\"http://www.w3.org/1999/xhtml\"><table class=\"hl7__ips\"><tr><td><span class=\"grayedout\">Chronic kidney disease stage 2</span></td><td><span class=\"nb\">25-Jul-2001 - 16-Jul-2018</span></td><td><span class=\"grayedout\">inactive</span></td></tr></table></div>"
        },
        "onsetDateTime": "2001-07-25",
        "abatementDateTime": "2018-07-16",
        "subject": {
          "reference": "urn:uuid:",
          "display": "Maria Nohlmans"
        },
        "asserter": {
          "reference": "urn:uuid:",
          "display": "Dr. Wolfram Hussels Kieferorthopäde"
        }
      }
    },
    {
      "fullUrl": "urn:uuid:a59a3433-1359-4911-af43-6dd989d39dfe",
      "resource": {
        "resourceType": "Condition",
        "id": "a59a3433-1359-4911-af43-6dd989d39dfe",
        "meta": {
          "profile": [
            "http://hl7.org/fhir/uv/ips/StructureDefinition/Condition-uv-ips"
          ]
        },
        "category": [
          {
            "coding": [
              {
                "code": "problem-list-item",
                "system": "http://terminology.hl7.org/CodeSystem/condition-category",
                "display": "Problem List Item"
              }
            ]
          }
        ],
        "code": {
          "coding": [
            {
              "code": "431855005",
              "system": "http://snomed.info/sct",
              "display": "Chronic kidney disease stage 1 (disorder)"
            }
          ],
          "text": "Chronic kidney disease stage 1"
        },
        "text": {
          "status": "generated",
          "div": "<div xmlns=\"http://www.w3.org/1999/xhtml\"><table class=\"hl7__ips\"><tr><td><span class=\"grayedout\">Chronic kidney disease stage 1</span></td><td><span class=\"nb\">03-Nov-1999 - 16-Jul-2018</span></td><td><span class=\"grayedout\">inactive</span></td></tr></table></div>"
        },
        "onsetDateTime": "1999-11-03",
        "abatementDateTime": "2018-07-16",
        "subject": {
          "reference": "urn:uuid:",
          "display": "Maria Nohlmans"
        },
        "asserter": {
          "reference": "urn:uuid:",
          "display": "Dr. Wolfram Hussels Kieferorthopäde"
        }
      }
    },
    {
      "fullUrl": "urn:uuid:b013db2a-7485-4fd4-ac67-e3c8b8f40e55",
      "resource": {
        "resourceType": "Medication",
        "id": "b013db2a-7485-4fd4-ac67-e3c8b8f40e55",
        "meta": {
          "profile": [
            "http://hl7.eu/fhir/eps/StructureDefinition/Medication-eu-eps"
          ]
        },
        "code": {
          "coding": [
            {
              "code": "106892",
              "system": "http://www.nlm.nih.gov/research/umls/rxnorm",
              "display": "insulin isophane  human 70 UNT/ML / insulin  regular  human 30 UNT/ML Injectable Suspension [Humulin]"
            }
          ],
          "text": "insulin isophane  human 70 UNT/ML / insulin  regular  human 30 UNT/ML Injectable Suspension [Humulin]"
        },
        "text": {
          "status": "generated",
          "div": "<div xmlns=\"http://www.w3.org/1999/xhtml\">insulin isophane human 70 UNT/ML / insulin regular human 30 UNT/ML Injectable Suspension [Humulin]</div>"
        }
      }
    },
    {
      "fullUrl": "urn:uuid:7b86c2b6-9540-4e99-b351-366925058513",
      "resource": {
        "resourceType": "MedicationStatement",
        "id": "7b86c2b6-9540-4e99-b351-366925058513",
        "meta": {
          "profile": [
            "http://hl7.eu/fhir/eps/StructureDefinition/MedicationStatement-eu-eps"
          ]
        },
        "effectivePeriod": {
          "start": "2025-05-21"
        },
        "dosage": [
          {
            "doseAndRate": [
              {
                "doseQuantity": {
                  "value": 10,
                  "unit": "unit",
                  "code": "{U}"
                }
              }
            ],
            "timing": {
              "repeat": {
                "frequency": 2,
                "period": 1,
                "periodUnit": "d"
              }
            },
            "text": "10 units subcutaneously before breakfast and dinner",
            "asNeededBoolean": false
          }
        ],
        "reasonCode": [
          {
            "coding": [
              {
                "code": "15777000",
                "system": "http://snomed.info/sct",
                "display": "Prediabetes"
              }
            ]
          }
        ],
        "text": {
          "status": "generated",
          "div": "<div xmlns=\"http://www.w3.org/1999/xhtml\"><table class=\"hl7__ips first25\"><tr><th>Medication</th><th>Since</th><th>Form</th><th>Dosage</th><th>Reason</th></tr><tr><td>insulin isophane human 70 UNT/ML / insulin regular human 30 UNT/ML Injectable Suspension [Humulin]</td><td><span class=\"nb\">2025-05-21</span></td><td>-</td><td>10 units subcutaneously before breakfast and dinner</td><td>Prediabetes</td></tr></table></div>"
        },
        "status": "active",
        "medicationReference": {
          "reference": "urn:uuid:b013db2a-7485-4fd4-ac67-e3c8b8f40e55",
          "display": "insulin isophane  human 70 UNT/ML / insulin  regular  human 30 UNT/ML Injectable Suspension [Humulin]"
        },
        "subject": {
          "reference": "urn:uuid:457f460b-adcb-405a-b68d-42e4bb28c426",
          "display": "Maria Nohlmans"
        }
      }
    },
    {
      "fullUrl": "urn:uuid:46305d82-491b-4c6e-83fa-b3636014e2dd",
      "resource": {
        "resourceType": "Medication",
        "id": "46305d82-491b-4c6e-83fa-b3636014e2dd",
        "meta": {
          "profile": [
            "http://hl7.eu/fhir/eps/StructureDefinition/Medication-eu-eps"
          ]
        },
        "code": {
          "coding": [
            {
              "code": "376209006",
              "system": "http://snomed.info/sct",
              "display": "Hydrochlorothiazide 25 mg oral tablet"
            }
          ],
          "text": "Hydrochlorothiazide 25 mg oral tablet"
        },
        "text": {
          "status": "generated",
          "div": "<div xmlns=\"http://www.w3.org/1999/xhtml\">Hydrochlorothiazide 25 mg oral tablet</div>"
        }
      }
    },
    {
      "fullUrl": "urn:uuid:6c498f47-8346-4295-81d6-dbd6c9e549a7",
      "resource": {
        "resourceType": "MedicationStatement",
        "id": "6c498f47-8346-4295-81d6-dbd6c9e549a7",
        "meta": {
          "profile": [
            "http://hl7.eu/fhir/eps/StructureDefinition/MedicationStatement-eu-eps"
          ]
        },
        "effectivePeriod": {
          "start": "2025-05-21"
        },
        "dosage": [
          {
            "doseAndRate": [
              {
                "doseQuantity": {
                  "value": 1,
                  "unit": "{tbl}",
                  "code": "{tbl}"
                }
              }
            ],
            "timing": {
              "repeat": {
                "frequency": 1,
                "period": 1,
                "periodUnit": "d"
              }
            },
            "text": "1 tablet (25 mg) by mouth once daily",
            "asNeededBoolean": false
          }
        ],
        "reasonCode": [
          {
            "coding": [
              {
                "code": "59621000",
                "system": "http://snomed.info/sct",
                "display": "Essential hypertension (disorder)"
              }
            ]
          }
        ],
        "text": {
          "status": "generated",
          "div": "<div xmlns=\"http://www.w3.org/1999/xhtml\"><table class=\"hl7__ips first25\"><tr><th>Medication</th><th>Since</th><th>Form</th><th>Dosage</th><th>Reason</th></tr><tr><td>Hydrochlorothiazide 25 mg oral tablet</td><td><span class=\"nb\">2025-05-21</span></td><td>-</td><td>1 tablet (25 mg) by mouth once daily</td><td>Essential hypertension (disorder)</td></tr></table></div>"
        },
        "status": "active",
        "medicationReference": {
          "reference": "urn:uuid:46305d82-491b-4c6e-83fa-b3636014e2dd",
          "display": "Hydrochlorothiazide 25 mg oral tablet"
        },
        "subject": {
          "reference": "urn:uuid:457f460b-adcb-405a-b68d-42e4bb28c426",
          "display": "Maria Nohlmans"
        }
      }
    },
    {
      "fullUrl": "urn:uuid:91156396-f7fb-4aac-8d24-1358ce998df2",
      "resource": {
        "resourceType": "Medication",
        "id": "91156396-f7fb-4aac-8d24-1358ce998df2",
        "meta": {
          "profile": [
            "http://hl7.eu/fhir/eps/StructureDefinition/Medication-eu-eps"
          ]
        },
        "code": {
          "coding": [
            {
              "code": "420397007",
              "system": "http://snomed.info/sct",
              "display": "Acetaminophen 300 mg and hydrocodone bitartrate 5 mg oral tablet"
            }
          ],
          "text": "Acetaminophen 300 mg and hydrocodone bitartrate 5 mg oral tablet"
        },
        "text": {
          "status": "generated",
          "div": "<div xmlns=\"http://www.w3.org/1999/xhtml\">Acetaminophen 300 mg and hydrocodone bitartrate 5 mg oral tablet</div>"
        }
      }
    },
    {
      "fullUrl": "urn:uuid:71b648c1-b439-4fef-854e-c47e9d090750",
      "resource": {
        "resourceType": "MedicationStatement",
        "id": "71b648c1-b439-4fef-854e-c47e9d090750",
        "meta": {
          "profile": [
            "http://hl7.eu/fhir/eps/StructureDefinition/MedicationStatement-eu-eps"
          ]
        },
        "effectivePeriod": {
          "start": "2025-05-21"
        },
        "dosage": [
          {
            "doseAndRate": [
              {
                "doseQuantity": {
                  "value": 1,
                  "unit": "{tbl}",
                  "system": "$ucum",
                  "code": "{tbl}"
                }
              }
            ],
            "timing": {
              "repeat": {
                "frequency": 1,
                "period": 4,
                "periodUnit": "h"
              }
            },
            "text": "1 tablet (300 mg/5 mg) by mouth every 4 to 6 hours as needed for pain",
            "asNeededBoolean": true
          }
        ],
        "text": {
          "status": "generated",
          "div": "<div xmlns=\"http://www.w3.org/1999/xhtml\"><table class=\"hl7__ips first25\"><tr><th>Medication</th><th>Since</th><th>Form</th><th>Dosage</th><th>Reason</th></tr><tr><td>Acetaminophen 300 mg and hydrocodone bitartrate 5 mg oral tablet</td><td><span class=\"nb\">2025-05-21</span></td><td>-</td><td>1 tablet (300 mg/5 mg) by mouth every 4 to 6 hours as needed for pain</td><td>-</td></tr></table></div>"
        },
        "status": "active",
        "medicationReference": {
          "reference": "urn:uuid:91156396-f7fb-4aac-8d24-1358ce998df2",
          "display": "Acetaminophen 300 mg and hydrocodone bitartrate 5 mg oral tablet"
        },
        "subject": {
          "reference": "urn:uuid:457f460b-adcb-405a-b68d-42e4bb28c426",
          "display": "Maria Nohlmans"
        }
      }
    },
    {
      "fullUrl": "urn:uuid:bb29bf6f-be8d-4ff3-87bc-7298c7160098",
      "resource": {
        "resourceType": "Medication",
        "id": "bb29bf6f-be8d-4ff3-87bc-7298c7160098",
        "meta": {
          "profile": [
            "http://hl7.eu/fhir/eps/StructureDefinition/Medication-eu-eps"
          ]
        },
        "code": {
          "coding": [
            {
              "code": "1664463",
              "system": "http://www.nlm.nih.gov/research/umls/rxnorm",
              "display": "24 HR tacrolimus 1 MG Extended Release Oral Tablet"
            }
          ],
          "text": "24 HR tacrolimus 1 MG Extended Release Oral Tablet"
        },
        "text": {
          "status": "generated",
          "div": "<div xmlns=\"http://www.w3.org/1999/xhtml\">24 HR tacrolimus 1 MG Extended Release Oral Tablet</div>"
        }
      }
    },
    {
      "fullUrl": "urn:uuid:b09f7eb3-21d9-4bf4-9c48-3bc3da74f29c",
      "resource": {
        "resourceType": "MedicationStatement",
        "id": "b09f7eb3-21d9-4bf4-9c48-3bc3da74f29c",
        "meta": {
          "profile": [
            "http://hl7.eu/fhir/eps/StructureDefinition/MedicationStatement-eu-eps"
          ]
        },
        "effectivePeriod": {
          "start": "2025-05-21"
        },
        "dosage": [
          {
            "doseAndRate": [
              {
                "doseQuantity": {
                  "value": 1,
                  "unit": "{tbl}",
                  "code": "{tbl}"
                }
              }
            ],
            "timing": {
              "repeat": {
                "frequency": 1,
                "period": 1,
                "periodUnit": "d"
              }
            },
            "text": "1 tablet (1 mg) by mouth once daily",
            "asNeededBoolean": false
          }
        ],
        "reasonCode": [
          {
            "coding": [
              {
                "code": "161665007",
                "system": "http://snomed.info/sct",
                "display": "History of renal transplant (situation)"
              }
            ]
          }
        ],
        "text": {
          "status": "generated",
          "div": "<div xmlns=\"http://www.w3.org/1999/xhtml\"><table class=\"hl7__ips first25\"><tr><th>Medication</th><th>Since</th><th>Form</th><th>Dosage</th><th>Reason</th></tr><tr><td>24 HR tacrolimus 1 MG Extended Release Oral Tablet</td><td><span class=\"nb\">2025-05-21</span></td><td>-</td><td>1 tablet (1 mg) by mouth once daily</td><td>History of renal transplant (situation)</td></tr></table></div>"
        },
        "status": "active",
        "medicationReference": {
          "reference": "urn:uuid:bb29bf6f-be8d-4ff3-87bc-7298c7160098",
          "display": "24 HR tacrolimus 1 MG Extended Release Oral Tablet"
        },
        "subject": {
          "reference": "urn:uuid:457f460b-adcb-405a-b68d-42e4bb28c426",
          "display": "Maria Nohlmans"
        }
      }
    },
    {
      "fullUrl": "urn:uuid:390272b6-54f1-41f5-bb64-e309003e47a9",
      "resource": {
        "resourceType": "Medication",
        "id": "390272b6-54f1-41f5-bb64-e309003e47a9",
        "meta": {
          "profile": [
            "http://hl7.eu/fhir/eps/StructureDefinition/Medication-eu-eps"
          ]
        },
        "code": {
          "coding": [
            {
              "code": "765570009",
              "system": "http://snomed.info/sct",
              "display": "Aspirin 81 mg gastro-resistant oral tablet"
            }
          ],
          "text": "Aspirin 81 mg gastro-resistant oral tablet"
        },
        "text": {
          "status": "generated",
          "div": "<div xmlns=\"http://www.w3.org/1999/xhtml\">Aspirin 81 mg gastro-resistant oral tablet</div>"
        }
      }
    },
    {
      "fullUrl": "urn:uuid:6cc2011f-d92e-4674-80f5-1797a40090d6",
      "resource": {
        "resourceType": "MedicationStatement",
        "id": "6cc2011f-d92e-4674-80f5-1797a40090d6",
        "meta": {
          "profile": [
            "http://hl7.eu/fhir/eps/StructureDefinition/MedicationStatement-eu-eps"
          ]
        },
        "effectivePeriod": {
          "start": "2022-07-25"
        },
        "dosage": [
          {
            "doseAndRate": [
              {
                "doseQuantity": {
                  "value": 1,
                  "unit": "{tbl}",
                  "system": "$ucum",
                  "code": "{tbl}"
                }
              }
            ],
            "timing": {
              "repeat": {
                "frequency": 1,
                "period": 1,
                "periodUnit": "d"
              }
            },
            "text": "1 tablet (81 mg) by mouth once daily",
            "asNeededBoolean": false
          }
        ],
        "text": {
          "status": "generated",
          "div": "<div xmlns=\"http://www.w3.org/1999/xhtml\"><table class=\"hl7__ips first25\"><tr><th>Medication</th><th>Since</th><th>Form</th><th>Dosage</th><th>Reason</th></tr><tr><td>Aspirin 81 mg gastro-resistant oral tablet</td><td><span class=\"nb\">2022-07-25</span></td><td>-</td><td>1 tablet (81 mg) by mouth once daily</td><td>-</td></tr></table></div>"
        },
        "status": "active",
        "medicationReference": {
          "reference": "urn:uuid:390272b6-54f1-41f5-bb64-e309003e47a9",
          "display": "Aspirin 81 mg gastro-resistant oral tablet"
        },
        "subject": {
          "reference": "urn:uuid:457f460b-adcb-405a-b68d-42e4bb28c426",
          "display": "Maria Nohlmans"
        }
      }
    },
    {
      "fullUrl": "urn:uuid:d956dbd5-59bb-4bd6-b4e8-4b9e4a35ab46",
      "resource": {
        "resourceType": "Medication",
        "id": "d956dbd5-59bb-4bd6-b4e8-4b9e4a35ab46",
        "meta": {
          "profile": [
            "http://hl7.eu/fhir/eps/StructureDefinition/Medication-eu-eps"
          ]
        },
        "code": {
          "coding": [
            {
              "code": "1145420004",
              "system": "http://snomed.info/sct",
              "display": "Atorvastatin (as atorvastatin calcium) 20 mg oral tablet"
            }
          ],
          "text": "Atorvastatin (as atorvastatin calcium) 20 mg oral tablet"
        },
        "text": {
          "status": "generated",
          "div": "<div xmlns=\"http://www.w3.org/1999/xhtml\">Atorvastatin (as atorvastatin calcium) 20 mg oral tablet</div>"
        }
      }
    },
    {
      "fullUrl": "urn:uuid:8d62b1f9-d712-4a5d-8c53-232259fa5dea",
      "resource": {
        "resourceType": "MedicationStatement",
        "id": "8d62b1f9-d712-4a5d-8c53-232259fa5dea",
        "meta": {
          "profile": [
            "http://hl7.eu/fhir/eps/StructureDefinition/MedicationStatement-eu-eps"
          ]
        },
        "effectivePeriod": {
          "start": "2022-07-25"
        },
        "dosage": [
          {
            "doseAndRate": [
              {
                "doseQuantity": {
                  "value": 1,
                  "unit": "{tbl}",
                  "system": "$ucum",
                  "code": "{tbl}"
                }
              }
            ],
            "timing": {
              "repeat": {
                "frequency": 1,
                "period": 1,
                "periodUnit": "d"
              }
            },
            "text": "1 tablet (20 mg) by mouth once daily",
            "asNeededBoolean": false
          }
        ],
        "text": {
          "status": "generated",
          "div": "<div xmlns=\"http://www.w3.org/1999/xhtml\"><table class=\"hl7__ips first25\"><tr><th>Medication</th><th>Since</th><th>Form</th><th>Dosage</th><th>Reason</th></tr><tr><td>Atorvastatin (as atorvastatin calcium) 20 mg oral tablet</td><td><span class=\"nb\">2022-07-25</span></td><td>-</td><td>1 tablet (20 mg) by mouth once daily</td><td>-</td></tr></table></div>"
        },
        "status": "active",
        "medicationReference": {
          "reference": "urn:uuid:d956dbd5-59bb-4bd6-b4e8-4b9e4a35ab46",
          "display": "Atorvastatin (as atorvastatin calcium) 20 mg oral tablet"
        },
        "subject": {
          "reference": "urn:uuid:457f460b-adcb-405a-b68d-42e4bb28c426",
          "display": "Maria Nohlmans"
        }
      }
    },
    {
      "fullUrl": "urn:uuid:1cfa592a-525a-4490-8cfe-3b955612dff8",
      "resource": {
        "resourceType": "Medication",
        "id": "1cfa592a-525a-4490-8cfe-3b955612dff8",
        "meta": {
          "profile": [
            "http://hl7.eu/fhir/eps/StructureDefinition/Medication-eu-eps"
          ]
        },
        "code": {
          "coding": [
            {
              "code": "783368008",
              "system": "http://snomed.info/sct",
              "display": "Prasugrel (as prasugrel hydrochloride) 10 mg oral tablet"
            }
          ],
          "text": "Prasugrel (as prasugrel hydrochloride) 10 mg oral tablet"
        },
        "text": {
          "status": "generated",
          "div": "<div xmlns=\"http://www.w3.org/1999/xhtml\">Prasugrel (as prasugrel hydrochloride) 10 mg oral tablet</div>"
        }
      }
    },
    {
      "fullUrl": "urn:uuid:59c99072-95e6-40fd-9c1b-f2eb11d70731",
      "resource": {
        "resourceType": "MedicationStatement",
        "id": "59c99072-95e6-40fd-9c1b-f2eb11d70731",
        "meta": {
          "profile": [
            "http://hl7.eu/fhir/eps/StructureDefinition/MedicationStatement-eu-eps"
          ]
        },
        "effectivePeriod": {
          "start": "2022-07-25"
        },
        "dosage": [
          {
            "doseAndRate": [
              {
                "doseQuantity": {
                  "value": 1,
                  "unit": "{tbl}",
                  "code": "{tbl}"
                }
              }
            ],
            "timing": {
              "repeat": {
                "frequency": 1,
                "period": 1,
                "periodUnit": "d"
              }
            },
            "text": "1 tablet (10 mg) once daily",
            "asNeededBoolean": false
          }
        ],
        "text": {
          "status": "generated",
          "div": "<div xmlns=\"http://www.w3.org/1999/xhtml\"><table class=\"hl7__ips first25\"><tr><th>Medication</th><th>Since</th><th>Form</th><th>Dosage</th><th>Reason</th></tr><tr><td>Prasugrel (as prasugrel hydrochloride) 10 mg oral tablet</td><td><span class=\"nb\">2022-07-25</span></td><td>-</td><td>1 tablet (10 mg) once daily</td><td>-</td></tr></table></div>"
        },
        "status": "active",
        "medicationReference": {
          "reference": "urn:uuid:1cfa592a-525a-4490-8cfe-3b955612dff8",
          "display": "Prasugrel (as prasugrel hydrochloride) 10 mg oral tablet"
        },
        "subject": {
          "reference": "urn:uuid:457f460b-adcb-405a-b68d-42e4bb28c426",
          "display": "Maria Nohlmans"
        }
      }
    },
    {
      "fullUrl": "urn:uuid:a62bb38d-71ae-4619-8376-921b86b32ee6",
      "resource": {
        "resourceType": "Medication",
        "id": "a62bb38d-71ae-4619-8376-921b86b32ee6",
        "meta": {
          "profile": [
            "http://hl7.eu/fhir/eps/StructureDefinition/Medication-eu-eps"
          ]
        },
        "code": {
          "coding": [
            {
              "code": "318956006",
              "system": "http://snomed.info/sct",
              "display": "Losartan potassium 50 mg oral tablet"
            }
          ],
          "text": "Losartan potassium 50 mg oral tablet"
        },
        "text": {
          "status": "generated",
          "div": "<div xmlns=\"http://www.w3.org/1999/xhtml\">Losartan potassium 50 mg oral tablet</div>"
        }
      }
    },
    {
      "fullUrl": "urn:uuid:ead8473f-224e-4fe1-93e2-16609ef95482",
      "resource": {
        "resourceType": "MedicationStatement",
        "id": "ead8473f-224e-4fe1-93e2-16609ef95482",
        "meta": {
          "profile": [
            "http://hl7.eu/fhir/eps/StructureDefinition/MedicationStatement-eu-eps"
          ]
        },
        "effectivePeriod": {
          "start": "2022-07-25"
        },
        "dosage": [
          {
            "doseAndRate": [
              {
                "doseQuantity": {
                  "value": 1,
                  "unit": "{tbl}",
                  "code": "{tbl}"
                }
              }
            ],
            "timing": {
              "repeat": {
                "frequency": 1,
                "period": 1,
                "periodUnit": "d"
              }
            },
            "text": "1 tablet (50 mg) by mouth once daily",
            "asNeededBoolean": false
          }
        ],
        "text": {
          "status": "generated",
          "div": "<div xmlns=\"http://www.w3.org/1999/xhtml\"><table class=\"hl7__ips first25\"><tr><th>Medication</th><th>Since</th><th>Form</th><th>Dosage</th><th>Reason</th></tr><tr><td>Losartan potassium 50 mg oral tablet</td><td><span class=\"nb\">2022-07-25</span></td><td>-</td><td>1 tablet (50 mg) by mouth once daily</td><td>-</td></tr></table></div>"
        },
        "status": "active",
        "medicationReference": {
          "reference": "urn:uuid:a62bb38d-71ae-4619-8376-921b86b32ee6",
          "display": "Losartan potassium 50 mg oral tablet"
        },
        "subject": {
          "reference": "urn:uuid:457f460b-adcb-405a-b68d-42e4bb28c426",
          "display": "Maria Nohlmans"
        }
      }
    },
    {
      "fullUrl": "urn:uuid:22784c20-910e-4713-b17a-c6f531cd5936",
      "resource": {
        "resourceType": "Immunization",
        "id": "22784c20-910e-4713-b17a-c6f531cd5936",
        "meta": {
          "profile": [
            "http://hl7.org/fhir/uv/ips/StructureDefinition/Immunization-uv-ips"
          ]
        },
        "vaccineCode": {
          "coding": [
            {
              "code": "1181000221105",
              "system": "http://snomed.info/sct",
              "display": "Vaccine product containing Influenza virus antigen"
            },
            {
              "code": "J07BB02",
              "system": "http://www.whocc.no/atc",
              "display": "Influenza, inactivated, split virus"
            }
          ],
          "text": "Influenza virus antigen only vaccine product"
        },
        "site": {
          "coding": [
            {
              "code": "244979005",
              "system": "http://snomed.info/sct",
              "display": "Entire muscle of upper arm"
            }
          ],
          "text": "Entire muscle of upper arm"
        },
        "route": {
          "coding": [
            {
              "code": "78421000",
              "system": "http://snomed.info/sct",
              "display": "Intramuscular route"
            }
          ],
          "text": "Intramuscular route"
        },
        "text": {
          "status": "generated",
          "div": "<div xmlns=\"http://www.w3.org/1999/xhtml\"><table class=\"hl7__ips\"><tr><td>Influenza virus antigen only vaccine product</td><td><span class=\"nb\">21-May-2025</span></td></tr></table></div>"
        },
        "status": "completed",
        "patient": {
          "reference": "urn:uuid:457f460b-adcb-405a-b68d-42e4bb28c426",
          "display": "Maria Nohlmans"
        },
        "occurrenceDateTime": "2025-05-21",
        "lotNumber": "VR-mooXT6Z6Y",
        "expirationDate": "2025-09-04"
      }
    },
    {
      "fullUrl": "urn:uuid:bef80082-ad62-41ad-bbe2-d049e05bad0f",
      "resource": {
        "resourceType": "Immunization",
        "id": "bef80082-ad62-41ad-bbe2-d049e05bad0f",
        "meta": {
          "profile": [
            "http://hl7.org/fhir/uv/ips/StructureDefinition/Immunization-uv-ips"
          ]
        },
        "vaccineCode": {
          "coding": [
            {
              "code": "777725002",
              "system": "http://snomed.info/sct",
              "display": "Vaccine product containing only Clostridium tetani toxoid antigen adsorbed"
            },
            {
              "code": "J07AM51",
              "system": "http://www.whocc.no/atc",
              "display": "Diphtheria-tetanus vaccines, adult type"
            }
          ],
          "text": "Clostridium tetani toxoid antigen adsorbed only vaccine product"
        },
        "site": {
          "coding": [
            {
              "code": "244979005",
              "system": "http://snomed.info/sct",
              "display": "Entire muscle of upper arm"
            }
          ],
          "text": "Entire muscle of upper arm"
        },
        "route": {
          "coding": [
            {
              "code": "78421000",
              "system": "http://snomed.info/sct",
              "display": "Intramuscular route"
            }
          ],
          "text": "Intramuscular route"
        },
        "text": {
          "status": "generated",
          "div": "<div xmlns=\"http://www.w3.org/1999/xhtml\"><table class=\"hl7__ips\"><tr><td>Clostridium tetani toxoid antigen adsorbed only vaccine product</td><td><span class=\"nb\">08-Jan-2025</span></td></tr></table></div>"
        },
        "status": "completed",
        "patient": {
          "reference": "urn:uuid:457f460b-adcb-405a-b68d-42e4bb28c426",
          "display": "Maria Nohlmans"
        },
        "occurrenceDateTime": "2025-01-08",
        "lotNumber": "QD-CblSgoR",
        "expirationDate": "2025-08-15"
      }
    },
    {
      "fullUrl": "urn:uuid:2b0f363c-776f-4eea-bd4a-b7da39eddd51",
      "resource": {
        "resourceType": "Immunization",
        "id": "2b0f363c-776f-4eea-bd4a-b7da39eddd51",
        "meta": {
          "profile": [
            "http://hl7.org/fhir/uv/ips/StructureDefinition/Immunization-uv-ips"
          ]
        },
        "vaccineCode": {
          "coding": [
            {
              "code": "1119349007",
              "system": "http://snomed.info/sct",
              "display": "Vaccine product containing SARS-CoV-2 mRNA"
            },
            {
              "code": "J07BX03",
              "system": "http://www.whocc.no/atc",
              "display": "COVID-19 mRNA vaccines"
            }
          ],
          "text": "SARS-CoV-2 mRNA vaccine"
        },
        "site": {
          "coding": [
            {
              "code": "244979005",
              "system": "http://snomed.info/sct",
              "display": "Entire muscle of upper arm"
            }
          ],
          "text": "Entire muscle of upper arm"
        },
        "route": {
          "coding": [
            {
              "code": "78421000",
              "system": "http://snomed.info/sct",
              "display": "Intramuscular route"
            }
          ],
          "text": "Intramuscular route"
        },
        "text": {
          "status": "generated",
          "div": "<div xmlns=\"http://www.w3.org/1999/xhtml\"><table class=\"hl7__ips\"><tr><td>SARS-CoV-2 mRNA vaccine</td><td><span class=\"nb\">03-Mar-2021</span></td></tr></table></div>"
        },
        "status": "completed",
        "patient": {
          "reference": "urn:uuid:457f460b-adcb-405a-b68d-42e4bb28c426",
          "display": "Maria Nohlmans"
        },
        "occurrenceDateTime": "2021-03-03",
        "lotNumber": "NO-9UTl",
        "expirationDate": "2021-08-30"
      }
    },
    {
      "fullUrl": "urn:uuid:b7ecd856-b5ec-4490-855f-8b8e8701cdef",
      "resource": {
        "resourceType": "Procedure",
        "id": "b7ecd856-b5ec-4490-855f-8b8e8701cdef",
        "meta": {
          "profile": [
            "http://hl7.org/fhir/uv/ips/StructureDefinition/Procedure-uv-ips"
          ]
        },
        "code": {
          "coding": [
            {
              "code": "171207006",
              "system": "http://snomed.info/sct",
              "display": "Depression screening (procedure)"
            }
          ],
          "text": "Depression screening"
        },
        "text": {
          "status": "generated",
          "div": "<div xmlns=\"http://www.w3.org/1999/xhtml\"><table class=\"hl7__ips\"><tr><td>Depression screening</td><td><span class=\"nb\">22-Jan-2025</span></td><td>-</td></tr></table></div>"
        },
        "status": "completed",
        "performedDateTime": "2025-01-22",
        "subject": {
          "reference": "urn:uuid:",
          "display": "Maria Nohlmans"
        }
      }
    },
    {
      "fullUrl": "urn:uuid:2d781098-418f-4a96-8ab0-4e6829d2a116",
      "resource": {
        "resourceType": "Procedure",
        "id": "2d781098-418f-4a96-8ab0-4e6829d2a116",
        "meta": {
          "profile": [
            "http://hl7.org/fhir/uv/ips/StructureDefinition/Procedure-uv-ips"
          ]
        },
        "code": {
          "coding": [
            {
              "code": "710824005",
              "system": "http://snomed.info/sct",
              "display": "Assessment of health and social care needs (procedure)"
            }
          ],
          "text": "Assessment of health and social care needs"
        },
        "text": {
          "status": "generated",
          "div": "<div xmlns=\"http://www.w3.org/1999/xhtml\"><table class=\"hl7__ips\"><tr><td>Assessment of health and social care needs</td><td><span class=\"nb\">22-Jan-2025</span></td><td>-</td></tr></table></div>"
        },
        "status": "completed",
        "performedDateTime": "2025-01-22",
        "subject": {
          "reference": "urn:uuid:",
          "display": "Maria Nohlmans"
        }
      }
    },
    {
      "fullUrl": "urn:uuid:82bb6fe0-c38f-4459-87f0-2a5606bb5a6e",
      "resource": {
        "resourceType": "Procedure",
        "id": "82bb6fe0-c38f-4459-87f0-2a5606bb5a6e",
        "meta": {
          "profile": [
            "http://hl7.org/fhir/uv/ips/StructureDefinition/Procedure-uv-ips"
          ]
        },
        "code": {
          "coding": [
            {
              "code": "762993000",
              "system": "http://snomed.info/sct",
              "display": "Assessment using Morse Fall Scale (procedure)"
            }
          ],
          "text": "Assessment using Morse Fall Scale"
        },
        "text": {
          "status": "generated",
          "div": "<div xmlns=\"http://www.w3.org/1999/xhtml\"><table class=\"hl7__ips\"><tr><td>Assessment using Morse Fall Scale</td><td><span class=\"nb\">22-Jan-2025</span></td><td>-</td></tr></table></div>"
        },
        "status": "completed",
        "performedDateTime": "2025-01-22",
        "subject": {
          "reference": "urn:uuid:",
          "display": "Maria Nohlmans"
        }
      }
    },
    {
      "fullUrl": "urn:uuid:a48a5560-d06f-48d2-ae60-053dc6792858",
      "resource": {
        "resourceType": "Procedure",
        "id": "a48a5560-d06f-48d2-ae60-053dc6792858",
        "meta": {
          "profile": [
            "http://hl7.org/fhir/uv/ips/StructureDefinition/Procedure-uv-ips"
          ]
        },
        "code": {
          "coding": [
            {
              "code": "454711000124102",
              "system": "http://snomed.info/sct",
              "display": "Depression screening using Patient Health Questionnaire Two-Item score (procedure)"
            }
          ]
        },
        "text": {
          "status": "generated",
          "div": "<div xmlns=\"http://www.w3.org/1999/xhtml\"><table class=\"hl7__ips\"><tr><td>Depression screening using Patient Health Questionnaire Two-Item score (procedure)</td><td><span class=\"nb\">22-Jan-2025</span></td><td>-</td></tr></table></div>"
        },
        "status": "completed",
        "performedDateTime": "2025-01-22",
        "subject": {
          "reference": "urn:uuid:",
          "display": "Maria Nohlmans"
        }
      }
    },
    {
      "fullUrl": "urn:uuid:3c4f790d-1bf1-4e9d-899e-f5f665e9ad26",
      "resource": {
        "resourceType": "Procedure",
        "id": "3c4f790d-1bf1-4e9d-899e-f5f665e9ad26",
        "meta": {
          "profile": [
            "http://hl7.org/fhir/uv/ips/StructureDefinition/Procedure-uv-ips"
          ]
        },
        "code": {
          "coding": [
            {
              "code": "430193006",
              "system": "http://snomed.info/sct",
              "display": "Medication Reconciliation (procedure)"
            }
          ],
          "text": "Medication reconciliation"
        },
        "text": {
          "status": "generated",
          "div": "<div xmlns=\"http://www.w3.org/1999/xhtml\"><table class=\"hl7__ips\"><tr><td>Medication reconciliation</td><td><span class=\"nb\">15-Jan-2025</span></td><td>-</td></tr></table></div>"
        },
        "status": "completed",
        "performedDateTime": "2025-01-15",
        "subject": {
          "reference": "urn:uuid:",
          "display": "Maria Nohlmans"
        }
      }
    },
    {
      "fullUrl": "urn:uuid:6b36e6bf-c091-4b35-82fd-a52fdd0e257f",
      "resource": {
        "resourceType": "Procedure",
        "id": "6b36e6bf-c091-4b35-82fd-a52fdd0e257f",
        "meta": {
          "profile": [
            "http://hl7.org/fhir/uv/ips/StructureDefinition/Procedure-uv-ips"
          ]
        },
        "code": {
          "coding": [
            {
              "code": "713106006",
              "system": "http://snomed.info/sct",
              "display": "Screening for drug abuse (procedure)"
            }
          ],
          "text": "Screening for drug abuse"
        },
        "text": {
          "status": "generated",
          "div": "<div xmlns=\"http://www.w3.org/1999/xhtml\"><table class=\"hl7__ips\"><tr><td>Screening for drug abuse</td><td><span class=\"nb\">08-Jan-2025</span></td><td>-</td></tr></table></div>"
        },
        "status": "completed",
        "performedDateTime": "2025-01-08",
        "subject": {
          "reference": "urn:uuid:",
          "display": "Maria Nohlmans"
        }
      }
    },
    {
      "fullUrl": "urn:uuid:16d2dc00-8302-4b43-8941-28848280f8fb",
      "resource": {
        "resourceType": "Procedure",
        "id": "16d2dc00-8302-4b43-8941-28848280f8fb",
        "meta": {
          "profile": [
            "http://hl7.org/fhir/uv/ips/StructureDefinition/Procedure-uv-ips"
          ]
        },
        "code": {
          "coding": [
            {
              "code": "866148006",
              "system": "http://snomed.info/sct",
              "display": "Screening for domestic abuse (procedure)"
            }
          ],
          "text": "Screening for domestic abuse"
        },
        "text": {
          "status": "generated",
          "div": "<div xmlns=\"http://www.w3.org/1999/xhtml\"><table class=\"hl7__ips\"><tr><td>Screening for domestic abuse</td><td><span class=\"nb\">08-Jan-2025</span></td><td>-</td></tr></table></div>"
        },
        "status": "completed",
        "performedDateTime": "2025-01-08",
        "subject": {
          "reference": "urn:uuid:",
          "display": "Maria Nohlmans"
        }
      }
    },
    {
      "fullUrl": "urn:uuid:1b8a002f-8bc6-4454-beda-c7f203261b44",
      "resource": {
        "resourceType": "Procedure",
        "id": "1b8a002f-8bc6-4454-beda-c7f203261b44",
        "meta": {
          "profile": [
            "http://hl7.org/fhir/uv/ips/StructureDefinition/Procedure-uv-ips"
          ]
        },
        "code": {
          "coding": [
            {
              "code": "428211000124100",
              "system": "http://snomed.info/sct",
              "display": "Assessment of substance use (procedure)"
            }
          ],
          "text": "Assessment of substance use"
        },
        "text": {
          "status": "generated",
          "div": "<div xmlns=\"http://www.w3.org/1999/xhtml\"><table class=\"hl7__ips\"><tr><td>Assessment of substance use</td><td><span class=\"nb\">08-Jan-2025</span></td><td>-</td></tr></table></div>"
        },
        "status": "completed",
        "performedDateTime": "2025-01-08",
        "subject": {
          "reference": "urn:uuid:",
          "display": "Maria Nohlmans"
        }
      }
    },
    {
      "fullUrl": "urn:uuid:dcfada51-d793-46ab-91bd-19c918752b9d",
      "resource": {
        "resourceType": "Procedure",
        "id": "dcfada51-d793-46ab-91bd-19c918752b9d",
        "meta": {
          "profile": [
            "http://hl7.org/fhir/uv/ips/StructureDefinition/Procedure-uv-ips"
          ]
        },
        "code": {
          "coding": [
            {
              "code": "168594001",
              "system": "http://snomed.info/sct",
              "display": "Clavicle X-ray"
            }
          ],
          "text": "Plain X-ray of clavicle"
        },
        "text": {
          "status": "generated",
          "div": "<div xmlns=\"http://www.w3.org/1999/xhtml\"><table class=\"hl7__ips\"><tr><td>Plain X-ray of clavicle</td><td><span class=\"nb\">15-Feb-2024</span></td><td>-</td></tr></table></div>"
        },
        "status": "completed",
        "performedDateTime": "2024-02-15",
        "subject": {
          "reference": "urn:uuid:",
          "display": "Maria Nohlmans"
        }
      }
    },
    {
      "fullUrl": "urn:uuid:ec370845-d470-46c2-8527-a8a769f6027e",
      "resource": {
        "resourceType": "Procedure",
        "id": "ec370845-d470-46c2-8527-a8a769f6027e",
        "meta": {
          "profile": [
            "http://hl7.org/fhir/uv/ips/StructureDefinition/Procedure-uv-ips"
          ]
        },
        "code": {
          "coding": [
            {
              "code": "305428000",
              "system": "http://snomed.info/sct",
              "display": "Admission to orthopedic department"
            }
          ],
          "text": "Admission to orthopedic department"
        },
        "reasonCode": [
          {
            "coding": [
              {
                "code": "58150001",
                "system": "http://snomed.info/sct",
                "display": "Fracture of clavicle"
              }
            ]
          }
        ],
        "text": {
          "status": "generated",
          "div": "<div xmlns=\"http://www.w3.org/1999/xhtml\"><table class=\"hl7__ips\"><tr><td>Admission to orthopedic department</td><td><span class=\"nb\">15-Feb-2024</span></td><td>Fracture of clavicle</td></tr></table></div>"
        },
        "status": "completed",
        "performedDateTime": "2024-02-15",
        "subject": {
          "reference": "urn:uuid:",
          "display": "Maria Nohlmans"
        }
      }
    },
    {
      "fullUrl": "urn:uuid:bd7f31cd-edb6-443b-a144-0b20e289fcc3",
      "resource": {
        "resourceType": "Procedure",
        "id": "bd7f31cd-edb6-443b-a144-0b20e289fcc3",
        "meta": {
          "profile": [
            "http://hl7.org/fhir/uv/ips/StructureDefinition/Procedure-uv-ips"
          ]
        },
        "code": {
          "coding": [
            {
              "code": "312681000",
              "system": "http://snomed.info/sct",
              "display": "Bone density scan (procedure)"
            }
          ],
          "text": "Bone density scan"
        },
        "reasonCode": [
          {
            "coding": [
              {
                "code": "58150001",
                "system": "http://snomed.info/sct",
                "display": "Fracture of clavicle"
              }
            ]
          }
        ],
        "text": {
          "status": "generated",
          "div": "<div xmlns=\"http://www.w3.org/1999/xhtml\"><table class=\"hl7__ips\"><tr><td>Bone density scan</td><td><span class=\"nb\">15-Feb-2024</span></td><td>Fracture of clavicle</td></tr></table></div>"
        },
        "status": "completed",
        "performedDateTime": "2024-02-15",
        "subject": {
          "reference": "urn:uuid:",
          "display": "Maria Nohlmans"
        }
      }
    },
    {
      "fullUrl": "urn:uuid:c112f171-baf9-43cd-8b7c-7f5efc14b5ad",
      "resource": {
        "resourceType": "Procedure",
        "id": "c112f171-baf9-43cd-8b7c-7f5efc14b5ad",
        "meta": {
          "profile": [
            "http://hl7.org/fhir/uv/ips/StructureDefinition/Procedure-uv-ips"
          ]
        },
        "code": {
          "coding": [
            {
              "code": "15220000",
              "system": "http://snomed.info/sct",
              "display": "Laboratory test (procedure)"
            }
          ],
          "text": "Laboratory test"
        },
        "text": {
          "status": "generated",
          "div": "<div xmlns=\"http://www.w3.org/1999/xhtml\"><table class=\"hl7__ips\"><tr><td>Laboratory test</td><td><span class=\"nb\">25-Jul-2022</span></td><td>-</td></tr></table></div>"
        },
        "status": "completed",
        "performedDateTime": "2022-07-25",
        "subject": {
          "reference": "urn:uuid:",
          "display": "Maria Nohlmans"
        }
      }
    },
    {
      "fullUrl": "urn:uuid:7bcc3816-364c-4a7b-8ee0-567b59ca4920",
      "resource": {
        "resourceType": "Procedure",
        "id": "7bcc3816-364c-4a7b-8ee0-567b59ca4920",
        "meta": {
          "profile": [
            "http://hl7.org/fhir/uv/ips/StructureDefinition/Procedure-uv-ips"
          ]
        },
        "code": {
          "coding": [
            {
              "code": "29303009",
              "system": "http://snomed.info/sct",
              "display": "Electrocardiographic procedure (procedure)"
            }
          ],
          "text": "Electrocardiographic procedure"
        },
        "text": {
          "status": "generated",
          "div": "<div xmlns=\"http://www.w3.org/1999/xhtml\"><table class=\"hl7__ips\"><tr><td>Electrocardiographic procedure</td><td><span class=\"nb\">25-Jul-2022</span></td><td>-</td></tr></table></div>"
        },
        "status": "completed",
        "performedDateTime": "2022-07-25",
        "subject": {
          "reference": "urn:uuid:",
          "display": "Maria Nohlmans"
        }
      }
    },
    {
      "fullUrl": "urn:uuid:33a9d373-c31e-4cb3-8dc9-e9783e6a91ee",
      "resource": {
        "resourceType": "Procedure",
        "id": "33a9d373-c31e-4cb3-8dc9-e9783e6a91ee",
        "meta": {
          "profile": [
            "http://hl7.org/fhir/uv/ips/StructureDefinition/Procedure-uv-ips"
          ]
        },
        "code": {
          "coding": [
            {
              "code": "33367005",
              "system": "http://snomed.info/sct",
              "display": "Angiography of coronary artery (procedure)"
            }
          ],
          "text": "Angiography of coronary artery"
        },
        "text": {
          "status": "generated",
          "div": "<div xmlns=\"http://www.w3.org/1999/xhtml\"><table class=\"hl7__ips\"><tr><td>Angiography of coronary artery</td><td><span class=\"nb\">25-Jul-2022</span></td><td>-</td></tr></table></div>"
        },
        "status": "completed",
        "performedDateTime": "2022-07-25",
        "subject": {
          "reference": "urn:uuid:",
          "display": "Maria Nohlmans"
        }
      }
    },
    {
      "fullUrl": "urn:uuid:3a55bb18-bb9d-4ac5-9037-05a8ee4281d0",
      "resource": {
        "resourceType": "Procedure",
        "id": "3a55bb18-bb9d-4ac5-9037-05a8ee4281d0",
        "meta": {
          "profile": [
            "http://hl7.org/fhir/uv/ips/StructureDefinition/Procedure-uv-ips"
          ]
        },
        "code": {
          "coding": [
            {
              "code": "76746007",
              "system": "http://snomed.info/sct",
              "display": "Cardiovascular stress testing (procedure)"
            }
          ],
          "text": "Cardiovascular stress testing"
        },
        "reasonCode": [
          {
            "coding": [
              {
                "code": "401314000",
                "system": "http://snomed.info/sct",
                "display": "Acute non-ST segment elevation myocardial infarction (disorder)"
              }
            ]
          }
        ],
        "text": {
          "status": "generated",
          "div": "<div xmlns=\"http://www.w3.org/1999/xhtml\"><table class=\"hl7__ips\"><tr><td>Cardiovascular stress testing</td><td><span class=\"nb\">25-Jul-2022</span></td><td>Acute non-ST segment elevation myocardial infarction (disorder)</td></tr></table></div>"
        },
        "status": "completed",
        "performedDateTime": "2022-07-25",
        "subject": {
          "reference": "urn:uuid:",
          "display": "Maria Nohlmans"
        }
      }
    },
    {
      "fullUrl": "urn:uuid:f57e8aa1-054f-4def-8021-2978cb5e9d9a",
      "resource": {
        "resourceType": "Procedure",
        "id": "f57e8aa1-054f-4def-8021-2978cb5e9d9a",
        "meta": {
          "profile": [
            "http://hl7.org/fhir/uv/ips/StructureDefinition/Procedure-uv-ips"
          ]
        },
        "code": {
          "coding": [
            {
              "code": "165197003",
              "system": "http://snomed.info/sct",
              "display": "Diagnostic assessment (procedure)"
            }
          ],
          "text": "Diagnostic assessment"
        },
        "text": {
          "status": "generated",
          "div": "<div xmlns=\"http://www.w3.org/1999/xhtml\"><table class=\"hl7__ips\"><tr><td>Diagnostic assessment</td><td><span class=\"nb\">25-Jul-2022</span></td><td>-</td></tr></table></div>"
        },
        "status": "completed",
        "performedDateTime": "2022-07-25",
        "subject": {
          "reference": "urn:uuid:",
          "display": "Maria Nohlmans"
        }
      }
    },
    {
      "fullUrl": "urn:uuid:59c8c4e8-3724-4142-959a-d868aabae43f",
      "resource": {
        "resourceType": "Procedure",
        "id": "59c8c4e8-3724-4142-959a-d868aabae43f",
        "meta": {
          "profile": [
            "http://hl7.org/fhir/uv/ips/StructureDefinition/Procedure-uv-ips"
          ]
        },
        "code": {
          "coding": [
            {
              "code": "225338004",
              "system": "http://snomed.info/sct",
              "display": "Risk assessment (procedure)"
            }
          ],
          "text": "Risk assessment"
        },
        "reasonCode": [
          {
            "coding": [
              {
                "code": "401314000",
                "system": "http://snomed.info/sct",
                "display": "Acute non-ST segment elevation myocardial infarction (disorder)"
              }
            ]
          }
        ],
        "text": {
          "status": "generated",
          "div": "<div xmlns=\"http://www.w3.org/1999/xhtml\"><table class=\"hl7__ips\"><tr><td>Risk assessment</td><td><span class=\"nb\">25-Jul-2022</span></td><td>Acute non-ST segment elevation myocardial infarction (disorder)</td></tr></table></div>"
        },
        "status": "completed",
        "performedDateTime": "2022-07-25",
        "subject": {
          "reference": "urn:uuid:",
          "display": "Maria Nohlmans"
        }
      }
    },
    {
      "fullUrl": "urn:uuid:104cd48e-9417-4472-9f96-dc7bc5ea9a15",
      "resource": {
        "resourceType": "Procedure",
        "id": "104cd48e-9417-4472-9f96-dc7bc5ea9a15",
        "meta": {
          "profile": [
            "http://hl7.org/fhir/uv/ips/StructureDefinition/Procedure-uv-ips"
          ]
        },
        "code": {
          "coding": [
            {
              "code": "371908008",
              "system": "http://snomed.info/sct",
              "display": "Oxygen administration by mask (procedure)"
            }
          ],
          "text": "Oxygen administration by mask"
        },
        "text": {
          "status": "generated",
          "div": "<div xmlns=\"http://www.w3.org/1999/xhtml\"><table class=\"hl7__ips\"><tr><td>Oxygen administration by mask</td><td><span class=\"nb\">25-Jul-2022</span></td><td>-</td></tr></table></div>"
        },
        "status": "completed",
        "performedDateTime": "2022-07-25",
        "subject": {
          "reference": "urn:uuid:",
          "display": "Maria Nohlmans"
        }
      }
    },
    {
      "fullUrl": "urn:uuid:d4d51946-477d-4998-a218-ffc3f6c5f307",
      "resource": {
        "resourceType": "Procedure",
        "id": "d4d51946-477d-4998-a218-ffc3f6c5f307",
        "meta": {
          "profile": [
            "http://hl7.org/fhir/uv/ips/StructureDefinition/Procedure-uv-ips"
          ]
        },
        "code": {
          "coding": [
            {
              "code": "399208008",
              "system": "http://snomed.info/sct",
              "display": "Plain chest X-ray (procedure)"
            }
          ],
          "text": "Plain X-ray of chest"
        },
        "text": {
          "status": "generated",
          "div": "<div xmlns=\"http://www.w3.org/1999/xhtml\"><table class=\"hl7__ips\"><tr><td>Plain X-ray of chest</td><td><span class=\"nb\">25-Jul-2022</span></td><td>-</td></tr></table></div>"
        },
        "status": "completed",
        "performedDateTime": "2022-07-25",
        "subject": {
          "reference": "urn:uuid:",
          "display": "Maria Nohlmans"
        }
      }
    },
    {
      "fullUrl": "urn:uuid:f1efb4b7-5bf7-4190-85e6-b9022eb3b52d",
      "resource": {
        "resourceType": "Procedure",
        "id": "f1efb4b7-5bf7-4190-85e6-b9022eb3b52d",
        "meta": {
          "profile": [
            "http://hl7.org/fhir/uv/ips/StructureDefinition/Procedure-uv-ips"
          ]
        },
        "code": {
          "coding": [
            {
              "code": "415070008",
              "system": "http://snomed.info/sct",
              "display": "Percutaneous coronary intervention (procedure)"
            }
          ],
          "text": "Percutaneous coronary intervention"
        },
        "reasonCode": [
          {
            "coding": [
              {
                "code": "401314000",
                "system": "http://snomed.info/sct",
                "display": "Acute non-ST segment elevation myocardial infarction (disorder)"
              }
            ]
          }
        ],
        "text": {
          "status": "generated",
          "div": "<div xmlns=\"http://www.w3.org/1999/xhtml\"><table class=\"hl7__ips\"><tr><td>Percutaneous coronary intervention</td><td><span class=\"nb\">25-Jul-2022</span></td><td>Acute non-ST segment elevation myocardial infarction (disorder)</td></tr></table></div>"
        },
        "status": "completed",
        "performedDateTime": "2022-07-25",
        "subject": {
          "reference": "urn:uuid:",
          "display": "Maria Nohlmans"
        }
      }
    },
    {
      "fullUrl": "urn:uuid:3fc9c736-f82d-498c-ac0e-348dae67f121",
      "resource": {
        "resourceType": "Procedure",
        "id": "3fc9c736-f82d-498c-ac0e-348dae67f121",
        "meta": {
          "profile": [
            "http://hl7.org/fhir/uv/ips/StructureDefinition/Procedure-uv-ips"
          ]
        },
        "code": {
          "coding": [
            {
              "code": "433236007",
              "system": "http://snomed.info/sct",
              "display": "Transthoracic echocardiography (procedure)"
            }
          ],
          "text": "Transthoracic echocardiography"
        },
        "text": {
          "status": "generated",
          "div": "<div xmlns=\"http://www.w3.org/1999/xhtml\"><table class=\"hl7__ips\"><tr><td>Transthoracic echocardiography</td><td><span class=\"nb\">25-Jul-2022</span></td><td>-</td></tr></table></div>"
        },
        "status": "completed",
        "performedDateTime": "2022-07-25",
        "subject": {
          "reference": "urn:uuid:",
          "display": "Maria Nohlmans"
        }
      }
    },
    {
      "fullUrl": "urn:uuid:81081960-3e81-4d1c-8063-cd5f403f7b73",
      "resource": {
        "resourceType": "Procedure",
        "id": "81081960-3e81-4d1c-8063-cd5f403f7b73",
        "meta": {
          "profile": [
            "http://hl7.org/fhir/uv/ips/StructureDefinition/Procedure-uv-ips"
          ]
        },
        "code": {
          "coding": [
            {
              "code": "710839006",
              "system": "http://snomed.info/sct",
              "display": "Assessment of cardiac status using monitoring device (procedure)"
            }
          ],
          "text": "Assessment of cardiac status using monitoring device"
        },
        "text": {
          "status": "generated",
          "div": "<div xmlns=\"http://www.w3.org/1999/xhtml\"><table class=\"hl7__ips\"><tr><td>Assessment of cardiac status using monitoring device</td><td><span class=\"nb\">25-Jul-2022</span></td><td>-</td></tr></table></div>"
        },
        "status": "completed",
        "performedDateTime": "2022-07-25",
        "subject": {
          "reference": "urn:uuid:",
          "display": "Maria Nohlmans"
        }
      }
    },
    {
      "fullUrl": "urn:uuid:d865dd09-1577-4fd2-bd78-27d4fe09c39b",
      "resource": {
        "resourceType": "Procedure",
        "id": "d865dd09-1577-4fd2-bd78-27d4fe09c39b",
        "meta": {
          "profile": [
            "http://hl7.org/fhir/uv/ips/StructureDefinition/Procedure-uv-ips"
          ]
        },
        "code": {
          "coding": [
            {
              "code": "1225002",
              "system": "http://snomed.info/sct",
              "display": "Upper arm X-ray"
            }
          ],
          "text": "Radiography of humerus"
        },
        "text": {
          "status": "generated",
          "div": "<div xmlns=\"http://www.w3.org/1999/xhtml\"><table class=\"hl7__ips\"><tr><td>Radiography of humerus</td><td><span class=\"nb\">28-Feb-2019</span></td><td>-</td></tr></table></div>"
        },
        "status": "completed",
        "performedDateTime": "2019-02-28",
        "subject": {
          "reference": "urn:uuid:",
          "display": "Maria Nohlmans"
        }
      }
    },
    {
      "fullUrl": "urn:uuid:7c8e692d-4630-43d6-a350-49cc5ad86779",
      "resource": {
        "resourceType": "Procedure",
        "id": "7c8e692d-4630-43d6-a350-49cc5ad86779",
        "meta": {
          "profile": [
            "http://hl7.org/fhir/uv/ips/StructureDefinition/Procedure-uv-ips"
          ]
        },
        "code": {
          "coding": [
            {
              "code": "274474001",
              "system": "http://snomed.info/sct",
              "display": "Bone immobilization"
            }
          ],
          "text": "Bone immobilization"
        },
        "reasonCode": [
          {
            "coding": [
              {
                "code": "65966004",
                "system": "http://snomed.info/sct",
                "display": "Fracture of forearm"
              }
            ]
          }
        ],
        "text": {
          "status": "generated",
          "div": "<div xmlns=\"http://www.w3.org/1999/xhtml\"><table class=\"hl7__ips\"><tr><td>Bone immobilization</td><td><span class=\"nb\">28-Feb-2019</span></td><td>Fracture of forearm</td></tr></table></div>"
        },
        "status": "completed",
        "performedDateTime": "2019-02-28",
        "subject": {
          "reference": "urn:uuid:",
          "display": "Maria Nohlmans"
        }
      }
    },
    {
      "fullUrl": "urn:uuid:660cb38e-2fed-41f4-81bd-8b40dbc1c9ea",
      "resource": {
        "resourceType": "Procedure",
        "id": "660cb38e-2fed-41f4-81bd-8b40dbc1c9ea",
        "meta": {
          "profile": [
            "http://hl7.org/fhir/uv/ips/StructureDefinition/Procedure-uv-ips"
          ]
        },
        "code": {
          "coding": [
            {
              "code": "58000006",
              "system": "http://snomed.info/sct",
              "display": "Patient discharge (procedure)"
            }
          ],
          "text": "Patient discharge"
        },
        "text": {
          "status": "generated",
          "div": "<div xmlns=\"http://www.w3.org/1999/xhtml\"><table class=\"hl7__ips\"><tr><td>Patient discharge</td><td><span class=\"nb\">04-Dec-2018</span></td><td>-</td></tr></table></div>"
        },
        "status": "completed",
        "performedDateTime": "2018-12-04",
        "subject": {
          "reference": "urn:uuid:",
          "display": "Maria Nohlmans"
        }
      }
    },
    {
      "fullUrl": "urn:uuid:a2ef9a78-e18b-4494-a94b-d8517c5522d6",
      "resource": {
        "resourceType": "Procedure",
        "id": "a2ef9a78-e18b-4494-a94b-d8517c5522d6",
        "meta": {
          "profile": [
            "http://hl7.org/fhir/uv/ips/StructureDefinition/Procedure-uv-ips"
          ]
        },
        "code": {
          "coding": [
            {
              "code": "385763009",
              "system": "http://snomed.info/sct",
              "display": "Hospice care (regime/therapy)"
            }
          ],
          "text": "Hospice care"
        },
        "text": {
          "status": "generated",
          "div": "<div xmlns=\"http://www.w3.org/1999/xhtml\"><table class=\"hl7__ips\"><tr><td>Hospice care</td><td><span class=\"nb\">03-Dec-2018</span></td><td>-</td></tr></table></div>"
        },
        "status": "completed",
        "performedDateTime": "2018-12-03",
        "subject": {
          "reference": "urn:uuid:",
          "display": "Maria Nohlmans"
        }
      }
    },
    {
      "fullUrl": "urn:uuid:098a2649-9db4-40ed-8ef5-d0f8b2beae1b",
      "resource": {
        "resourceType": "Procedure",
        "id": "098a2649-9db4-40ed-8ef5-d0f8b2beae1b",
        "meta": {
          "profile": [
            "http://hl7.org/fhir/uv/ips/StructureDefinition/Procedure-uv-ips"
          ]
        },
        "code": {
          "coding": [
            {
              "code": "185087000",
              "system": "http://snomed.info/sct",
              "display": "Notifications (procedure)"
            }
          ],
          "text": "Notifications"
        },
        "text": {
          "status": "generated",
          "div": "<div xmlns=\"http://www.w3.org/1999/xhtml\"><table class=\"hl7__ips\"><tr><td>Notifications</td><td><span class=\"nb\">21-Nov-2018</span></td><td>-</td></tr></table></div>"
        },
        "status": "completed",
        "performedDateTime": "2018-11-21",
        "subject": {
          "reference": "urn:uuid:",
          "display": "Maria Nohlmans"
        }
      }
    },
    {
      "fullUrl": "urn:uuid:f24ae23f-fb8f-43e1-82b3-12a8f9e69e58",
      "resource": {
        "resourceType": "Procedure",
        "id": "f24ae23f-fb8f-43e1-82b3-12a8f9e69e58",
        "meta": {
          "profile": [
            "http://hl7.org/fhir/uv/ips/StructureDefinition/Procedure-uv-ips"
          ]
        },
        "code": {
          "coding": [
            {
              "code": "310417005",
              "system": "http://snomed.info/sct",
              "display": "Certification procedure (procedure)"
            }
          ],
          "text": "Certification procedure"
        },
        "text": {
          "status": "generated",
          "div": "<div xmlns=\"http://www.w3.org/1999/xhtml\"><table class=\"hl7__ips\"><tr><td>Certification procedure</td><td><span class=\"nb\">21-Nov-2018</span></td><td>-</td></tr></table></div>"
        },
        "status": "completed",
        "performedDateTime": "2018-11-21",
        "subject": {
          "reference": "urn:uuid:",
          "display": "Maria Nohlmans"
        }
      }
    },
    {
      "fullUrl": "urn:uuid:ddd52c97-5002-4c8f-b2cd-99e424860614",
      "resource": {
        "resourceType": "Procedure",
        "id": "ddd52c97-5002-4c8f-b2cd-99e424860614",
        "meta": {
          "profile": [
            "http://hl7.org/fhir/uv/ips/StructureDefinition/Procedure-uv-ips"
          ]
        },
        "code": {
          "coding": [
            {
              "code": "315639002",
              "system": "http://snomed.info/sct",
              "display": "Initial patient assessment (procedure)"
            }
          ],
          "text": "Initial patient assessment"
        },
        "text": {
          "status": "generated",
          "div": "<div xmlns=\"http://www.w3.org/1999/xhtml\"><table class=\"hl7__ips\"><tr><td>Initial patient assessment</td><td><span class=\"nb\">21-Nov-2018</span></td><td>-</td></tr></table></div>"
        },
        "status": "completed",
        "performedDateTime": "2018-11-21",
        "subject": {
          "reference": "urn:uuid:",
          "display": "Maria Nohlmans"
        }
      }
    },
    {
      "fullUrl": "urn:uuid:31fe7620-f909-4311-b198-a4f6eedee544",
      "resource": {
        "resourceType": "Procedure",
        "id": "31fe7620-f909-4311-b198-a4f6eedee544",
        "meta": {
          "profile": [
            "http://hl7.org/fhir/uv/ips/StructureDefinition/Procedure-uv-ips"
          ]
        },
        "code": {
          "coding": [
            {
              "code": "370789001",
              "system": "http://snomed.info/sct",
              "display": "Development of individualized plan of care (procedure)"
            }
          ],
          "text": "Development of individualized plan of care"
        },
        "text": {
          "status": "generated",
          "div": "<div xmlns=\"http://www.w3.org/1999/xhtml\"><table class=\"hl7__ips\"><tr><td>Development of individualized plan of care</td><td><span class=\"nb\">21-Nov-2018</span></td><td>-</td></tr></table></div>"
        },
        "status": "completed",
        "performedDateTime": "2018-11-21",
        "subject": {
          "reference": "urn:uuid:",
          "display": "Maria Nohlmans"
        }
      }
    },
    {
      "fullUrl": "urn:uuid:648264c1-9a31-4e77-bdeb-e9847b7dc8ad",
      "resource": {
        "resourceType": "Procedure",
        "id": "648264c1-9a31-4e77-bdeb-e9847b7dc8ad",
        "meta": {
          "profile": [
            "http://hl7.org/fhir/uv/ips/StructureDefinition/Procedure-uv-ips"
          ]
        },
        "code": {
          "coding": [
            {
              "code": "711446003",
              "system": "http://snomed.info/sct",
              "display": "Transplantation of kidney regime (regime/therapy)"
            }
          ],
          "text": "Transplantation of kidney regime"
        },
        "reasonCode": [
          {
            "coding": [
              {
                "code": "161665007",
                "system": "http://snomed.info/sct",
                "display": "History of renal transplant (situation)"
              }
            ]
          }
        ],
        "text": {
          "status": "generated",
          "div": "<div xmlns=\"http://www.w3.org/1999/xhtml\"><table class=\"hl7__ips\"><tr><td>Transplantation of kidney regime</td><td><span class=\"nb\">22-Jul-2018</span></td><td>History of renal transplant (situation)</td></tr></table></div>"
        },
        "status": "completed",
        "performedDateTime": "2018-07-22",
        "subject": {
          "reference": "urn:uuid:",
          "display": "Maria Nohlmans"
        }
      }
    },
    {
      "fullUrl": "urn:uuid:71b13f42-8642-4a85-880d-a328dc0b7b75",
      "resource": {
        "resourceType": "Procedure",
        "id": "71b13f42-8642-4a85-880d-a328dc0b7b75",
        "meta": {
          "profile": [
            "http://hl7.org/fhir/uv/ips/StructureDefinition/Procedure-uv-ips"
          ]
        },
        "code": {
          "coding": [
            {
              "code": "70536003",
              "system": "http://snomed.info/sct",
              "display": "Transplant of kidney (procedure)"
            }
          ],
          "text": "Transplant of kidney"
        },
        "reasonCode": [
          {
            "coding": [
              {
                "code": "698306007",
                "system": "http://snomed.info/sct",
                "display": "Awaiting transplantation of kidney (situation)"
              }
            ]
          }
        ],
        "text": {
          "status": "generated",
          "div": "<div xmlns=\"http://www.w3.org/1999/xhtml\"><table class=\"hl7__ips\"><tr><td>Transplant of kidney</td><td><span class=\"nb\">16-Jul-2018</span></td><td>Awaiting transplantation of kidney (situation)</td></tr></table></div>"
        },
        "status": "completed",
        "performedDateTime": "2018-07-16",
        "subject": {
          "reference": "urn:uuid:",
          "display": "Maria Nohlmans"
        }
      }
    },
    {
      "fullUrl": "urn:uuid:a6441d96-a018-4e61-9fb9-2fb9e3d95102",
      "resource": {
        "resourceType": "Procedure",
        "id": "a6441d96-a018-4e61-9fb9-2fb9e3d95102",
        "meta": {
          "profile": [
            "http://hl7.org/fhir/uv/ips/StructureDefinition/Procedure-uv-ips"
          ]
        },
        "code": {
          "coding": [
            {
              "code": "428830000",
              "system": "http://snomed.info/sct",
              "display": "Pretransplant evaluation of kidney recipient (procedure)"
            }
          ],
          "text": "Pretransplant evaluation of kidney recipient"
        },
        "reasonCode": [
          {
            "coding": [
              {
                "code": "698306007",
                "system": "http://snomed.info/sct",
                "display": "Awaiting transplantation of kidney (situation)"
              }
            ]
          }
        ],
        "text": {
          "status": "generated",
          "div": "<div xmlns=\"http://www.w3.org/1999/xhtml\"><table class=\"hl7__ips\"><tr><td>Pretransplant evaluation of kidney recipient</td><td><span class=\"nb\">16-Jul-2018</span></td><td>Awaiting transplantation of kidney (situation)</td></tr></table></div>"
        },
        "status": "completed",
        "performedDateTime": "2018-07-16",
        "subject": {
          "reference": "urn:uuid:",
          "display": "Maria Nohlmans"
        }
      }
    },
    {
      "fullUrl": "urn:uuid:23cca861-0c05-46aa-b450-f85108f73237",
      "resource": {
        "resourceType": "Procedure",
        "id": "23cca861-0c05-46aa-b450-f85108f73237",
        "meta": {
          "profile": [
            "http://hl7.org/fhir/uv/ips/StructureDefinition/Procedure-uv-ips"
          ]
        },
        "code": {
          "coding": [
            {
              "code": "763302001",
              "system": "http://snomed.info/sct",
              "display": "Assessment using Alcohol Use Disorders Identification Test - Consumption (procedure)"
            }
          ],
          "text": "Assessment using AUDIT-C (Alcohol Use Disorders Identification Test - Consumption)"
        },
        "text": {
          "status": "generated",
          "div": "<div xmlns=\"http://www.w3.org/1999/xhtml\"><table class=\"hl7__ips\"><tr><td>Assessment using AUDIT-C (Alcohol Use Disorders Identification Test - Consumption)</td><td><span class=\"nb\">03-Jan-2018</span></td><td>-</td></tr></table></div>"
        },
        "status": "completed",
        "performedDateTime": "2018-01-03",
        "subject": {
          "reference": "urn:uuid:",
          "display": "Maria Nohlmans"
        }
      }
    },
    {
      "fullUrl": "urn:uuid:f6421605-6fbd-43ee-81ab-e75a111b58a2",
      "resource": {
        "resourceType": "Procedure",
        "id": "f6421605-6fbd-43ee-81ab-e75a111b58a2",
        "meta": {
          "profile": [
            "http://hl7.org/fhir/uv/ips/StructureDefinition/Procedure-uv-ips"
          ]
        },
        "code": {
          "coding": [
            {
              "code": "710841007",
              "system": "http://snomed.info/sct",
              "display": "Assessment of anxiety (procedure)"
            }
          ],
          "text": "Assessment of anxiety"
        },
        "text": {
          "status": "generated",
          "div": "<div xmlns=\"http://www.w3.org/1999/xhtml\"><table class=\"hl7__ips\"><tr><td>Assessment of anxiety</td><td><span class=\"nb\">08-Feb-2017</span></td><td>-</td></tr></table></div>"
        },
        "status": "completed",
        "performedDateTime": "2017-02-08",
        "subject": {
          "reference": "urn:uuid:",
          "display": "Maria Nohlmans"
        }
      }
    },
    {
      "fullUrl": "urn:uuid:d1145436-c6d2-45b8-8085-39f70599d958",
      "resource": {
        "resourceType": "AllergyIntolerance",
        "id": "d1145436-c6d2-45b8-8085-39f70599d958",
        "meta": {
          "profile": [
            "http://hl7.eu/fhir/eps/StructureDefinition/allergyIntolerance-eu-eps"
          ]
        },
        "code": {
          "text": ""
        },
        "clinicalStatus": {
          "coding": [
            {
              "code": "active",
              "system": "http://terminology.hl7.org/CodeSystem/allergyintolerance-clinical"
            }
          ]
        },
        "text": {
          "status": "generated",
          "div": "<div xmlns=\"http://www.w3.org/1999/xhtml\"><table class=\"hl7__ips\"><tr><th>Allergy/Intolerance</th><th>Onset Date</th><th>Status</th><th>Type</th><th>Reaction</th></tr><tr><td></td><td>?</td><td>active</td><td>?</td><td></td></tr></table></div>"
        },
        "verificationStatus": {
          "coding": [
            {
              "code": "confirmed",
              "system": "http://terminology.hl7.org/CodeSystem/allergyintolerance-verification"
            }
          ]
        },
        "patient": {
          "reference": "urn:uuid:457f460b-adcb-405a-b68d-42e4bb28c426",
          "display": "Maria Nohlmans"
        },
        "_onsetDateTime": {
          "extension": [
            {
              "url": "http://hl7.org/fhir/StructureDefinition/data-absent-reason",
              "valueCode": "unknown"
            }
          ]
        }
      }
    },
    {
      "fullUrl": "urn:uuid:547f62cd-f2ff-4562-9f58-e4e11cd56f2b",
      "resource": {
        "resourceType": "CarePlan",
        "id": "547f62cd-f2ff-4562-9f58-e4e11cd56f2b",
        "category": [
          {
            "coding": [
              {
                "code": "assess-plan",
                "system": "http://terminology.hl7.org/CodeSystem/care-plan-category",
                "display": "Assessment and Plan"
              }
            ]
          }
        ],
        "activity": [
          {
            "detail": {
              "code": {
                "coding": [
                  {
                    "code": "736372004",
                    "system": "http://snomed.info/sct",
                    "display": "Discharge care plan (record artifact)"
                  }
                ]
              },
              "status": "unknown",
              "description": "Discharge care plan",
              "kind": "Appointment"
            }
          }
        ],
        "period": {
          "start": "2022-07-25"
        },
        "text": {
          "status": "generated",
          "div": "<div xmlns=\"http://www.w3.org/1999/xhtml\"><table class=\"hl7__ips first25\"><tr><th>Active Planned Care / Goals</th><th>Start Date</th><th>Reason</th></tr><tr><td>Discharge care plan</td><td><span class=\"nb\">25-Jul-2022</span></td><td>-</td></tr></table></div>"
        },
        "status": "active",
        "intent": "plan",
        "subject": {
          "reference": "urn:uuid:457f460b-adcb-405a-b68d-42e4bb28c426",
          "display": "Maria Nohlmans"
        }
      }
    },
    {
      "fullUrl": "urn:uuid:f1d73439-801b-46fe-9a08-d194dd520f14",
      "resource": {
        "resourceType": "CarePlan",
        "id": "f1d73439-801b-46fe-9a08-d194dd520f14",
        "category": [
          {
            "coding": [
              {
                "code": "assess-plan",
                "system": "http://terminology.hl7.org/CodeSystem/care-plan-category",
                "display": "Assessment and Plan"
              }
            ]
          }
        ],
        "activity": [
          {
            "detail": {
              "code": {
                "coding": [
                  {
                    "code": "734163000",
                    "system": "http://snomed.info/sct",
                    "display": "Care plan (record artifact)"
                  }
                ]
              },
              "status": "unknown",
              "description": "Care plan",
              "kind": "Appointment"
            }
          }
        ],
        "period": {
          "start": "2018-07-16"
        },
        "text": {
          "status": "generated",
          "div": "<div xmlns=\"http://www.w3.org/1999/xhtml\"><table class=\"hl7__ips first25\"><tr><th>Active Planned Care / Goals</th><th>Start Date</th><th>Reason</th></tr><tr><td>Care plan</td><td><span class=\"nb\">16-Jul-2018</span></td><td>-</td></tr></table></div>"
        },
        "status": "active",
        "intent": "plan",
        "subject": {
          "reference": "urn:uuid:457f460b-adcb-405a-b68d-42e4bb28c426",
          "display": "Maria Nohlmans"
        }
      }
    },
    {
      "fullUrl": "urn:uuid:954a4ebe-5272-474c-bd83-3e6bcb2706e3",
      "resource": {
        "resourceType": "CarePlan",
        "id": "954a4ebe-5272-474c-bd83-3e6bcb2706e3",
        "category": [
          {
            "coding": [
              {
                "code": "assess-plan",
                "system": "http://terminology.hl7.org/CodeSystem/care-plan-category",
                "display": "Assessment and Plan"
              }
            ]
          }
        ],
        "activity": [
          {
            "detail": {
              "code": {
                "coding": [
                  {
                    "code": "736690008",
                    "system": "http://snomed.info/sct",
                    "display": "Dialysis care plan (record artifact)"
                  }
                ]
              },
              "status": "unknown",
              "description": "Dialysis care plan",
              "kind": "Appointment"
            }
          }
        ],
        "period": {
          "start": "2012-04-21"
        },
        "text": {
          "status": "generated",
          "div": "<div xmlns=\"http://www.w3.org/1999/xhtml\"><table class=\"hl7__ips first25\"><tr><th>Active Planned Care / Goals</th><th>Start Date</th><th>Reason</th></tr><tr><td>Dialysis care plan</td><td><span class=\"nb\">21-Apr-2012</span></td><td>-</td></tr></table></div>"
        },
        "status": "active",
        "intent": "plan",
        "subject": {
          "reference": "urn:uuid:457f460b-adcb-405a-b68d-42e4bb28c426",
          "display": "Maria Nohlmans"
        }
      }
    },
    {
      "fullUrl": "urn:uuid:5a6ccf06-6e64-42b8-b737-769c8f785504",
      "resource": {
        "resourceType": "CarePlan",
        "id": "5a6ccf06-6e64-42b8-b737-769c8f785504",
        "category": [
          {
            "coding": [
              {
                "code": "assess-plan",
                "system": "http://terminology.hl7.org/CodeSystem/care-plan-category",
                "display": "Assessment and Plan"
              }
            ]
          }
        ],
        "activity": [
          {
            "detail": {
              "code": {
                "coding": [
                  {
                    "code": "443402002",
                    "system": "http://snomed.info/sct",
                    "display": "Lifestyle education regarding hypertension (procedure)"
                  }
                ]
              },
              "reasonCode": [
                {
                  "coding": [
                    {
                      "code": "59621000",
                      "system": "http://snomed.info/sct",
                      "display": "Essential hypertension (disorder)"
                    }
                  ]
                }
              ],
              "status": "unknown",
              "description": "Lifestyle education regarding hypertension",
              "kind": "Appointment"
            }
          }
        ],
        "period": {
          "start": "1998-12-16"
        },
        "goal": [
          {
            "reference": "urn:uuid:6f16df9c-2761-4658-8432-0414e52eff7f"
          },
          {
            "reference": "urn:uuid:1c9196ad-eb63-491d-a44f-7b6943d68f0f"
          }
        ],
        "text": {
          "status": "generated",
          "div": "<div xmlns=\"http://www.w3.org/1999/xhtml\"><table class=\"hl7__ips first25\"><tr><th>Active Planned Care / Goals</th><th>Start Date</th><th>Reason</th></tr><tr><td>Lifestyle education regarding hypertension</td><td><span class=\"nb\">16-Dec-1998</span></td><td>Essential hypertension (disorder)</td></tr><tr><td><ul><li>Maintain blood pressure below 130/80 mmHg to reduce cardiovascular and renal risk.</li><li>Adopt dietary changes, increase physical activity, and reduce sodium intake to support blood pressure control.</li></ul></td><td></td><td></td></tr></table></div>"
        },
        "status": "active",
        "intent": "plan",
        "subject": {
          "reference": "urn:uuid:457f460b-adcb-405a-b68d-42e4bb28c426",
          "display": "Maria Nohlmans"
        }
      }
    },
    {
      "fullUrl": "urn:uuid:09bc8237-2e6c-444a-b91d-76f7e152a80d",
      "resource": {
        "resourceType": "CarePlan",
        "id": "09bc8237-2e6c-444a-b91d-76f7e152a80d",
        "category": [
          {
            "coding": [
              {
                "code": "assess-plan",
                "system": "http://terminology.hl7.org/CodeSystem/care-plan-category",
                "display": "Assessment and Plan"
              }
            ]
          }
        ],
        "activity": [
          {
            "detail": {
              "code": {
                "coding": [
                  {
                    "code": "698360004",
                    "system": "http://snomed.info/sct",
                    "display": "Diabetes self management plan (qualifier value)"
                  }
                ]
              },
              "reasonCode": [
                {
                  "coding": [
                    {
                      "code": "15777000",
                      "system": "http://snomed.info/sct",
                      "display": "Prediabetes"
                    }
                  ]
                }
              ],
              "status": "unknown",
              "description": "Diabetes self management plan",
              "kind": "Appointment"
            }
          }
        ],
        "period": {
          "start": "1993-11-17"
        },
        "goal": [
          {
            "reference": "urn:uuid:75532d08-cc93-4f6e-a311-aa7c05e89c5f"
          },
          {
            "reference": "urn:uuid:9ffedf0a-2f67-4cb1-a7b3-ecc97db9fe34"
          },
          {
            "reference": "urn:uuid:0e64e2d6-66a4-4188-bca1-3e9895a16e2a"
          }
        ],
        "text": {
          "status": "generated",
          "div": "<div xmlns=\"http://www.w3.org/1999/xhtml\"><table class=\"hl7__ips first25\"><tr><th>Active Planned Care / Goals</th><th>Start Date</th><th>Reason</th></tr><tr><td>Diabetes self management plan</td><td><span class=\"nb\">17-Nov-1993</span></td><td>Prediabetes</td></tr><tr><td><ul><li>Patient will implement and maintain a diabetes self-management plan to delay or prevent progression to type 2 diabetes.</li><li>Patient will achieve and maintain a weight loss of at least 5% of baseline body weight to improve insulin sensitivity.</li><li>Patient will maintain blood pressure below 130/80 mmHg to reduce cardiovascular risk.</li></ul></td><td></td><td></td></tr></table></div>"
        },
        "status": "active",
        "intent": "plan",
        "subject": {
          "reference": "urn:uuid:457f460b-adcb-405a-b68d-42e4bb28c426",
          "display": "Maria Nohlmans"
        }
      }
    },
    {
      "fullUrl": "urn:uuid:49333837-3027-4baa-8dd6-016680fa900a",
      "resource": {
        "resourceType": "ImmunizationRecommendation",
        "id": "49333837-3027-4baa-8dd6-016680fa900a",
        "recommendation": [
          {
            "vaccineCode": [
              {
                "coding": [
                  {
                    "code": "1181000221105",
                    "system": "http://snomed.info/sct",
                    "display": "Vaccine product containing only Influenza virus antigen (medicinal product)"
                  }
                ]
              }
            ],
            "dateCriterion": [
              {
                "code": {
                  "coding": [
                    {
                      "code": "30980-7",
                      "system": "http://loinc.org",
                      "display": "Date vaccine due"
                    }
                  ]
                },
                "value": "2025-10-01"
              }
            ],
            "targetDisease": {
              "coding": [
                {
                  "code": "6142004",
                  "system": "http://snomed.info/sct",
                  "display": "Influenza (disorder)"
                }
              ]
            },
            "series": "Annual seasonal influenza vaccination",
            "forecastStatus": {
              "coding": [
                {
                  "code": "due",
                  "system": "http://terminology.hl7.org/CodeSystem/immunization-recommendation-status",
                  "display": "Due"
                }
              ]
            }
          }
        ],
        "text": {
          "status": "generated",
          "div": "<div xmlns=\"http://www.w3.org/1999/xhtml\"><table class=\"hl7__ips\"><tr><td>Vaccine product containing only Influenza virus antigen (medicinal product)</td><td><span class=\"nb\">01-Oct-2025</span></td><td>Annual seasonal influenza vaccination</td></tr></table></div>"
        },
        "date": "2025-10-22",
        "patient": {
          "reference": "urn:uuid:457f460b-adcb-405a-b68d-42e4bb28c426",
          "display": "Maria Nohlmans"
        }
      }
    },
    {
      "fullUrl": "urn:uuid:431c1fb1-2241-4172-a62f-074a36ebee90",
      "resource": {
        "resourceType": "Observation",
        "id": "431c1fb1-2241-4172-a62f-074a36ebee90",
        "meta": {
          "profile": [
            "http://hl7.org/fhir/StructureDefinition/vitalsigns"
          ]
        },
        "category": [
          {
            "coding": [
              {
                "system": "http://terminology.hl7.org/CodeSystem/observation-category",
                "code": "vital-signs",
                "display": "Vital Signs"
              }
            ]
          }
        ],
        "valueQuantity": {
          "value": 172,
          "code": "cm",
          "unit": "cm"
        },
        "text": {
          "status": "generated",
          "div": "<div xmlns=\"http://www.w3.org/1999/xhtml\"><table class=\"hl7__ips\"><tr><th>Vital Sign</th><th>Date</th><th>Measurement</th></tr><tr><td>Body Height</td><td>21-May-2025</td><td>172 cm</td></tr></table></div>"
        },
        "status": "final",
        "code": {
          "coding": [
            {
              "code": "$8302-2",
              "system": "http://loinc.org",
              "display": "Body Height"
            }
          ]
        },
        "subject": {
          "reference": "urn:uuid:457f460b-adcb-405a-b68d-42e4bb28c426",
          "display": "Maria Nohlmans"
        },
        "effectiveDateTime": "2025-05-21"
      }
    },
    {
      "fullUrl": "urn:uuid:9cd2c447-5ab6-482a-81b3-eaf33ff8b863",
      "resource": {
        "resourceType": "Observation",
        "id": "9cd2c447-5ab6-482a-81b3-eaf33ff8b863",
        "meta": {
          "profile": [
            "http://hl7.org/fhir/StructureDefinition/vitalsigns"
          ]
        },
        "category": [
          {
            "coding": [
              {
                "system": "http://terminology.hl7.org/CodeSystem/observation-category",
                "code": "vital-signs",
                "display": "Vital Signs"
              }
            ]
          }
        ],
        "valueQuantity": {
          "value": 0,
          "code": "{score}",
          "unit": "{score}"
        },
        "text": {
          "status": "generated",
          "div": "<div xmlns=\"http://www.w3.org/1999/xhtml\"><table class=\"hl7__ips\"><tr><th>Vital Sign</th><th>Date</th><th>Measurement</th></tr><tr><td>Pain severity - 0-10 verbal numeric rating [Score] - Reported</td><td>21-May-2025</td><td>0 {score}</td></tr></table></div>"
        },
        "status": "final",
        "code": {
          "coding": [
            {
              "code": "$72514-3",
              "system": "http://loinc.org",
              "display": "Pain severity - 0-10 verbal numeric rating [Score] - Reported"
            }
          ]
        },
        "subject": {
          "reference": "urn:uuid:457f460b-adcb-405a-b68d-42e4bb28c426",
          "display": "Maria Nohlmans"
        },
        "effectiveDateTime": "2025-05-21"
      }
    },
    {
      "fullUrl": "urn:uuid:f398ee00-c4cf-443e-8a18-c5f6105c2d0b",
      "resource": {
        "resourceType": "Observation",
        "id": "f398ee00-c4cf-443e-8a18-c5f6105c2d0b",
        "meta": {
          "profile": [
            "http://hl7.org/fhir/StructureDefinition/vitalsigns"
          ]
        },
        "category": [
          {
            "coding": [
              {
                "system": "http://terminology.hl7.org/CodeSystem/observation-category",
                "code": "vital-signs",
                "display": "Vital Signs"
              }
            ]
          }
        ],
        "valueQuantity": {
          "value": 89.1,
          "code": "kg",
          "unit": "kg"
        },
        "text": {
          "status": "generated",
          "div": "<div xmlns=\"http://www.w3.org/1999/xhtml\"><table class=\"hl7__ips\"><tr><th>Vital Sign</th><th>Date</th><th>Measurement</th></tr><tr><td>Body Weight</td><td>21-May-2025</td><td>89.1 kg</td></tr></table></div>"
        },
        "status": "final",
        "code": {
          "coding": [
            {
              "code": "$29463-7",
              "system": "http://loinc.org",
              "display": "Body Weight"
            }
          ]
        },
        "subject": {
          "reference": "urn:uuid:457f460b-adcb-405a-b68d-42e4bb28c426",
          "display": "Maria Nohlmans"
        },
        "effectiveDateTime": "2025-05-21"
      }
    },
    {
      "fullUrl": "urn:uuid:fd51f51b-c2ca-4e1b-b284-85747bcf3aff",
      "resource": {
        "resourceType": "Observation",
        "id": "fd51f51b-c2ca-4e1b-b284-85747bcf3aff",
        "meta": {
          "profile": [
            "http://hl7.org/fhir/StructureDefinition/vitalsigns"
          ]
        },
        "category": [
          {
            "coding": [
              {
                "system": "http://terminology.hl7.org/CodeSystem/observation-category",
                "code": "vital-signs",
                "display": "Vital Signs"
              }
            ]
          }
        ],
        "valueQuantity": {
          "value": 30.1,
          "code": "kg/m2",
          "unit": "kg/m2"
        },
        "text": {
          "status": "generated",
          "div": "<div xmlns=\"http://www.w3.org/1999/xhtml\"><table class=\"hl7__ips\"><tr><th>Vital Sign</th><th>Date</th><th>Measurement</th></tr><tr><td>Body mass index (BMI) [Ratio]</td><td>21-May-2025</td><td>30.1 kg/m2</td></tr></table></div>"
        },
        "status": "final",
        "code": {
          "coding": [
            {
              "code": "$39156-5",
              "system": "http://loinc.org",
              "display": "Body mass index (BMI) [Ratio]"
            }
          ]
        },
        "subject": {
          "reference": "urn:uuid:457f460b-adcb-405a-b68d-42e4bb28c426",
          "display": "Maria Nohlmans"
        },
        "effectiveDateTime": "2025-05-21"
      }
    },
    {
      "fullUrl": "urn:uuid:dcd59adb-0e6e-49c3-8255-8a75ce883bc3",
      "resource": {
        "resourceType": "Observation",
        "id": "dcd59adb-0e6e-49c3-8255-8a75ce883bc3",
        "meta": {
          "profile": [
            "http://hl7.org/fhir/StructureDefinition/vitalsigns"
          ]
        },
        "category": [
          {
            "coding": [
              {
                "system": "http://terminology.hl7.org/CodeSystem/observation-category",
                "code": "vital-signs",
                "display": "Vital Signs"
              }
            ]
          }
        ],
        "valueQuantity": {
          "value": 95,
          "code": "mm[Hg]",
          "unit": "mm[Hg]"
        },
        "text": {
          "status": "generated",
          "div": "<div xmlns=\"http://www.w3.org/1999/xhtml\"><table class=\"hl7__ips\"><tr><th>Vital Sign</th><th>Date</th><th>Measurement</th></tr><tr><td>Diastolic Blood Pressure</td><td>21-May-2025</td><td>95 mm[Hg]</td></tr></table></div>"
        },
        "status": "final",
        "code": {
          "coding": [
            {
              "code": "$8462-4",
              "system": "http://loinc.org",
              "display": "Diastolic Blood Pressure"
            }
          ]
        },
        "subject": {
          "reference": "urn:uuid:457f460b-adcb-405a-b68d-42e4bb28c426",
          "display": "Maria Nohlmans"
        },
        "effectiveDateTime": "2025-05-21"
      }
    },
    {
      "fullUrl": "urn:uuid:017122ca-4086-48dd-a0cc-487adbcca5b1",
      "resource": {
        "resourceType": "Observation",
        "id": "017122ca-4086-48dd-a0cc-487adbcca5b1",
        "meta": {
          "profile": [
            "http://hl7.org/fhir/StructureDefinition/vitalsigns"
          ]
        },
        "category": [
          {
            "coding": [
              {
                "system": "http://terminology.hl7.org/CodeSystem/observation-category",
                "code": "vital-signs",
                "display": "Vital Signs"
              }
            ]
          }
        ],
        "valueQuantity": {
          "value": 134,
          "code": "mm[Hg]",
          "unit": "mm[Hg]"
        },
        "text": {
          "status": "generated",
          "div": "<div xmlns=\"http://www.w3.org/1999/xhtml\"><table class=\"hl7__ips\"><tr><th>Vital Sign</th><th>Date</th><th>Measurement</th></tr><tr><td>Systolic Blood Pressure</td><td>21-May-2025</td><td>134 mm[Hg]</td></tr></table></div>"
        },
        "status": "final",
        "code": {
          "coding": [
            {
              "code": "$8480-6",
              "system": "http://loinc.org",
              "display": "Systolic Blood Pressure"
            }
          ]
        },
        "subject": {
          "reference": "urn:uuid:457f460b-adcb-405a-b68d-42e4bb28c426",
          "display": "Maria Nohlmans"
        },
        "effectiveDateTime": "2025-05-21"
      }
    },
    {
      "fullUrl": "urn:uuid:c7a08b70-1731-4a1b-9c95-af617a975eb6",
      "resource": {
        "resourceType": "Observation",
        "id": "c7a08b70-1731-4a1b-9c95-af617a975eb6",
        "meta": {
          "profile": [
            "http://hl7.org/fhir/StructureDefinition/vitalsigns"
          ]
        },
        "category": [
          {
            "coding": [
              {
                "system": "http://terminology.hl7.org/CodeSystem/observation-category",
                "code": "vital-signs",
                "display": "Vital Signs"
              }
            ]
          }
        ],
        "valueQuantity": {
          "value": 80,
          "code": "/min",
          "unit": "/min"
        },
        "text": {
          "status": "generated",
          "div": "<div xmlns=\"http://www.w3.org/1999/xhtml\"><table class=\"hl7__ips\"><tr><th>Vital Sign</th><th>Date</th><th>Measurement</th></tr><tr><td>Heart rate</td><td>21-May-2025</td><td>80 /min</td></tr></table></div>"
        },
        "status": "final",
        "code": {
          "coding": [
            {
              "code": "$8867-4",
              "system": "http://loinc.org",
              "display": "Heart rate"
            }
          ]
        },
        "subject": {
          "reference": "urn:uuid:457f460b-adcb-405a-b68d-42e4bb28c426",
          "display": "Maria Nohlmans"
        },
        "effectiveDateTime": "2025-05-21"
      }
    },
    {
      "fullUrl": "urn:uuid:d724a90f-d0e0-4a08-a487-e842774f82fc",
      "resource": {
        "resourceType": "Observation",
        "id": "d724a90f-d0e0-4a08-a487-e842774f82fc",
        "meta": {
          "profile": [
            "http://hl7.org/fhir/StructureDefinition/vitalsigns"
          ]
        },
        "category": [
          {
            "coding": [
              {
                "system": "http://terminology.hl7.org/CodeSystem/observation-category",
                "code": "vital-signs",
                "display": "Vital Signs"
              }
            ]
          }
        ],
        "valueQuantity": {
          "value": 13,
          "code": "/min",
          "unit": "/min"
        },
        "text": {
          "status": "generated",
          "div": "<div xmlns=\"http://www.w3.org/1999/xhtml\"><table class=\"hl7__ips\"><tr><th>Vital Sign</th><th>Date</th><th>Measurement</th></tr><tr><td>Respiratory rate</td><td>21-May-2025</td><td>13 /min</td></tr></table></div>"
        },
        "status": "final",
        "code": {
          "coding": [
            {
              "code": "$9279-1",
              "system": "http://loinc.org",
              "display": "Respiratory rate"
            }
          ]
        },
        "subject": {
          "reference": "urn:uuid:457f460b-adcb-405a-b68d-42e4bb28c426",
          "display": "Maria Nohlmans"
        },
        "effectiveDateTime": "2025-05-21"
      }
    },
    {
      "fullUrl": "urn:uuid:6cde7883-5853-4a28-942b-afb296d97c17",
      "resource": {
        "resourceType": "Observation",
        "id": "6cde7883-5853-4a28-942b-afb296d97c17",
        "meta": {
          "profile": [
            "http://hl7.org/fhir/StructureDefinition/vitalsigns"
          ]
        },
        "category": [
          {
            "coding": [
              {
                "system": "http://terminology.hl7.org/CodeSystem/observation-category",
                "code": "vital-signs",
                "display": "Vital Signs"
              }
            ]
          }
        ],
        "valueQuantity": {
          "value": 172,
          "code": "cm",
          "unit": "cm"
        },
        "text": {
          "status": "generated",
          "div": "<div xmlns=\"http://www.w3.org/1999/xhtml\"><table class=\"hl7__ips\"><tr><th>Vital Sign</th><th>Date</th><th>Measurement</th></tr><tr><td>Body Height</td><td>22-Jan-2025</td><td>172 cm</td></tr></table></div>"
        },
        "status": "final",
        "code": {
          "coding": [
            {
              "code": "$8302-2",
              "system": "http://loinc.org",
              "display": "Body Height"
            }
          ]
        },
        "subject": {
          "reference": "urn:uuid:457f460b-adcb-405a-b68d-42e4bb28c426",
          "display": "Maria Nohlmans"
        },
        "effectiveDateTime": "2025-01-22"
      }
    },
    {
      "fullUrl": "urn:uuid:5f3dd673-e5cc-4d74-a3ac-86321c99f3d1",
      "resource": {
        "resourceType": "Observation",
        "id": "5f3dd673-e5cc-4d74-a3ac-86321c99f3d1",
        "meta": {
          "profile": [
            "http://hl7.org/fhir/StructureDefinition/vitalsigns"
          ]
        },
        "category": [
          {
            "coding": [
              {
                "system": "http://terminology.hl7.org/CodeSystem/observation-category",
                "code": "vital-signs",
                "display": "Vital Signs"
              }
            ]
          }
        ],
        "valueQuantity": {
          "value": 1,
          "code": "{score}",
          "unit": "{score}"
        },
        "text": {
          "status": "generated",
          "div": "<div xmlns=\"http://www.w3.org/1999/xhtml\"><table class=\"hl7__ips\"><tr><th>Vital Sign</th><th>Date</th><th>Measurement</th></tr><tr><td>Pain severity - 0-10 verbal numeric rating [Score] - Reported</td><td>22-Jan-2025</td><td>1 {score}</td></tr></table></div>"
        },
        "status": "final",
        "code": {
          "coding": [
            {
              "code": "$72514-3",
              "system": "http://loinc.org",
              "display": "Pain severity - 0-10 verbal numeric rating [Score] - Reported"
            }
          ]
        },
        "subject": {
          "reference": "urn:uuid:457f460b-adcb-405a-b68d-42e4bb28c426",
          "display": "Maria Nohlmans"
        },
        "effectiveDateTime": "2025-01-22"
      }
    },
    {
      "fullUrl": "urn:uuid:f4a31d04-65a9-4de6-81b9-3aad1a2d6099",
      "resource": {
        "resourceType": "Observation",
        "id": "f4a31d04-65a9-4de6-81b9-3aad1a2d6099",
        "meta": {
          "profile": [
            "http://hl7.org/fhir/StructureDefinition/vitalsigns"
          ]
        },
        "category": [
          {
            "coding": [
              {
                "system": "http://terminology.hl7.org/CodeSystem/observation-category",
                "code": "vital-signs",
                "display": "Vital Signs"
              }
            ]
          }
        ],
        "valueQuantity": {
          "value": 89.1,
          "code": "kg",
          "unit": "kg"
        },
        "text": {
          "status": "generated",
          "div": "<div xmlns=\"http://www.w3.org/1999/xhtml\"><table class=\"hl7__ips\"><tr><th>Vital Sign</th><th>Date</th><th>Measurement</th></tr><tr><td>Body Weight</td><td>22-Jan-2025</td><td>89.1 kg</td></tr></table></div>"
        },
        "status": "final",
        "code": {
          "coding": [
            {
              "code": "$29463-7",
              "system": "http://loinc.org",
              "display": "Body Weight"
            }
          ]
        },
        "subject": {
          "reference": "urn:uuid:457f460b-adcb-405a-b68d-42e4bb28c426",
          "display": "Maria Nohlmans"
        },
        "effectiveDateTime": "2025-01-22"
      }
    },
    {
      "fullUrl": "urn:uuid:5f76a5e1-4d98-418a-a851-c1201fff57c7",
      "resource": {
        "resourceType": "Observation",
        "id": "5f76a5e1-4d98-418a-a851-c1201fff57c7",
        "meta": {
          "profile": [
            "http://hl7.org/fhir/StructureDefinition/vitalsigns"
          ]
        },
        "category": [
          {
            "coding": [
              {
                "system": "http://terminology.hl7.org/CodeSystem/observation-category",
                "code": "vital-signs",
                "display": "Vital Signs"
              }
            ]
          }
        ],
        "valueQuantity": {
          "value": 30.1,
          "code": "kg/m2",
          "unit": "kg/m2"
        },
        "text": {
          "status": "generated",
          "div": "<div xmlns=\"http://www.w3.org/1999/xhtml\"><table class=\"hl7__ips\"><tr><th>Vital Sign</th><th>Date</th><th>Measurement</th></tr><tr><td>Body mass index (BMI) [Ratio]</td><td>22-Jan-2025</td><td>30.1 kg/m2</td></tr></table></div>"
        },
        "status": "final",
        "code": {
          "coding": [
            {
              "code": "$39156-5",
              "system": "http://loinc.org",
              "display": "Body mass index (BMI) [Ratio]"
            }
          ]
        },
        "subject": {
          "reference": "urn:uuid:457f460b-adcb-405a-b68d-42e4bb28c426",
          "display": "Maria Nohlmans"
        },
        "effectiveDateTime": "2025-01-22"
      }
    },
    {
      "fullUrl": "urn:uuid:4a7aaf02-5692-4d7f-bb0c-3795f359b2fa",
      "resource": {
        "resourceType": "Observation",
        "id": "4a7aaf02-5692-4d7f-bb0c-3795f359b2fa",
        "meta": {
          "profile": [
            "http://hl7.org/fhir/StructureDefinition/vitalsigns"
          ]
        },
        "category": [
          {
            "coding": [
              {
                "system": "http://terminology.hl7.org/CodeSystem/observation-category",
                "code": "vital-signs",
                "display": "Vital Signs"
              }
            ]
          }
        ],
        "valueQuantity": {
          "value": 86,
          "code": "mm[Hg]",
          "unit": "mm[Hg]"
        },
        "text": {
          "status": "generated",
          "div": "<div xmlns=\"http://www.w3.org/1999/xhtml\"><table class=\"hl7__ips\"><tr><th>Vital Sign</th><th>Date</th><th>Measurement</th></tr><tr><td>Diastolic Blood Pressure</td><td>22-Jan-2025</td><td>86 mm[Hg]</td></tr></table></div>"
        },
        "status": "final",
        "code": {
          "coding": [
            {
              "code": "$8462-4",
              "system": "http://loinc.org",
              "display": "Diastolic Blood Pressure"
            }
          ]
        },
        "subject": {
          "reference": "urn:uuid:457f460b-adcb-405a-b68d-42e4bb28c426",
          "display": "Maria Nohlmans"
        },
        "effectiveDateTime": "2025-01-22"
      }
    },
    {
      "fullUrl": "urn:uuid:10f3a2d8-2922-4f65-ab90-14fcb30e7672",
      "resource": {
        "resourceType": "Observation",
        "id": "10f3a2d8-2922-4f65-ab90-14fcb30e7672",
        "meta": {
          "profile": [
            "http://hl7.org/fhir/StructureDefinition/vitalsigns"
          ]
        },
        "category": [
          {
            "coding": [
              {
                "system": "http://terminology.hl7.org/CodeSystem/observation-category",
                "code": "vital-signs",
                "display": "Vital Signs"
              }
            ]
          }
        ],
        "valueQuantity": {
          "value": 128,
          "code": "mm[Hg]",
          "unit": "mm[Hg]"
        },
        "text": {
          "status": "generated",
          "div": "<div xmlns=\"http://www.w3.org/1999/xhtml\"><table class=\"hl7__ips\"><tr><th>Vital Sign</th><th>Date</th><th>Measurement</th></tr><tr><td>Systolic Blood Pressure</td><td>22-Jan-2025</td><td>128 mm[Hg]</td></tr></table></div>"
        },
        "status": "final",
        "code": {
          "coding": [
            {
              "code": "$8480-6",
              "system": "http://loinc.org",
              "display": "Systolic Blood Pressure"
            }
          ]
        },
        "subject": {
          "reference": "urn:uuid:457f460b-adcb-405a-b68d-42e4bb28c426",
          "display": "Maria Nohlmans"
        },
        "effectiveDateTime": "2025-01-22"
      }
    },
    {
      "fullUrl": "urn:uuid:52f54ab9-530b-41df-8f31-02542764a219",
      "resource": {
        "resourceType": "Observation",
        "id": "52f54ab9-530b-41df-8f31-02542764a219",
        "meta": {
          "profile": [
            "http://hl7.org/fhir/StructureDefinition/vitalsigns"
          ]
        },
        "category": [
          {
            "coding": [
              {
                "system": "http://terminology.hl7.org/CodeSystem/observation-category",
                "code": "vital-signs",
                "display": "Vital Signs"
              }
            ]
          }
        ],
        "valueQuantity": {
          "value": 67,
          "code": "/min",
          "unit": "/min"
        },
        "text": {
          "status": "generated",
          "div": "<div xmlns=\"http://www.w3.org/1999/xhtml\"><table class=\"hl7__ips\"><tr><th>Vital Sign</th><th>Date</th><th>Measurement</th></tr><tr><td>Heart rate</td><td>22-Jan-2025</td><td>67 /min</td></tr></table></div>"
        },
        "status": "final",
        "code": {
          "coding": [
            {
              "code": "$8867-4",
              "system": "http://loinc.org",
              "display": "Heart rate"
            }
          ]
        },
        "subject": {
          "reference": "urn:uuid:457f460b-adcb-405a-b68d-42e4bb28c426",
          "display": "Maria Nohlmans"
        },
        "effectiveDateTime": "2025-01-22"
      }
    },
    {
      "fullUrl": "urn:uuid:62ea35ae-331c-44c7-9d30-6e3145718c2f",
      "resource": {
        "resourceType": "Observation",
        "id": "62ea35ae-331c-44c7-9d30-6e3145718c2f",
        "meta": {
          "profile": [
            "http://hl7.org/fhir/StructureDefinition/vitalsigns"
          ]
        },
        "category": [
          {
            "coding": [
              {
                "system": "http://terminology.hl7.org/CodeSystem/observation-category",
                "code": "vital-signs",
                "display": "Vital Signs"
              }
            ]
          }
        ],
        "valueQuantity": {
          "value": 13,
          "code": "/min",
          "unit": "/min"
        },
        "text": {
          "status": "generated",
          "div": "<div xmlns=\"http://www.w3.org/1999/xhtml\"><table class=\"hl7__ips\"><tr><th>Vital Sign</th><th>Date</th><th>Measurement</th></tr><tr><td>Respiratory rate</td><td>22-Jan-2025</td><td>13 /min</td></tr></table></div>"
        },
        "status": "final",
        "code": {
          "coding": [
            {
              "code": "$9279-1",
              "system": "http://loinc.org",
              "display": "Respiratory rate"
            }
          ]
        },
        "subject": {
          "reference": "urn:uuid:457f460b-adcb-405a-b68d-42e4bb28c426",
          "display": "Maria Nohlmans"
        },
        "effectiveDateTime": "2025-01-22"
      }
    },
    {
      "fullUrl": "urn:uuid:edc68494-cc7b-414f-b20d-77f8e8104c85",
      "resource": {
        "resourceType": "Observation",
        "id": "edc68494-cc7b-414f-b20d-77f8e8104c85",
        "meta": {
          "profile": [
            "http://hl7.eu/fhir/laboratory/StructureDefinition/Observation-resultslab-eu-lab"
          ]
        },
        "performer": [
          {
            "display": "The Central European Lab"
          }
        ],
        "category": [
          {
            "coding": [
              {
                "system": "http://terminology.hl7.org/CodeSystem/observation-category",
                "code": "laboratory"
              }
            ]
          }
        ],
        "code": {
          "coding": [
            {
              "code": "4548-4",
              "system": "http://loinc.org",
              "display": "Hemoglobin A1c/Hemoglobin.total in Blood"
            }
          ],
          "text": "Hemoglobin A1c/Hemoglobin.total in Blood"
        },
        "valueQuantity": {
          "system": "http://unitsofmeasure.org",
          "value": 3.3,
          "unit": "%",
          "code": "%"
        },
        "referenceRange": [
          {
            "low": {
              "value": 4.5,
              "code": "%",
              "system": "http://unitsofmeasure.org"
            }
          },
          {
            "high": {
              "value": 6.4,
              "code": "%",
              "system": "http://unitsofmeasure.org"
            }
          }
        ],
        "interpretation": [
          {
            "coding": [
              {
                "code": "L",
                "system": "http://terminology.hl7.org/CodeSystem/v3-ObservationInterpretation",
                "display": "Low"
              }
            ]
          }
        ],
        "text": {
          "status": "generated",
          "div": "<div xmlns=\"http://www.w3.org/1999/xhtml\"><table class=\"hl7__eu__lab__report\"><tr><th>Test</th><th>21-May-2025</th><th>Reference&#xA0;Range</th><th>Unit</th></tr><tr><td>Hemoglobin A1c/Hemoglobin.total in Blood</td><td>3.3</td><td>4.5 - 6.4</td><td>L</td><td>%</td></tr></table></div>"
        },
        "status": "final",
        "subject": {
          "reference": "urn:uuid:457f460b-adcb-405a-b68d-42e4bb28c426",
          "display": "Maria Nohlmans"
        },
        "effectiveDateTime": "2025-05-21T11:02:39Z"
      }
    },
    {
      "fullUrl": "urn:uuid:3f465878-dca5-416e-98ec-36f0bd954e64",
      "resource": {
        "resourceType": "Observation",
        "id": "3f465878-dca5-416e-98ec-36f0bd954e64",
        "meta": {
          "profile": [
            "http://hl7.eu/fhir/laboratory/StructureDefinition/Observation-resultslab-eu-lab"
          ]
        },
        "performer": [
          {
            "display": "The Central European Lab"
          }
        ],
        "category": [
          {
            "coding": [
              {
                "system": "http://terminology.hl7.org/CodeSystem/observation-category",
                "code": "laboratory"
              }
            ]
          }
        ],
        "code": {
          "coding": [
            {
              "code": "2339-0",
              "system": "http://loinc.org",
              "display": "Glucose [Mass/volume] in Blood"
            }
          ],
          "text": "Glucose [Mass/volume] in Blood"
        },
        "valueQuantity": {
          "system": "http://unitsofmeasure.org",
          "value": 73.3,
          "unit": "mg/dL",
          "code": "mg/dL"
        },
        "referenceRange": [
          {
            "low": {
              "value": 70,
              "code": "mg/dL",
              "system": "http://unitsofmeasure.org"
            }
          },
          {
            "high": {
              "value": 140,
              "code": "mg/dL",
              "system": "http://unitsofmeasure.org"
            }
          }
        ],
        "text": {
          "status": "generated",
          "div": "<div xmlns=\"http://www.w3.org/1999/xhtml\"><table class=\"hl7__eu__lab__report\"><tr><th>Test</th><th>21-May-2025</th><th>Reference&#xA0;Range</th><th>Unit</th></tr><tr><td>Glucose [Mass/volume] in Blood</td><td>73.3</td><td>70 - 140</td><td></td><td>mg/dL</td></tr></table></div>"
        },
        "status": "final",
        "subject": {
          "reference": "urn:uuid:457f460b-adcb-405a-b68d-42e4bb28c426",
          "display": "Maria Nohlmans"
        },
        "effectiveDateTime": "2025-05-21T11:02:39Z"
      }
    },
    {
      "fullUrl": "urn:uuid:8b3efeda-8915-4d5c-a28a-a4580977d65d",
      "resource": {
        "resourceType": "Observation",
        "id": "8b3efeda-8915-4d5c-a28a-a4580977d65d",
        "meta": {
          "profile": [
            "http://hl7.eu/fhir/laboratory/StructureDefinition/Observation-resultslab-eu-lab"
          ]
        },
        "performer": [
          {
            "display": "The Central European Lab"
          }
        ],
        "category": [
          {
            "coding": [
              {
                "system": "http://terminology.hl7.org/CodeSystem/observation-category",
                "code": "laboratory"
              }
            ]
          }
        ],
        "code": {
          "coding": [
            {
              "code": "6299-2",
              "system": "http://loinc.org",
              "display": "Urea nitrogen [Mass/volume] in Blood"
            }
          ],
          "text": "Urea nitrogen [Mass/volume] in Blood"
        },
        "valueQuantity": {
          "system": "http://unitsofmeasure.org",
          "value": 16.6,
          "unit": "mg/dL",
          "code": "mg/dL"
        },
        "referenceRange": [
          {
            "low": {
              "value": 7,
              "code": "mg/dL",
              "system": "http://unitsofmeasure.org"
            }
          },
          {
            "high": {
              "value": 30,
              "code": "mg/dL",
              "system": "http://unitsofmeasure.org"
            }
          }
        ],
        "text": {
          "status": "generated",
          "div": "<div xmlns=\"http://www.w3.org/1999/xhtml\"><table class=\"hl7__eu__lab__report\"><tr><th>Test</th><th>21-May-2025</th><th>Reference&#xA0;Range</th><th>Unit</th></tr><tr><td>Urea nitrogen [Mass/volume] in Blood</td><td>16.6</td><td>7 - 30</td><td></td><td>mg/dL</td></tr></table></div>"
        },
        "status": "final",
        "subject": {
          "reference": "urn:uuid:457f460b-adcb-405a-b68d-42e4bb28c426",
          "display": "Maria Nohlmans"
        },
        "effectiveDateTime": "2025-05-21T11:02:39Z"
      }
    },
    {
      "fullUrl": "urn:uuid:3f51428a-9e16-4988-abc3-f36894dcebfd",
      "resource": {
        "resourceType": "Observation",
        "id": "3f51428a-9e16-4988-abc3-f36894dcebfd",
        "meta": {
          "profile": [
            "http://hl7.eu/fhir/laboratory/StructureDefinition/Observation-resultslab-eu-lab"
          ]
        },
        "performer": [
          {
            "display": "The Central European Lab"
          }
        ],
        "category": [
          {
            "coding": [
              {
                "system": "http://terminology.hl7.org/CodeSystem/observation-category",
                "code": "laboratory"
              }
            ]
          }
        ],
        "code": {
          "coding": [
            {
              "code": "38483-4",
              "system": "http://loinc.org",
              "display": "Creatinine [Mass/volume] in Blood"
            }
          ],
          "text": "Creatinine [Mass/volume] in Blood"
        },
        "valueQuantity": {
          "system": "http://unitsofmeasure.org",
          "value": 0.9,
          "unit": "mg/dL",
          "code": "mg/dL"
        },
        "referenceRange": [
          {
            "low": {
              "value": 0.5,
              "code": "mg/dL",
              "system": "http://unitsofmeasure.org"
            }
          },
          {
            "high": {
              "value": 1.3,
              "code": "mg/dL",
              "system": "http://unitsofmeasure.org"
            }
          }
        ],
        "text": {
          "status": "generated",
          "div": "<div xmlns=\"http://www.w3.org/1999/xhtml\"><table class=\"hl7__eu__lab__report\"><tr><th>Test</th><th>21-May-2025</th><th>Reference&#xA0;Range</th><th>Unit</th></tr><tr><td>Creatinine [Mass/volume] in Blood</td><td>0.9</td><td>0.5 - 1.3</td><td></td><td>mg/dL</td></tr></table></div>"
        },
        "status": "final",
        "subject": {
          "reference": "urn:uuid:457f460b-adcb-405a-b68d-42e4bb28c426",
          "display": "Maria Nohlmans"
        },
        "effectiveDateTime": "2025-05-21T11:02:39Z"
      }
    },
    {
      "fullUrl": "urn:uuid:bf3d8eb8-2f96-4771-9672-67f03a02f0fb",
      "resource": {
        "resourceType": "Observation",
        "id": "bf3d8eb8-2f96-4771-9672-67f03a02f0fb",
        "meta": {
          "profile": [
            "http://hl7.eu/fhir/laboratory/StructureDefinition/Observation-resultslab-eu-lab"
          ]
        },
        "performer": [
          {
            "display": "The Central European Lab"
          }
        ],
        "category": [
          {
            "coding": [
              {
                "system": "http://terminology.hl7.org/CodeSystem/observation-category",
                "code": "laboratory"
              }
            ]
          }
        ],
        "code": {
          "coding": [
            {
              "code": "49765-1",
              "system": "http://loinc.org",
              "display": "Calcium [Mass/volume] in Blood"
            }
          ],
          "text": "Calcium [Mass/volume] in Blood"
        },
        "valueQuantity": {
          "system": "http://unitsofmeasure.org",
          "value": 8.6,
          "unit": "mg/dL",
          "code": "mg/dL"
        },
        "referenceRange": [
          {
            "low": {
              "value": 8.6,
              "code": "mg/dL",
              "system": "http://unitsofmeasure.org"
            }
          },
          {
            "high": {
              "value": 10.2,
              "code": "mg/dL",
              "system": "http://unitsofmeasure.org"
            }
          }
        ],
        "text": {
          "status": "generated",
          "div": "<div xmlns=\"http://www.w3.org/1999/xhtml\"><table class=\"hl7__eu__lab__report\"><tr><th>Test</th><th>21-May-2025</th><th>Reference&#xA0;Range</th><th>Unit</th></tr><tr><td>Calcium [Mass/volume] in Blood</td><td>8.6</td><td>8.6 - 10.2</td><td></td><td>mg/dL</td></tr></table></div>"
        },
        "status": "final",
        "subject": {
          "reference": "urn:uuid:457f460b-adcb-405a-b68d-42e4bb28c426",
          "display": "Maria Nohlmans"
        },
        "effectiveDateTime": "2025-05-21T11:02:39Z"
      }
    },
    {
      "fullUrl": "urn:uuid:28e4966a-63b4-4a6a-bd72-730a8ca2b267",
      "resource": {
        "resourceType": "Observation",
        "id": "28e4966a-63b4-4a6a-bd72-730a8ca2b267",
        "meta": {
          "profile": [
            "http://hl7.eu/fhir/laboratory/StructureDefinition/Observation-resultslab-eu-lab"
          ]
        },
        "performer": [
          {
            "display": "The Central European Lab"
          }
        ],
        "category": [
          {
            "coding": [
              {
                "system": "http://terminology.hl7.org/CodeSystem/observation-category",
                "code": "laboratory"
              }
            ]
          }
        ],
        "code": {
          "coding": [
            {
              "code": "2947-0",
              "system": "http://loinc.org",
              "display": "Sodium [Moles/volume] in Blood"
            }
          ],
          "text": "Sodium [Moles/volume] in Blood"
        },
        "valueQuantity": {
          "system": "http://unitsofmeasure.org",
          "value": 141,
          "unit": "mmol/L",
          "code": "mmol/L"
        },
        "referenceRange": [
          {
            "low": {
              "value": 135,
              "code": "mmol/L",
              "system": "http://unitsofmeasure.org"
            }
          },
          {
            "high": {
              "value": 145,
              "code": "mmol/L",
              "system": "http://unitsofmeasure.org"
            }
          }
        ],
        "text": {
          "status": "generated",
          "div": "<div xmlns=\"http://www.w3.org/1999/xhtml\"><table class=\"hl7__eu__lab__report\"><tr><th>Test</th><th>21-May-2025</th><th>Reference&#xA0;Range</th><th>Unit</th></tr><tr><td>Sodium [Moles/volume] in Blood</td><td>141.0</td><td>135 - 145</td><td></td><td>mmol/L</td></tr></table></div>"
        },
        "status": "final",
        "subject": {
          "reference": "urn:uuid:457f460b-adcb-405a-b68d-42e4bb28c426",
          "display": "Maria Nohlmans"
        },
        "effectiveDateTime": "2025-05-21T11:02:39Z"
      }
    },
    {
      "fullUrl": "urn:uuid:a9ab58b0-7461-4fcb-8eb0-7dd41f9d936d",
      "resource": {
        "resourceType": "Observation",
        "id": "a9ab58b0-7461-4fcb-8eb0-7dd41f9d936d",
        "meta": {
          "profile": [
            "http://hl7.eu/fhir/laboratory/StructureDefinition/Observation-resultslab-eu-lab"
          ]
        },
        "performer": [
          {
            "display": "The Central European Lab"
          }
        ],
        "category": [
          {
            "coding": [
              {
                "system": "http://terminology.hl7.org/CodeSystem/observation-category",
                "code": "laboratory"
              }
            ]
          }
        ],
        "code": {
          "coding": [
            {
              "code": "6298-4",
              "system": "http://loinc.org",
              "display": "Potassium [Moles/volume] in Blood"
            }
          ],
          "text": "Potassium [Moles/volume] in Blood"
        },
        "valueQuantity": {
          "system": "http://unitsofmeasure.org",
          "value": 3.8,
          "unit": "mmol/L",
          "code": "mmol/L"
        },
        "referenceRange": [
          {
            "low": {
              "value": 3.5,
              "code": "mmol/L",
              "system": "http://unitsofmeasure.org"
            }
          },
          {
            "high": {
              "value": 5.1,
              "code": "mmol/L",
              "system": "http://unitsofmeasure.org"
            }
          }
        ],
        "text": {
          "status": "generated",
          "div": "<div xmlns=\"http://www.w3.org/1999/xhtml\"><table class=\"hl7__eu__lab__report\"><tr><th>Test</th><th>21-May-2025</th><th>Reference&#xA0;Range</th><th>Unit</th></tr><tr><td>Potassium [Moles/volume] in Blood</td><td>3.8</td><td>3.5 - 5.1</td><td></td><td>mmol/L</td></tr></table></div>"
        },
        "status": "final",
        "subject": {
          "reference": "urn:uuid:457f460b-adcb-405a-b68d-42e4bb28c426",
          "display": "Maria Nohlmans"
        },
        "effectiveDateTime": "2025-05-21T11:02:39Z"
      }
    },
    {
      "fullUrl": "urn:uuid:4585beef-fde7-4953-bd84-30f19526372e",
      "resource": {
        "resourceType": "Observation",
        "id": "4585beef-fde7-4953-bd84-30f19526372e",
        "meta": {
          "profile": [
            "http://hl7.eu/fhir/laboratory/StructureDefinition/Observation-resultslab-eu-lab"
          ]
        },
        "performer": [
          {
            "display": "The Central European Lab"
          }
        ],
        "category": [
          {
            "coding": [
              {
                "system": "http://terminology.hl7.org/CodeSystem/observation-category",
                "code": "laboratory"
              }
            ]
          }
        ],
        "code": {
          "coding": [
            {
              "code": "2069-3",
              "system": "http://loinc.org",
              "display": "Chloride [Moles/volume] in Blood"
            }
          ],
          "text": "Chloride [Moles/volume] in Blood"
        },
        "valueQuantity": {
          "system": "http://unitsofmeasure.org",
          "value": 102.6,
          "unit": "mmol/L",
          "code": "mmol/L"
        },
        "referenceRange": [
          {
            "low": {
              "value": 98,
              "code": "mmol/L",
              "system": "http://unitsofmeasure.org"
            }
          },
          {
            "high": {
              "value": 114,
              "code": "mmol/L",
              "system": "http://unitsofmeasure.org"
            }
          }
        ],
        "text": {
          "status": "generated",
          "div": "<div xmlns=\"http://www.w3.org/1999/xhtml\"><table class=\"hl7__eu__lab__report\"><tr><th>Test</th><th>21-May-2025</th><th>Reference&#xA0;Range</th><th>Unit</th></tr><tr><td>Chloride [Moles/volume] in Blood</td><td>102.6</td><td>98 - 114</td><td></td><td>mmol/L</td></tr></table></div>"
        },
        "status": "final",
        "subject": {
          "reference": "urn:uuid:457f460b-adcb-405a-b68d-42e4bb28c426",
          "display": "Maria Nohlmans"
        },
        "effectiveDateTime": "2025-05-21T11:02:39Z"
      }
    },
    {
      "fullUrl": "urn:uuid:b2120f3c-bc8c-4059-9913-8ca7e56c17cc",
      "resource": {
        "resourceType": "Observation",
        "id": "b2120f3c-bc8c-4059-9913-8ca7e56c17cc",
        "meta": {
          "profile": [
            "http://hl7.eu/fhir/laboratory/StructureDefinition/Observation-resultslab-eu-lab"
          ]
        },
        "performer": [
          {
            "display": "The Central European Lab"
          }
        ],
        "category": [
          {
            "coding": [
              {
                "system": "http://terminology.hl7.org/CodeSystem/observation-category",
                "code": "laboratory"
              }
            ]
          }
        ],
        "code": {
          "coding": [
            {
              "code": "20565-8",
              "system": "http://loinc.org",
              "display": "Carbon dioxide, total [Moles/volume] in Blood"
            }
          ],
          "text": "Carbon dioxide, total [Moles/volume] in Blood"
        },
        "valueQuantity": {
          "system": "http://unitsofmeasure.org",
          "value": 26.9,
          "unit": "mmol/L",
          "code": "mmol/L"
        },
        "referenceRange": [
          {
            "low": {
              "value": 22,
              "code": "mmol/L",
              "system": "http://unitsofmeasure.org"
            }
          },
          {
            "high": {
              "value": 32,
              "code": "mmol/L",
              "system": "http://unitsofmeasure.org"
            }
          }
        ],
        "text": {
          "status": "generated",
          "div": "<div xmlns=\"http://www.w3.org/1999/xhtml\"><table class=\"hl7__eu__lab__report\"><tr><th>Test</th><th>21-May-2025</th><th>Reference&#xA0;Range</th><th>Unit</th></tr><tr><td>Carbon dioxide, total [Moles/volume] in Blood</td><td>26.9</td><td>22 - 32</td><td></td><td>mmol/L</td></tr></table></div>"
        },
        "status": "final",
        "subject": {
          "reference": "urn:uuid:457f460b-adcb-405a-b68d-42e4bb28c426",
          "display": "Maria Nohlmans"
        },
        "effectiveDateTime": "2025-05-21T11:02:39Z"
      }
    },
    {
      "fullUrl": "urn:uuid:650704b8-4a2e-41f9-9218-c606a8a0e92d",
      "resource": {
        "resourceType": "DeviceUseStatement",
        "id": "650704b8-4a2e-41f9-9218-c606a8a0e92d",
        "meta": {
          "profile": [
            "http://hl7.eu/fhir/eps/StructureDefinition/deviceUseStatement-eu-eps"
          ]
        },
        "timingPeriod": {
          "start": "1993-11-17"
        },
        "text": {
          "status": "generated",
          "div": "<div xmlns=\"http://www.w3.org/1999/xhtml\"><table class=\"hl7__ips\"><tr><td>Blood glucose meter (physical object)</td><td><span class=\"nb\">17-Nov-1993</span></td></tr></table></div>"
        },
        "status": "active",
        "device": {
          "reference": "urn:uuid:bb28a86b-eb4e-4b2b-bcd7-79a00100dc6e",
          "display": "Blood glucose meter (physical object)"
        },
        "subject": {
          "reference": "urn:uuid:457f460b-adcb-405a-b68d-42e4bb28c426",
          "display": "Maria Nohlmans"
        }
      }
    },
    {
      "fullUrl": "urn:uuid:bb28a86b-eb4e-4b2b-bcd7-79a00100dc6e",
      "resource": {
        "resourceType": "Device",
        "id": "bb28a86b-eb4e-4b2b-bcd7-79a00100dc6e",
        "meta": {
          "profile": [
            "http://hl7.eu/fhir/eps/StructureDefinition/device-eu-eps"
          ]
        },
        "udiCarrier": [
          {
            "id": "(01)79601567702842(11)931027(17)181111(10)162020(21)11954188981560062"
          }
        ],
        "status": "active",
        "patient": {
          "reference": "urn:uuid:457f460b-adcb-405a-b68d-42e4bb28c426",
          "display": "Maria Nohlmans"
        },
        "type": {
          "coding": [
            {
              "code": "337414009",
              "system": "http://snomed.info/sct",
              "display": "Blood glucose meter (physical object)"
            }
          ]
        }
      }
    },
    {
      "fullUrl": "urn:uuid:2033b13b-c697-4f96-957c-f285802c5eb0",
      "resource": {
        "resourceType": "Device",
        "id": "2033b13b-c697-4f96-957c-f285802c5eb0",
        "deviceName": [
          {
            "name": "SYNDERAI Synthetic Generator",
            "type": "manufacturer-name"
          }
        ],
        "version": [
          {
            "value": "5.0"
          }
        ],
        "text": {
          "status": "generated",
          "div": "<div xmlns=\"http://www.w3.org/1999/xhtml\">SYNDERAI Synthetic Generator v5.0</div>"
        },
        "status": "active\"",
        "distinctIdentifier": "synderai-generator-50",
        "manufacturer": "SYNDERAI Project"
      }
    },
    {
      "fullUrl": "urn:uuid:0cc4c1cb-8174-4fbe-bdc6-4a3f809fef9c",
      "resource": {
        "resourceType": "Provenance",
        "id": "0cc4c1cb-8174-4fbe-bdc6-4a3f809fef9c",
        "target": [
          {
            "reference": "Patient/457f460b-adcb-405a-b68d-42e4bb28c426"
          },
          {
            "reference": "Bundle/6fc96815-65cf-42bc-80c2-58910a206812"
          },
          {
            "reference": "Composition/b4136a08-b16b-4647-a935-1ac280623305"
          },
          {
            "reference": "PractitionerRole/afc4ac74-2146-4c43-b9cf-3324531a4d64"
          },
          {
            "reference": "Organization/fba42d9a-0db4-4f9a-8f6a-9b0ffbe0aea3"
          },
          {
            "reference": "Practitioner/78b485b8-347f-4b5a-aa15-4a364afdbd9b"
          }
        ],
        "activity": {
          "text": "Synthetic Example Data Generation"
        },
        "policy": [
          "https://synderai.net/synderai-synthetic-data-policy"
        ],
        "agent": [
          {
            "type": {
              "text": "author"
            },
            "who": {
              "reference": "Device/2033b13b-c697-4f96-957c-f285802c5eb0"
            }
          }
        ],
        "reason": [
          {
            "text": "Interoperability Testing and Training (non-clinical use)"
          }
        ],
        "text": {
          "status": "generated",
          "div": "<div xmlns=\"http://www.w3.org/1999/xhtml\">Provenance for SYNDERAI Synthetic Example Data Resource</div>"
        },
        "recorded": "2025-05-21T11:02:39Z"
      }
    }
  ],
  "type": "document",
  "timestamp": "2025-05-21T11:02:39Z"
}
