{
  "resourceType": "Bundle",
  "id": "d6342d3b-592d-4327-b4af-004fa995a14a",
  "meta": {
    "profile": [
      "http://hl7.eu/fhir/eps/StructureDefinition/bundle-eu-eps"
    ]
  },
  "identifier": {
    "assigner": {
      "display": "HL7 Europe"
    },
    "system": "urn:oid:2.16.840.1.113883.2.51.999",
    "value": "12421593-b645-4866-afb2-7c3522f2c5b2"
  },
  "entry": [
    {
      "fullUrl": "urn:uuid:ad7593f3-04ce-49c1-adec-99f3ffee6236",
      "resource": {
        "resourceType": "Composition",
        "id": "ad7593f3-04ce-49c1-adec-99f3ffee6236",
        "meta": {
          "security": [
            {
              "system": "http://terminology.hl7.org/CodeSystem/v3-ActReason",
              "code": "HTEST"
            },
            {
              "system": "http://terminology.hl7.org/CodeSystem/v3-ActReason",
              "code": "TRAIN"
            }
          ],
          "tag": [
            {
              "system": "https://synderai.net/fhir/CodeSystem/tags",
              "code": "synthetic",
              "display": "SYNDERAI Synthetic data"
            }
          ],
          "profile": [
            "http://hl7.eu/fhir/eps/StructureDefinition/composition-eu-eps"
          ]
        },
        "identifier": {
          "assigner": {
            "display": "HL7 Europe"
          },
          "system": "urn:oid:2.16.840.1.113883.2.51.999",
          "value": "b02955cc-eb00-450e-a32e-97aa99ad571a"
        },
        "type": {
          "coding": [
            {
              "system": "http://loinc.org",
              "code": "60591-5",
              "display": "Patient summary Document"
            }
          ],
          "text": "Patient summary Document"
        },
        "author": [
          {
            "reference": "urn:uuid:d12a00e7-71dd-4147-951b-24b86d613d3b"
          }
        ],
        "section": [
          {
            "text": {
              "status": "generated",
              "div": "<div xmlns=\"http://www.w3.org/1999/xhtml\"><table class=\"hl7__ips\"><tr><th>Condition</th><th>Onset Date</th><th>Status</th></tr><tr><td>Chronic kidney disease stage 2</td><td><span class=\"nb\">22-May-2022</span></td><td>active</td></tr><tr><td>Chronic kidney disease stage 1</td><td><span class=\"nb\">28-Feb-2021</span></td><td>active</td></tr><tr><td>Metabolic syndrome X</td><td><span class=\"nb\">19-Jan-2014</span></td><td>active</td></tr><tr><td>Sepsis</td><td><span class=\"nb\">06-Mar-2011</span></td><td>active</td></tr><tr><td>Anemia</td><td><span class=\"nb\">09-Jan-2011</span></td><td>active</td></tr><tr><td>Prediabetes</td><td><span class=\"nb\">27-Dec-2009</span></td><td>active</td></tr><tr><td>Proteinuria due to type 2 diabetes mellitus</td><td><span class=\"nb\">01-Sep-2002</span></td><td>active</td></tr><tr><td>Microalbuminuria due to type 2 diabetes mellitus</td><td><span class=\"nb\">04-Aug-2002</span></td><td>active</td></tr><tr><td>Osteoarthritis of hip</td><td><span class=\"nb\">05-Apr-1998</span></td><td>active</td></tr><tr><td>Chronic sinusitis</td><td><span class=\"nb\">17-May-1992</span></td><td>active</td></tr><tr><td>Disorder of kidney due to diabetes mellitus</td><td><span class=\"nb\">08-Jul-1990</span></td><td>active</td></tr><tr><td>Essential hypertension</td><td><span class=\"nb\">31-Jul-1983</span></td><td>active</td></tr></table></div>"
            },
            "entry": [
              {
                "reference": "urn:uuid:cc4c0a2c-5d39-4a32-ba31-0367af71aa15"
              },
              {
                "reference": "urn:uuid:f4dffee5-38c3-42bc-8390-db0b5d383384"
              },
              {
                "reference": "urn:uuid:c2738d8a-623a-4437-bd4c-1d761902b681"
              },
              {
                "reference": "urn:uuid:de0bdafb-73ca-4431-ad5a-99dfd42d8ff5"
              },
              {
                "reference": "urn:uuid:5ad03a6b-0e07-47b3-834e-80bb5c7ec8ce"
              },
              {
                "reference": "urn:uuid:babbb94d-f58a-4d0c-ac2d-b82c03f53380"
              },
              {
                "reference": "urn:uuid:4ef1bf53-02d8-4d5b-ad9c-fecce3dafc33"
              },
              {
                "reference": "urn:uuid:12397833-596d-4893-92f3-f70df6406a5d"
              },
              {
                "reference": "urn:uuid:c61ca78b-f40b-474e-90c8-55539a158155"
              },
              {
                "reference": "urn:uuid:79212a96-5f35-4cf5-8e65-87ce75d02c8a"
              },
              {
                "reference": "urn:uuid:7d29a710-634c-48f7-ab15-ce13f35f0fde"
              },
              {
                "reference": "urn:uuid:d96fe43f-304f-44c9-adca-79a09f56408b"
              }
            ],
            "code": {
              "coding": [
                {
                  "system": "http://loinc.org",
                  "code": "11450-4",
                  "display": "Problem list - Reported"
                }
              ]
            },
            "title": "Problem list"
          },
          {
            "text": {
              "status": "generated",
              "div": "<div xmlns=\"http://www.w3.org/1999/xhtml\"><table class=\"hl7__ips\"><tr><th>Medication</th><th>Since</th><th>Form</th><th>Dosage</th><th>Reason</th></tr><tr><td>insulin isophane human 70 UNT/ML / insulin regular human 30 UNT/ML Injectable Suspension [Humulin]</td><td><span class=\"nb\">2025-03-23</span></td><td>-</td><td>10 units subcutaneously before breakfast and dinner</td><td>Prediabetes</td></tr><tr><td>Hydrochlorothiazide 25 mg oral tablet</td><td><span class=\"nb\">2025-03-23</span></td><td>-</td><td>1 tablet (25 mg) by mouth once daily</td><td>Essential hypertension (disorder)</td></tr><tr><td>Acetaminophen 300 mg and hydrocodone bitartrate 5 mg oral tablet</td><td><span class=\"nb\">2025-03-23</span></td><td>-</td><td>1 tablet (300 mg/5 mg) by mouth every 4 to 6 hours as needed for pain</td><td>-</td></tr><tr><td>Abuse-Deterrent 12 HR Oxycodone Hydrochloride 10 MG Extended Release Oral Tablet [Oxycontin]</td><td><span class=\"nb\">2025-03-23</span></td><td>-</td><td>1 tablet (10 mg) every 12 hours</td><td>-</td></tr><tr><td>24 HR tacrolimus 1 MG Extended Release Oral Tablet</td><td><span class=\"nb\">2025-03-23</span></td><td>-</td><td>1 tablet (1 mg) by mouth once daily</td><td>History of renal transplant (situation)</td></tr></table></div>"
            },
            "entry": [
              {
                "reference": "urn:uuid:bc7bf681-d8b1-418f-bfda-20cfbb186d77"
              },
              {
                "reference": "urn:uuid:ff1464f5-b2e9-4acb-b306-b5283617c1af"
              },
              {
                "reference": "urn:uuid:cc032619-bed6-470c-a528-adb1cb9de1b1"
              },
              {
                "reference": "urn:uuid:6d852884-686e-41ab-964d-2e5bb745d936"
              },
              {
                "reference": "urn:uuid:9490b62b-a573-4075-9f7f-b3582e1a6419"
              }
            ],
            "code": {
              "coding": [
                {
                  "system": "http://loinc.org",
                  "code": "10160-0",
                  "display": "History of Medication use Narrative"
                }
              ]
            },
            "title": "Medication list"
          },
          {
            "text": {
              "status": "generated",
              "div": "<div xmlns=\"http://www.w3.org/1999/xhtml\"><table class=\"hl7__ips\"><tr><th>Vaccine</th><th>Date</th></tr><tr><td>Influenza virus antigen only vaccine product</td><td><span class=\"nb\">02-Feb-2025</span></td></tr><tr><td>Clostridium tetani toxoid antigen adsorbed only vaccine product</td><td><span class=\"nb\">21-Aug-2022</span></td></tr><tr><td>SARS-CoV-2 mRNA vaccine</td><td><span class=\"nb\">23-May-2021</span></td></tr></table></div>"
            },
            "entry": [
              {
                "reference": "urn:uuid:5c3f8be7-b1a2-4c19-9442-ef0ffed5a177"
              },
              {
                "reference": "urn:uuid:403cefa5-d84a-45d7-91a5-04432725f7ab"
              },
              {
                "reference": "urn:uuid:5970b72d-170c-4161-8dd4-05c18fee5dd1"
              }
            ],
            "code": {
              "coding": [
                {
                  "system": "http://loinc.org",
                  "code": "11369-6",
                  "display": "History of Immunization note"
                }
              ]
            },
            "title": "Immunizations list"
          },
          {
            "text": {
              "status": "generated",
              "div": "<div xmlns=\"http://www.w3.org/1999/xhtml\"><table class=\"hl7__ips\"><tr><th>Procedure</th><th>Date</th><th>Reason</th></tr><tr><td>Depression screening</td><td><span class=\"nb\">15-Oct-2023</span></td><td>-</td></tr><tr><td>Medication reconciliation</td><td><span class=\"nb\">15-Oct-2023</span></td><td>-</td></tr><tr><td>Assessment of health and social care needs</td><td><span class=\"nb\">15-Oct-2023</span></td><td>-</td></tr><tr><td>Assessment using AUDIT-C (Alcohol Use Disorders Identification Test - Consumption)</td><td><span class=\"nb\">15-Oct-2023</span></td><td>-</td></tr><tr><td>Assessment of substance use</td><td><span class=\"nb\">15-Oct-2023</span></td><td>-</td></tr><tr><td>Depression screening using Patient Health Questionnaire Two-Item score (procedure)</td><td><span class=\"nb\">15-Oct-2023</span></td><td>-</td></tr><tr><td>Transplantation of kidney regime</td><td><span class=\"nb\">09-May-2016</span></td><td>History of renal transplant (situation)</td></tr><tr><td>Transplant of kidney</td><td><span class=\"nb\">07-May-2016</span></td><td>Awaiting transplantation of kidney (situation)</td></tr><tr><td>Pretransplant evaluation of kidney recipient</td><td><span class=\"nb\">07-May-2016</span></td><td>Awaiting transplantation of kidney (situation)</td></tr></table></div>"
            },
            "entry": [
              {
                "reference": "urn:uuid:422179ec-3615-4362-bf97-9bc03f5b25f7"
              },
              {
                "reference": "urn:uuid:03bfe209-a390-45fa-b806-3e605db77b17"
              },
              {
                "reference": "urn:uuid:6bf7ae03-5382-4ae1-acfb-fa0895a2ef22"
              },
              {
                "reference": "urn:uuid:94e9a5c2-c756-48f2-80cb-00f55c6086d8"
              },
              {
                "reference": "urn:uuid:6a3a8b85-e442-4103-9a43-12f7138c7126"
              },
              {
                "reference": "urn:uuid:242496a0-1af3-4f21-8cdd-142966cdc9f5"
              },
              {
                "reference": "urn:uuid:4f8ff80e-6dde-4631-bd9c-b23a0ea677e7"
              },
              {
                "reference": "urn:uuid:cebf2a33-094d-4593-8699-27a1ae545734"
              },
              {
                "reference": "urn:uuid:a20ab930-9d95-4fdb-9997-82eb10847719"
              }
            ],
            "code": {
              "coding": [
                {
                  "system": "http://loinc.org",
                  "code": "47519-4",
                  "display": "History of Procedures Document"
                }
              ]
            },
            "title": "Procedure History list"
          },
          {
            "text": {
              "status": "generated",
              "div": "<div xmlns=\"http://www.w3.org/1999/xhtml\"><table class=\"hl7__ips\"><tr><th>Allergy/Intolerance</th><th>Onset Date</th><th>Status</th><th>Type</th><th>Reaction</th></tr><tr><td></td><td>?</td><td>active</td><td>?</td><td></td></tr></table></div>"
            },
            "entry": [
              {
                "reference": "urn:uuid:13458d49-b83b-468e-87dc-3ef71220a0d0"
              }
            ],
            "code": {
              "coding": [
                {
                  "system": "http://loinc.org",
                  "code": "48765-2",
                  "display": "Allergies and adverse reactions Document"
                }
              ]
            },
            "title": "Allergies and Intolerances"
          },
          {
            "text": {
              "status": "generated",
              "div": "<div xmlns=\"http://www.w3.org/1999/xhtml\"><table class=\"hl7__ips\"><tr><th>Active Planned Care / Goals</th><th>Start Date</th><th>Reason</th></tr><tr><td>Care plan</td><td><span class=\"nb\">07-May-2016</span></td><td>-</td></tr><tr><td>Therapy</td><td><span class=\"nb\">03-Apr-2014</span></td><td>-</td></tr><tr><td>Dialysis care plan</td><td><span class=\"nb\">12-Jan-2011</span></td><td>-</td></tr><tr><td>Diabetes self management plan</td><td><span class=\"nb\">27-Dec-2009</span></td><td>Prediabetes</td></tr><tr><td><ul><li>Maintain hemoglobin A1c below 6.5% to reduce risk of diabetes progression.</li><li>Achieve and maintain at least 5% weight loss from baseline to improve glycemic control.</li><li>Maintain blood pressure below 130/80 mmHg to reduce cardiovascular risk.</li><li>Engage in at least 150 minutes of moderate-intensity physical activity per week.</li></ul></td><td></td><td></td></tr><tr><td>Lifestyle education regarding hypertension</td><td><span class=\"nb\">31-Jul-1983</span></td><td>Essential hypertension (disorder)</td></tr><tr><td><ul><li>Achieve and maintain systolic blood pressure within recommended target range through lifestyle modifications.</li><li>Achieve and maintain diastolic blood pressure within recommended target range through lifestyle modifications.</li><li>Reduce daily sodium intake to recommended levels as part of hypertension management.</li><li>Achieve and maintain a healthy body weight to support blood pressure control.</li><li>Engage in at least 150 minutes of moderate-intensity physical activity per week to support blood pressure control.</li></ul></td><td></td><td></td></tr><tr><th>Immunization Recommendation</th><th>Due Date</th><th>Reason</th></tr><tr><td>Vaccine product containing only Influenza virus antigen (medicinal product)</td><td><span class=\"nb\">01-Oct-2025</span></td><td>Annual seasonal influenza vaccination</td></tr></table></div>"
            },
            "entry": [
              {
                "reference": "urn:uuid:7f068357-4580-4e45-ab17-4f705d21da41"
              },
              {
                "reference": "urn:uuid:a4940840-89ec-4c68-a981-6cbd03dc81cf"
              },
              {
                "reference": "urn:uuid:84e04c8b-5a29-4109-a8c9-e42f7f24fed0"
              },
              {
                "reference": "urn:uuid:fd7cf50b-a397-4a02-87f0-3751844ac2b3"
              },
              {
                "reference": "urn:uuid:b26e2065-4e42-4f46-b2c0-29a9f16bcd17"
              },
              {
                "reference": "urn:uuid:18709fe4-458b-44f3-81ce-25f9ea826dc8"
              }
            ],
            "code": {
              "coding": [
                {
                  "system": "http://loinc.org",
                  "code": "18776-5",
                  "display": "Plan of care note"
                }
              ]
            },
            "title": "Care Plan"
          },
          {
            "text": {
              "status": "generated",
              "div": "<div xmlns=\"http://www.w3.org/1999/xhtml\"><table class=\"hl7__ips\"><tr><th>Vital Signs</th><th>2025-03-23</th><th>2025-02-02</th></tr><tr><td>Body Height</td><td>170.9 cm</td><td>170.9 cm</td></tr><tr><td>Pain severity - 0-10 verbal numeric rating [Score] - Reported</td><td>3 {score}</td><td>2 {score}</td></tr><tr><td>Body Weight</td><td>87.8 kg</td><td>87.5 kg</td></tr><tr><td>Body mass index (BMI) [Ratio]</td><td>30.1 kg/m2</td><td>30 kg/m2</td></tr><tr><td>Diastolic Blood Pressure</td><td>98 mm[Hg]</td><td>105 mm[Hg]</td></tr><tr><td>Systolic Blood Pressure</td><td>115 mm[Hg]</td><td>125 mm[Hg]</td></tr><tr><td>Heart rate</td><td>78 /min</td><td>74 /min</td></tr><tr><td>Respiratory rate</td><td>15 /min</td><td>14 /min</td></tr></table></div>"
            },
            "entry": [
              {
                "reference": "urn:uuid:d5d6828c-fb49-4960-b3b2-58e9c68dd07a"
              },
              {
                "reference": "urn:uuid:4d4d77c2-ee9f-4c68-a97d-fbdefa73bb3d"
              },
              {
                "reference": "urn:uuid:48041579-85e3-4826-9af8-365e766755f0"
              },
              {
                "reference": "urn:uuid:f232820c-43b2-446f-bc00-8d22b386263c"
              },
              {
                "reference": "urn:uuid:ce6f1fb9-cdf9-40fa-9b35-4fc15f06673f"
              },
              {
                "reference": "urn:uuid:eaf47906-d265-4001-a973-6d72e8003fa8"
              },
              {
                "reference": "urn:uuid:1dbd0d61-6034-425a-9ee4-3abb0ae89a53"
              },
              {
                "reference": "urn:uuid:b08ac5f2-b2f4-4564-bb9a-acdbc946aaa1"
              },
              {
                "reference": "urn:uuid:d8f5b75c-ab01-4de3-9df5-2db2b5dc7d90"
              },
              {
                "reference": "urn:uuid:0a708a5a-8542-495d-8fe9-1c3f4c638443"
              },
              {
                "reference": "urn:uuid:9e56192b-af42-4e60-859e-809720448151"
              },
              {
                "reference": "urn:uuid:1ca5d596-442a-4512-b287-31dc4c343a30"
              },
              {
                "reference": "urn:uuid:b054f6de-999a-4ec8-89fc-35fe3c5427fb"
              },
              {
                "reference": "urn:uuid:a03b0de4-7eda-4c2b-8cdc-3907ff880964"
              },
              {
                "reference": "urn:uuid:8f4923d5-0462-4ec4-b51c-96407777e09e"
              },
              {
                "reference": "urn:uuid:0cab65d3-6c3b-4dd5-a39a-1dc4d6a76a4e"
              }
            ],
            "code": {
              "coding": [
                {
                  "system": "http://loinc.org",
                  "code": "8716-3",
                  "display": "Vital signs note"
                }
              ]
            },
            "title": "Vital Signs"
          },
          {
            "text": {
              "status": "generated",
              "div": "<div xmlns=\"http://www.w3.org/1999/xhtml\"><table class=\"hl7__ips\"><table class=\"hl7__ips\"><thead><tr><th>Recent Lab Observations</th><th>23-MAR-2025</th><th>Reference&#xA0;Range</th><th>Unit</th></tr></thead><tbody><tr><td>Glucose [Mass/volume] in Serum or Plasma</td><td>89.6</td><td>70 - 99</td><td>mg/dL</td></tr><tr><td>Urea nitrogen [Mass/volume] in Serum or Plasma</td><td>7.4</td><td>7 - 20</td><td>mg/dL</td></tr><tr><td>Creatinine [Mass/volume] in Serum or Plasma</td><td><strong>1.9 H</strong></td><td>0.6 - 1.3</td><td>mg/dL</td></tr><tr><td>Calcium [Mass/volume] in Serum or Plasma</td><td>10.1</td><td>8.6 - 10.4</td><td>mg/dL</td></tr><tr><td>Sodium [Moles/volume] in Serum or Plasma</td><td>138.8</td><td>135 - 145</td><td>mmol/L</td></tr><tr><td>Potassium [Moles/volume] in Serum or Plasma</td><td>3.8</td><td>3.5 - 5</td><td>mmol/L</td></tr><tr><td>Chloride [Moles/volume] in Serum or Plasma</td><td><strong>106.4 H</strong></td><td>98 - 106</td><td>mmol/L</td></tr><tr><td>Carbon dioxide, total [Moles/volume] in Serum or Plasma</td><td><strong>21.3 L</strong></td><td>22 - 29</td><td>mmol/L</td></tr><tr><td>Appearance of Urine</td><td>Cloudy urine</td><td></td><td></td></tr><tr><td>Odor of Urine</td><td>Urine smell ammoniacal</td><td></td><td></td></tr><tr><td>Clarity of Urine</td><td>Translucent</td><td></td><td></td></tr><tr><td>Color of Urine</td><td>Brown color</td><td></td><td></td></tr><tr><td>Glucose [Mass/volume] in Urine by Test strip</td><td><strong>1.3 H</strong></td><td>0 - 0.8</td><td>mg/dL</td></tr><tr><td>Glucose [Presence] in Urine by Test strip</td><td>++</td><td></td><td></td></tr><tr><td>Bilirubin.total [Mass/volume] in Urine by Test strip</td><td>0.9</td><td>0 - 1</td><td>mg/dL</td></tr><tr><td>Bilirubin.total [Presence] in Urine by Test strip</td><td>Finding of bilirubin in urine</td><td></td><td></td></tr><tr><td>Ketones [Mass/volume] in Urine by Test strip</td><td>2.0</td><td>0 - 4</td><td>mg/dL</td></tr><tr><td>Ketones [Presence] in Urine by Test strip</td><td>Urine ketone test = +</td><td></td><td></td></tr><tr><td>Specific gravity of Urine by Test strip</td><td><strong>1.0 L</strong></td><td>1.005 - 1.03</td><td>{nominal}</td></tr><tr><td>pH of Urine by Test strip</td><td>6.1</td><td>4.5 - 7</td><td>pH</td></tr><tr><td>Protein [Mass/volume] in Urine by Test strip</td><td><strong>318.1 H</strong></td><td>0 - 145</td><td>mg/dL</td></tr><tr><td>Protein [Presence] in Urine by Test strip</td><td>Urine protein test = ++</td><td></td><td></td></tr><tr><td>Nitrite [Presence] in Urine by Test strip</td><td>Urine nitrite negative</td><td></td><td></td></tr><tr><td>Hemoglobin [Presence] in Urine by Test strip</td><td>Urine blood test = negative</td><td></td><td></td></tr><tr><td>Leukocyte esterase [Presence] in Urine by Test strip</td><td>Urine leukocyte test negative</td><td></td><td></td></tr><tr><td>Hemoglobin A1c/Hemoglobin.total in Blood</td><td><strong>3.4 L</strong></td><td>4 - 6</td><td>%</td></tr><tr><td>Glucose [Mass/volume] in Blood</td><td>89.6</td><td>70 - 140</td><td>mg/dL</td></tr><tr><td>Urea nitrogen [Mass/volume] in Blood</td><td>7.4</td><td>7 - 25</td><td>mg/dL</td></tr><tr><td>Creatinine [Mass/volume] in Blood</td><td><strong>1.8 H</strong></td><td>0.6 - 1.1</td><td>mg/dL</td></tr><tr><td>Calcium [Mass/volume] in Blood</td><td>10.1</td><td>8.6 - 10.4</td><td>mg/dL</td></tr><tr><td>Sodium [Moles/volume] in Blood</td><td>138.8</td><td>135 - 145</td><td>mmol/L</td></tr><tr><td>Potassium [Moles/volume] in Blood</td><td>3.8</td><td>3.5 - 5.1</td><td>mmol/L</td></tr><tr><td>Chloride [Moles/volume] in Blood</td><td>106.4</td><td>98 - 110</td><td>mmol/L</td></tr><tr><td>Carbon dioxide, total [Moles/volume] in Blood</td><td><strong>21.3 L</strong></td><td>22 - 29</td><td>mmol/L</td></tr><tr><td>Cholesterol [Mass/volume] in Serum or Plasma</td><td>181.3</td><td>130 - 200</td><td>mg/dL</td></tr><tr><td>Triglyceride [Mass/volume] in Serum or Plasma</td><td>110.0</td><td>35 - 150</td><td>mg/dL</td></tr><tr><td>Cholesterol in LDL [Mass/volume] in Serum or Plasma by Direct assay</td><td>111.0</td><td>0 - 130</td><td>mg/dL</td></tr><tr><td>Cholesterol in HDL [Mass/volume] in Serum or Plasma</td><td><strong>48.4 L</strong></td><td>50 - 100</td><td>mg/dL</td></tr></tbody></table></table></div>"
            },
            "entry": [
              {
                "reference": "urn:uuid:d2a3de73-608b-4b85-bb65-39b1c7737eb9"
              },
              {
                "reference": "urn:uuid:7b074639-5bd3-449c-88a0-af92897cc207"
              },
              {
                "reference": "urn:uuid:ab2ba86e-60ab-43dc-b89f-872a8d93098a"
              },
              {
                "reference": "urn:uuid:ca190522-24e9-4c54-8de4-f32a1b6188f5"
              },
              {
                "reference": "urn:uuid:0829ffc6-17a8-42d9-95e4-01f220245739"
              },
              {
                "reference": "urn:uuid:eaf3493a-87ea-4b13-aa87-563b5871d5c1"
              },
              {
                "reference": "urn:uuid:6ad306c0-00d5-411f-a85d-394fba8dae2b"
              },
              {
                "reference": "urn:uuid:feeb8ace-fd01-417e-b124-9dd0093cff01"
              },
              {
                "reference": "urn:uuid:bfeaa4b6-a7a6-4bf8-9018-db9a1c0ad147"
              },
              {
                "reference": "urn:uuid:a41b9e0b-7e07-4612-8321-9956c0d43d43"
              },
              {
                "reference": "urn:uuid:fea1124d-5536-4e4f-ab32-0f2159942c7b"
              },
              {
                "reference": "urn:uuid:64e8c95d-96cb-471d-80ee-f063b20b7fb0"
              },
              {
                "reference": "urn:uuid:1a0551b1-230c-4d20-8969-5fb4b38e1b10"
              },
              {
                "reference": "urn:uuid:f8d1cc6f-e70b-4c90-abe2-b7a2305dfafe"
              },
              {
                "reference": "urn:uuid:9ca758f0-9d5c-465b-8ded-90991b5ce9ea"
              },
              {
                "reference": "urn:uuid:76182434-c312-4c4f-9343-cd25f1684199"
              },
              {
                "reference": "urn:uuid:78945abb-a069-42df-a2eb-216da6628375"
              },
              {
                "reference": "urn:uuid:d585050a-f91e-45c3-a058-4ac9e3e283aa"
              },
              {
                "reference": "urn:uuid:90a49c17-d88f-4e71-9219-b95d5a3dfaba"
              },
              {
                "reference": "urn:uuid:bf29b41c-c65a-482d-b57f-da42f3cd046e"
              },
              {
                "reference": "urn:uuid:14566837-ca8c-4e33-b322-bb135ee773ae"
              },
              {
                "reference": "urn:uuid:047e0a0d-d020-4227-9ebb-4f78baec99e5"
              },
              {
                "reference": "urn:uuid:a6092203-4d1b-4c53-a583-f50adc14e702"
              },
              {
                "reference": "urn:uuid:902362b7-8f08-4c10-afc5-187b4ab0f902"
              },
              {
                "reference": "urn:uuid:474346c0-2c05-45e0-9bdb-0480afe9dac6"
              },
              {
                "reference": "urn:uuid:8d4495b0-d0ee-496c-b64a-7a3f7af66178"
              },
              {
                "reference": "urn:uuid:8e6276a2-1596-44b7-a738-e09f36aa3ba6"
              },
              {
                "reference": "urn:uuid:29ac0be1-567e-448e-bff7-a90bc9b56e8e"
              },
              {
                "reference": "urn:uuid:93dcd78d-7c7c-487f-bf9c-ec2878bb3fe9"
              },
              {
                "reference": "urn:uuid:ba40dea1-7bb1-4267-9639-2f4a5c010aee"
              },
              {
                "reference": "urn:uuid:6bfa3d92-ce88-4b74-bf7d-4a84031c1d99"
              },
              {
                "reference": "urn:uuid:90c25843-142a-4d54-b041-87f0fb52b07c"
              },
              {
                "reference": "urn:uuid:518bd7d8-1768-47a0-bddd-9cfc05a1a731"
              },
              {
                "reference": "urn:uuid:5a3a45b6-61ff-4cda-b6f0-f4de2ad9cea4"
              },
              {
                "reference": "urn:uuid:519baa79-c32f-4c85-abac-0953eef8c477"
              },
              {
                "reference": "urn:uuid:f684b764-bc7e-4a8d-911c-e7c77b469007"
              },
              {
                "reference": "urn:uuid:0a2acf88-6afd-450f-8464-b75ad50ad65c"
              },
              {
                "reference": "urn:uuid:f2ecc5b0-b026-44f9-acb1-01b05ddcbfb5"
              }
            ],
            "code": {
              "coding": [
                {
                  "system": "http://loinc.org",
                  "code": "30954-2",
                  "display": "Relevant diagnostic tests/laboratory data note"
                }
              ]
            },
            "title": "Relevant diagnostic tests/laboratory data"
          },
          {
            "text": {
              "status": "generated",
              "div": "<div xmlns=\"http://www.w3.org/1999/xhtml\"><table class=\"hl7__ips\"><tr><th>Device</th><th>Date (since)</th></tr><tr><td>Blood glucose meter (physical object)</td><td><span class=\"nb\">27-Dec-2009</span></td></tr><tr><td>Manual wheelchair (physical object)</td><td><span class=\"nb\">05-Apr-1998</span></td></tr><tr><td>Wheelchair accessory (physical object)</td><td><span class=\"nb\">05-Apr-1998</span></td></tr><tr><td>Home nebulizer (physical object)</td><td><span class=\"nb\">17-May-1992</span></td></tr></table></div>"
            },
            "entry": [
              {
                "reference": "urn:uuid:1915609c-e53a-41af-a2ea-65cf73b11327"
              },
              {
                "reference": "urn:uuid:950364f8-3ff4-412b-b61c-d4058df2aefc"
              },
              {
                "reference": "urn:uuid:0e564b32-cc56-4dac-8941-ad0c19eae5f2"
              },
              {
                "reference": "urn:uuid:14de9713-ff87-473a-9fe8-b0e1e36808e8"
              }
            ],
            "code": {
              "coding": [
                {
                  "system": "http://loinc.org",
                  "code": "46264-8",
                  "display": "History of medical device use"
                }
              ]
            },
            "title": "Device Use"
          }
        ],
        "title": "European Patient Summary",
        "status": "final",
        "subject": {
          "reference": "urn:uuid:6e94afa9-6401-4575-be50-05ea0e9f060f",
          "display": "Iva Kratochvílová"
        },
        "custodian": {
          "reference": "urn:uuid:bc71e1aa-190a-495d-80f6-717d60075fb3"
        },
        "date": "2025-03-23",
        "confidentiality": "N"
      }
    },
    {
      "fullUrl": "urn:uuid:6e94afa9-6401-4575-be50-05ea0e9f060f",
      "resource": {
        "resourceType": "Patient",
        "id": "6e94afa9-6401-4575-be50-05ea0e9f060f",
        "meta": {
          "security": [
            {
              "system": "http://terminology.hl7.org/CodeSystem/v3-ActReason",
              "code": "HTEST"
            },
            {
              "system": "http://terminology.hl7.org/CodeSystem/v3-ActReason",
              "code": "TRAIN"
            }
          ],
          "tag": [
            {
              "system": "https://synderai.net/fhir/CodeSystem/tags",
              "code": "synthetic",
              "display": "SYNDERAI Synthetic data"
            }
          ],
          "profile": [
            "http://hl7.eu/fhir/eps/StructureDefinition/patient-eu-eps"
          ]
        },
        "identifier": [
          {
            "type": {
              "coding": [
                {
                  "code": "PT",
                  "system": "http://terminology.hl7.org/CodeSystem/v2-0203"
                }
              ]
            },
            "system": "http://ec.europa.eu/identifier/eci",
            "value": "4380-389488-0"
          },
          {
            "type": {
              "coding": [
                {
                  "code": "MR",
                  "system": "http://terminology.hl7.org/CodeSystem/v2-0203"
                }
              ]
            },
            "system": "http://local.setting.eu/identifier",
            "value": "f8f9ebdc-03dd-2fc0-819c-affa4ffd7f67"
          }
        ],
        "name": [
          {
            "family": "Kratochvílová"
          },
          {
            "given": [
              "Iva"
            ]
          },
          {
            "text": "Iva Kratochvílová"
          }
        ],
        "address": [
          {
            "line": [
              "Žofie Podlipské 4"
            ],
            "use": "home",
            "type": "physical",
            "postalCode": "27324",
            "city": "Postoloprty",
            "country": "Czechia"
          }
        ],
        "telecom": [
          {
            "system": "phone",
            "value": "00420 607 985 072"
          }
        ],
        "extension": [
          {
            "url": "http://hl7.org/fhir/StructureDefinition/patient-nationality",
            "valueCodeableConcept": {
              "coding": [
                {
                  "code": "CZ",
                  "system": "http://hl7.org/fhir/ValueSet/country"
                }
              ]
            }
          }
        ],
        "text": {
          "status": "generated",
          "div": "<div xmlns=\"http://www.w3.org/1999/xhtml\"><table class=\"hl7__ips\"><tr><td>Iva Kratochvílová</td><td>female</td><td>17-Sep-1964</td></tr></table></div>"
        },
        "gender": "female",
        "birthDate": "1964-09-17"
      }
    },
    {
      "fullUrl": "urn:uuid:d12a00e7-71dd-4147-951b-24b86d613d3b",
      "resource": {
        "resourceType": "PractitionerRole",
        "id": "d12a00e7-71dd-4147-951b-24b86d613d3b",
        "meta": {
          "profile": [
            "http://hl7.eu/fhir/base/StructureDefinition/practitionerRole-eu"
          ]
        },
        "text": {
          "status": "generated",
          "div": "<div xmlns=\"http://www.w3.org/1999/xhtml\"><table class=\"hl7__ips\">Provider Role Id d12a00e7-71dd-4147-951b-24b86d613d3b</table></div>"
        },
        "practitioner": {
          "reference": "urn:uuid:3cb6ce90-5841-48d5-b8cc-00521b6fdcb1"
        },
        "organization": {
          "reference": "urn:uuid:bc71e1aa-190a-495d-80f6-717d60075fb3"
        }
      }
    },
    {
      "fullUrl": "urn:uuid:3cb6ce90-5841-48d5-b8cc-00521b6fdcb1",
      "resource": {
        "resourceType": "Practitioner",
        "id": "3cb6ce90-5841-48d5-b8cc-00521b6fdcb1",
        "meta": {
          "profile": [
            "http://hl7.eu/fhir/base/StructureDefinition/practitioner-eu"
          ]
        },
        "name": [
          {
            "prefix": [
              "Dr."
            ],
            "given": [
              "Hel"
            ],
            "family": "Ping"
          }
        ],
        "text": {
          "status": "generated",
          "div": "<div xmlns=\"http://www.w3.org/1999/xhtml\"><table class=\"hl7__ips\">Dr. Hel Ping</table></div>"
        }
      }
    },
    {
      "fullUrl": "urn:uuid:bc71e1aa-190a-495d-80f6-717d60075fb3",
      "resource": {
        "resourceType": "Organization",
        "id": "bc71e1aa-190a-495d-80f6-717d60075fb3",
        "meta": {
          "profile": [
            "http://hl7.eu/fhir/base/StructureDefinition/organization-eu"
          ]
        },
        "identifier": [
          {
            "assigner": {
              "display": "HL7 Europe"
            },
            "system": "urn:oid:2.16.840.1.113883.2.51.999",
            "value": "8bccb163-2f17-4b87-b9b3-1c63568795d0"
          }
        ],
        "address": [
          {
            "city": "Kadaň",
            "postalCode": "432 01",
            "country": "Czechia"
          }
        ],
        "text": {
          "status": "generated",
          "div": "<div xmlns=\"http://www.w3.org/1999/xhtml\"><table class=\"hl7__ips\">Nemocnice s poliklinikou Kadaň</table></div>"
        },
        "name": "Nemocnice s poliklinikou Kadaň"
      }
    },
    {
      "fullUrl": "urn:uuid:cc4c0a2c-5d39-4a32-ba31-0367af71aa15",
      "resource": {
        "resourceType": "Condition",
        "id": "cc4c0a2c-5d39-4a32-ba31-0367af71aa15",
        "meta": {
          "profile": [
            "http://hl7.org/fhir/uv/ips/StructureDefinition/Condition-uv-ips"
          ]
        },
        "category": [
          {
            "coding": [
              {
                "code": "problem-list-item",
                "system": "http://terminology.hl7.org/CodeSystem/condition-category",
                "display": "Problem List Item"
              }
            ]
          }
        ],
        "code": {
          "coding": [
            {
              "code": "431856006",
              "system": "http://snomed.info/sct",
              "display": "Chronic kidney disease stage 2 (disorder)"
            }
          ],
          "text": "Chronic kidney disease stage 2"
        },
        "text": {
          "status": "generated",
          "div": "<div xmlns=\"http://www.w3.org/1999/xhtml\"><table class=\"hl7__ips\"><tr><td>Chronic kidney disease stage 2</td><td><span class=\"nb\">22-May-2022</span></td><td>active</td></tr></table></div>"
        },
        "onsetDateTime": "2022-05-22",
        "subject": {
          "reference": "urn:uuid:",
          "display": "Iva Kratochvílová"
        },
        "asserter": {
          "reference": "urn:uuid:",
          "display": "Nemocnice s poliklinikou Kadaň"
        }
      }
    },
    {
      "fullUrl": "urn:uuid:f4dffee5-38c3-42bc-8390-db0b5d383384",
      "resource": {
        "resourceType": "Condition",
        "id": "f4dffee5-38c3-42bc-8390-db0b5d383384",
        "meta": {
          "profile": [
            "http://hl7.org/fhir/uv/ips/StructureDefinition/Condition-uv-ips"
          ]
        },
        "category": [
          {
            "coding": [
              {
                "code": "problem-list-item",
                "system": "http://terminology.hl7.org/CodeSystem/condition-category",
                "display": "Problem List Item"
              }
            ]
          }
        ],
        "code": {
          "coding": [
            {
              "code": "431855005",
              "system": "http://snomed.info/sct",
              "display": "Chronic kidney disease stage 1 (disorder)"
            }
          ],
          "text": "Chronic kidney disease stage 1"
        },
        "text": {
          "status": "generated",
          "div": "<div xmlns=\"http://www.w3.org/1999/xhtml\"><table class=\"hl7__ips\"><tr><td>Chronic kidney disease stage 1</td><td><span class=\"nb\">28-Feb-2021</span></td><td>active</td></tr></table></div>"
        },
        "onsetDateTime": "2021-02-28",
        "subject": {
          "reference": "urn:uuid:",
          "display": "Iva Kratochvílová"
        },
        "asserter": {
          "reference": "urn:uuid:",
          "display": "Nemocnice s poliklinikou Kadaň"
        }
      }
    },
    {
      "fullUrl": "urn:uuid:c2738d8a-623a-4437-bd4c-1d761902b681",
      "resource": {
        "resourceType": "Condition",
        "id": "c2738d8a-623a-4437-bd4c-1d761902b681",
        "meta": {
          "profile": [
            "http://hl7.org/fhir/uv/ips/StructureDefinition/Condition-uv-ips"
          ]
        },
        "category": [
          {
            "coding": [
              {
                "code": "problem-list-item",
                "system": "http://terminology.hl7.org/CodeSystem/condition-category",
                "display": "Problem List Item"
              }
            ]
          }
        ],
        "code": {
          "coding": [
            {
              "code": "237602007",
              "system": "http://snomed.info/sct",
              "display": "Metabolic syndrome X (disorder)"
            }
          ],
          "text": "Metabolic syndrome X"
        },
        "text": {
          "status": "generated",
          "div": "<div xmlns=\"http://www.w3.org/1999/xhtml\"><table class=\"hl7__ips\"><tr><td>Metabolic syndrome X</td><td><span class=\"nb\">19-Jan-2014</span></td><td>active</td></tr></table></div>"
        },
        "onsetDateTime": "2014-01-19",
        "subject": {
          "reference": "urn:uuid:",
          "display": "Iva Kratochvílová"
        },
        "asserter": {
          "reference": "urn:uuid:",
          "display": "Nemocnice s poliklinikou Kadaň"
        }
      }
    },
    {
      "fullUrl": "urn:uuid:de0bdafb-73ca-4431-ad5a-99dfd42d8ff5",
      "resource": {
        "resourceType": "Condition",
        "id": "de0bdafb-73ca-4431-ad5a-99dfd42d8ff5",
        "meta": {
          "profile": [
            "http://hl7.org/fhir/uv/ips/StructureDefinition/Condition-uv-ips"
          ]
        },
        "category": [
          {
            "coding": [
              {
                "code": "problem-list-item",
                "system": "http://terminology.hl7.org/CodeSystem/condition-category",
                "display": "Problem List Item"
              }
            ]
          }
        ],
        "code": {
          "coding": [
            {
              "code": "91302008",
              "system": "http://snomed.info/sct",
              "display": "Sepsis (disorder)"
            }
          ],
          "text": "Sepsis"
        },
        "text": {
          "status": "generated",
          "div": "<div xmlns=\"http://www.w3.org/1999/xhtml\"><table class=\"hl7__ips\"><tr><td>Sepsis</td><td><span class=\"nb\">06-Mar-2011</span></td><td>active</td></tr></table></div>"
        },
        "onsetDateTime": "2011-03-06",
        "subject": {
          "reference": "urn:uuid:",
          "display": "Iva Kratochvílová"
        },
        "asserter": {
          "reference": "urn:uuid:",
          "display": "Nemocnice s poliklinikou Kadaň"
        }
      }
    },
    {
      "fullUrl": "urn:uuid:5ad03a6b-0e07-47b3-834e-80bb5c7ec8ce",
      "resource": {
        "resourceType": "Condition",
        "id": "5ad03a6b-0e07-47b3-834e-80bb5c7ec8ce",
        "meta": {
          "profile": [
            "http://hl7.org/fhir/uv/ips/StructureDefinition/Condition-uv-ips"
          ]
        },
        "category": [
          {
            "coding": [
              {
                "code": "problem-list-item",
                "system": "http://terminology.hl7.org/CodeSystem/condition-category",
                "display": "Problem List Item"
              }
            ]
          }
        ],
        "code": {
          "coding": [
            {
              "code": "271737000",
              "system": "http://snomed.info/sct",
              "display": "Anemia (disorder)"
            }
          ],
          "text": "Anemia"
        },
        "text": {
          "status": "generated",
          "div": "<div xmlns=\"http://www.w3.org/1999/xhtml\"><table class=\"hl7__ips\"><tr><td>Anemia</td><td><span class=\"nb\">09-Jan-2011</span></td><td>active</td></tr></table></div>"
        },
        "onsetDateTime": "2011-01-09",
        "subject": {
          "reference": "urn:uuid:",
          "display": "Iva Kratochvílová"
        },
        "asserter": {
          "reference": "urn:uuid:",
          "display": "Nemocnice s poliklinikou Kadaň"
        }
      }
    },
    {
      "fullUrl": "urn:uuid:babbb94d-f58a-4d0c-ac2d-b82c03f53380",
      "resource": {
        "resourceType": "Condition",
        "id": "babbb94d-f58a-4d0c-ac2d-b82c03f53380",
        "meta": {
          "profile": [
            "http://hl7.org/fhir/uv/ips/StructureDefinition/Condition-uv-ips"
          ]
        },
        "category": [
          {
            "coding": [
              {
                "code": "problem-list-item",
                "system": "http://terminology.hl7.org/CodeSystem/condition-category",
                "display": "Problem List Item"
              }
            ]
          }
        ],
        "code": {
          "coding": [
            {
              "code": "15777000",
              "system": "http://snomed.info/sct",
              "display": "Prediabetes (disorder)"
            }
          ],
          "text": "Prediabetes"
        },
        "text": {
          "status": "generated",
          "div": "<div xmlns=\"http://www.w3.org/1999/xhtml\"><table class=\"hl7__ips\"><tr><td>Prediabetes</td><td><span class=\"nb\">27-Dec-2009</span></td><td>active</td></tr></table></div>"
        },
        "onsetDateTime": "2009-12-27",
        "subject": {
          "reference": "urn:uuid:",
          "display": "Iva Kratochvílová"
        },
        "asserter": {
          "reference": "urn:uuid:",
          "display": "Nemocnice s poliklinikou Kadaň"
        }
      }
    },
    {
      "fullUrl": "urn:uuid:4ef1bf53-02d8-4d5b-ad9c-fecce3dafc33",
      "resource": {
        "resourceType": "Condition",
        "id": "4ef1bf53-02d8-4d5b-ad9c-fecce3dafc33",
        "meta": {
          "profile": [
            "http://hl7.org/fhir/uv/ips/StructureDefinition/Condition-uv-ips"
          ]
        },
        "category": [
          {
            "coding": [
              {
                "code": "problem-list-item",
                "system": "http://terminology.hl7.org/CodeSystem/condition-category",
                "display": "Problem List Item"
              }
            ]
          }
        ],
        "code": {
          "coding": [
            {
              "code": "157141000119108",
              "system": "http://snomed.info/sct",
              "display": "Proteinuria due to type 2 diabetes mellitus (disorder)"
            }
          ],
          "text": "Proteinuria due to type 2 diabetes mellitus"
        },
        "text": {
          "status": "generated",
          "div": "<div xmlns=\"http://www.w3.org/1999/xhtml\"><table class=\"hl7__ips\"><tr><td>Proteinuria due to type 2 diabetes mellitus</td><td><span class=\"nb\">01-Sep-2002</span></td><td>active</td></tr></table></div>"
        },
        "onsetDateTime": "2002-09-01",
        "subject": {
          "reference": "urn:uuid:",
          "display": "Iva Kratochvílová"
        },
        "asserter": {
          "reference": "urn:uuid:",
          "display": "Nemocnice s poliklinikou Kadaň"
        }
      }
    },
    {
      "fullUrl": "urn:uuid:12397833-596d-4893-92f3-f70df6406a5d",
      "resource": {
        "resourceType": "Condition",
        "id": "12397833-596d-4893-92f3-f70df6406a5d",
        "meta": {
          "profile": [
            "http://hl7.org/fhir/uv/ips/StructureDefinition/Condition-uv-ips"
          ]
        },
        "category": [
          {
            "coding": [
              {
                "code": "problem-list-item",
                "system": "http://terminology.hl7.org/CodeSystem/condition-category",
                "display": "Problem List Item"
              }
            ]
          }
        ],
        "code": {
          "coding": [
            {
              "code": "90781000119102",
              "system": "http://snomed.info/sct",
              "display": "Microalbuminuria due to type 2 diabetes mellitus (disorder)"
            }
          ],
          "text": "Microalbuminuria due to type 2 diabetes mellitus"
        },
        "text": {
          "status": "generated",
          "div": "<div xmlns=\"http://www.w3.org/1999/xhtml\"><table class=\"hl7__ips\"><tr><td>Microalbuminuria due to type 2 diabetes mellitus</td><td><span class=\"nb\">04-Aug-2002</span></td><td>active</td></tr></table></div>"
        },
        "onsetDateTime": "2002-08-04",
        "subject": {
          "reference": "urn:uuid:",
          "display": "Iva Kratochvílová"
        },
        "asserter": {
          "reference": "urn:uuid:",
          "display": "Nemocnice s poliklinikou Kadaň"
        }
      }
    },
    {
      "fullUrl": "urn:uuid:c61ca78b-f40b-474e-90c8-55539a158155",
      "resource": {
        "resourceType": "Condition",
        "id": "c61ca78b-f40b-474e-90c8-55539a158155",
        "meta": {
          "profile": [
            "http://hl7.org/fhir/uv/ips/StructureDefinition/Condition-uv-ips"
          ]
        },
        "category": [
          {
            "coding": [
              {
                "code": "problem-list-item",
                "system": "http://terminology.hl7.org/CodeSystem/condition-category",
                "display": "Problem List Item"
              }
            ]
          }
        ],
        "code": {
          "coding": [
            {
              "code": "239872002",
              "system": "http://snomed.info/sct",
              "display": "Osteoarthritis of hip (disorder)"
            }
          ],
          "text": "Osteoarthritis of hip"
        },
        "text": {
          "status": "generated",
          "div": "<div xmlns=\"http://www.w3.org/1999/xhtml\"><table class=\"hl7__ips\"><tr><td>Osteoarthritis of hip</td><td><span class=\"nb\">05-Apr-1998</span></td><td>active</td></tr></table></div>"
        },
        "onsetDateTime": "1998-04-05",
        "subject": {
          "reference": "urn:uuid:",
          "display": "Iva Kratochvílová"
        },
        "asserter": {
          "reference": "urn:uuid:",
          "display": "Nemocnice s poliklinikou Kadaň"
        }
      }
    },
    {
      "fullUrl": "urn:uuid:79212a96-5f35-4cf5-8e65-87ce75d02c8a",
      "resource": {
        "resourceType": "Condition",
        "id": "79212a96-5f35-4cf5-8e65-87ce75d02c8a",
        "meta": {
          "profile": [
            "http://hl7.org/fhir/uv/ips/StructureDefinition/Condition-uv-ips"
          ]
        },
        "category": [
          {
            "coding": [
              {
                "code": "problem-list-item",
                "system": "http://terminology.hl7.org/CodeSystem/condition-category",
                "display": "Problem List Item"
              }
            ]
          }
        ],
        "code": {
          "coding": [
            {
              "code": "40055000",
              "system": "http://snomed.info/sct",
              "display": "Chronic sinusitis (disorder)"
            }
          ],
          "text": "Chronic sinusitis"
        },
        "text": {
          "status": "generated",
          "div": "<div xmlns=\"http://www.w3.org/1999/xhtml\"><table class=\"hl7__ips\"><tr><td>Chronic sinusitis</td><td><span class=\"nb\">17-May-1992</span></td><td>active</td></tr></table></div>"
        },
        "onsetDateTime": "1992-05-17",
        "subject": {
          "reference": "urn:uuid:",
          "display": "Iva Kratochvílová"
        },
        "asserter": {
          "reference": "urn:uuid:",
          "display": "Nemocnice s poliklinikou Kadaň"
        }
      }
    },
    {
      "fullUrl": "urn:uuid:7d29a710-634c-48f7-ab15-ce13f35f0fde",
      "resource": {
        "resourceType": "Condition",
        "id": "7d29a710-634c-48f7-ab15-ce13f35f0fde",
        "meta": {
          "profile": [
            "http://hl7.org/fhir/uv/ips/StructureDefinition/Condition-uv-ips"
          ]
        },
        "category": [
          {
            "coding": [
              {
                "code": "problem-list-item",
                "system": "http://terminology.hl7.org/CodeSystem/condition-category",
                "display": "Problem List Item"
              }
            ]
          }
        ],
        "code": {
          "coding": [
            {
              "code": "127013003",
              "system": "http://snomed.info/sct",
              "display": "Disorder of kidney due to diabetes mellitus (disorder)"
            }
          ],
          "text": "Disorder of kidney due to diabetes mellitus"
        },
        "text": {
          "status": "generated",
          "div": "<div xmlns=\"http://www.w3.org/1999/xhtml\"><table class=\"hl7__ips\"><tr><td>Disorder of kidney due to diabetes mellitus</td><td><span class=\"nb\">08-Jul-1990</span></td><td>active</td></tr></table></div>"
        },
        "onsetDateTime": "1990-07-08",
        "subject": {
          "reference": "urn:uuid:",
          "display": "Iva Kratochvílová"
        },
        "asserter": {
          "reference": "urn:uuid:",
          "display": "Nemocnice s poliklinikou Kadaň"
        }
      }
    },
    {
      "fullUrl": "urn:uuid:d96fe43f-304f-44c9-adca-79a09f56408b",
      "resource": {
        "resourceType": "Condition",
        "id": "d96fe43f-304f-44c9-adca-79a09f56408b",
        "meta": {
          "profile": [
            "http://hl7.org/fhir/uv/ips/StructureDefinition/Condition-uv-ips"
          ]
        },
        "category": [
          {
            "coding": [
              {
                "code": "problem-list-item",
                "system": "http://terminology.hl7.org/CodeSystem/condition-category",
                "display": "Problem List Item"
              }
            ]
          }
        ],
        "code": {
          "coding": [
            {
              "code": "59621000",
              "system": "http://snomed.info/sct",
              "display": "Essential hypertension (disorder)"
            }
          ],
          "text": "Essential hypertension"
        },
        "text": {
          "status": "generated",
          "div": "<div xmlns=\"http://www.w3.org/1999/xhtml\"><table class=\"hl7__ips\"><tr><td>Essential hypertension</td><td><span class=\"nb\">31-Jul-1983</span></td><td>active</td></tr></table></div>"
        },
        "onsetDateTime": "1983-07-31",
        "subject": {
          "reference": "urn:uuid:",
          "display": "Iva Kratochvílová"
        },
        "asserter": {
          "reference": "urn:uuid:",
          "display": "Nemocnice s poliklinikou Kadaň"
        }
      }
    },
    {
      "fullUrl": "urn:uuid:672668cb-66fd-45b7-bb9f-903ca4cf9c89",
      "resource": {
        "resourceType": "Condition",
        "id": "672668cb-66fd-45b7-bb9f-903ca4cf9c89",
        "meta": {
          "profile": [
            "http://hl7.org/fhir/uv/ips/StructureDefinition/Condition-uv-ips"
          ]
        },
        "category": [
          {
            "coding": [
              {
                "code": "problem-list-item",
                "system": "http://terminology.hl7.org/CodeSystem/condition-category",
                "display": "Problem List Item"
              }
            ]
          }
        ],
        "code": {
          "coding": [
            {
              "code": "195662009",
              "system": "http://snomed.info/sct",
              "display": "Acute viral pharyngitis (disorder)"
            }
          ],
          "text": "Acute viral pharyngitis"
        },
        "text": {
          "status": "generated",
          "div": "<div xmlns=\"http://www.w3.org/1999/xhtml\"><table class=\"hl7__ips\"><tr><td><span class=\"grayedout\">Acute viral pharyngitis</span></td><td><span class=\"nb\">30-Dec-2021 - 07-Jan-2022</span></td><td><span class=\"grayedout\">inactive</span></td></tr></table></div>"
        },
        "onsetDateTime": "2021-12-30",
        "abatementDateTime": "2022-01-07",
        "subject": {
          "reference": "urn:uuid:",
          "display": "Iva Kratochvílová"
        },
        "asserter": {
          "reference": "urn:uuid:",
          "display": "Nemocnice s poliklinikou Kadaň"
        }
      }
    },
    {
      "fullUrl": "urn:uuid:613aa8d1-8c21-4b08-a126-45202953a0d3",
      "resource": {
        "resourceType": "Condition",
        "id": "613aa8d1-8c21-4b08-a126-45202953a0d3",
        "meta": {
          "profile": [
            "http://hl7.org/fhir/uv/ips/StructureDefinition/Condition-uv-ips"
          ]
        },
        "category": [
          {
            "coding": [
              {
                "code": "problem-list-item",
                "system": "http://terminology.hl7.org/CodeSystem/condition-category",
                "display": "Problem List Item"
              }
            ]
          }
        ],
        "code": {
          "coding": [
            {
              "code": "444814009",
              "system": "http://snomed.info/sct",
              "display": "Viral sinusitis (disorder)"
            }
          ],
          "text": "Viral sinusitis"
        },
        "text": {
          "status": "generated",
          "div": "<div xmlns=\"http://www.w3.org/1999/xhtml\"><table class=\"hl7__ips\"><tr><td><span class=\"grayedout\">Viral sinusitis</span></td><td><span class=\"nb\">28-Mar-2021 - 18-Apr-2021</span></td><td><span class=\"grayedout\">inactive</span></td></tr></table></div>"
        },
        "onsetDateTime": "2021-03-28",
        "abatementDateTime": "2021-04-18",
        "subject": {
          "reference": "urn:uuid:",
          "display": "Iva Kratochvílová"
        },
        "asserter": {
          "reference": "urn:uuid:",
          "display": "Nemocnice s poliklinikou Kadaň"
        }
      }
    },
    {
      "fullUrl": "urn:uuid:182b3a29-94b1-4416-b28f-cb4cbcd9fe37",
      "resource": {
        "resourceType": "Condition",
        "id": "182b3a29-94b1-4416-b28f-cb4cbcd9fe37",
        "meta": {
          "profile": [
            "http://hl7.org/fhir/uv/ips/StructureDefinition/Condition-uv-ips"
          ]
        },
        "category": [
          {
            "coding": [
              {
                "code": "problem-list-item",
                "system": "http://terminology.hl7.org/CodeSystem/condition-category",
                "display": "Problem List Item"
              }
            ]
          }
        ],
        "code": {
          "coding": [
            {
              "code": "431857002",
              "system": "http://snomed.info/sct",
              "display": "Chronic kidney disease stage 4 (disorder)"
            }
          ],
          "text": "Chronic kidney disease stage 4"
        },
        "text": {
          "status": "generated",
          "div": "<div xmlns=\"http://www.w3.org/1999/xhtml\"><table class=\"hl7__ips\"><tr><td><span class=\"grayedout\">Chronic kidney disease stage 4</span></td><td><span class=\"nb\">20-Feb-2011 - 07-May-2016</span></td><td><span class=\"grayedout\">inactive</span></td></tr></table></div>"
        },
        "onsetDateTime": "2011-02-20",
        "abatementDateTime": "2016-05-07",
        "subject": {
          "reference": "urn:uuid:",
          "display": "Iva Kratochvílová"
        },
        "asserter": {
          "reference": "urn:uuid:",
          "display": "Nemocnice s poliklinikou Kadaň"
        }
      }
    },
    {
      "fullUrl": "urn:uuid:f8ca0cb2-e307-4d95-8fb7-e349e7a926ba",
      "resource": {
        "resourceType": "Condition",
        "id": "f8ca0cb2-e307-4d95-8fb7-e349e7a926ba",
        "meta": {
          "profile": [
            "http://hl7.org/fhir/uv/ips/StructureDefinition/Condition-uv-ips"
          ]
        },
        "category": [
          {
            "coding": [
              {
                "code": "problem-list-item",
                "system": "http://terminology.hl7.org/CodeSystem/condition-category",
                "display": "Problem List Item"
              }
            ]
          }
        ],
        "code": {
          "coding": [
            {
              "code": "433144002",
              "system": "http://snomed.info/sct",
              "display": "Chronic kidney disease stage 3 (disorder)"
            }
          ],
          "text": "Chronic kidney disease stage 3"
        },
        "text": {
          "status": "generated",
          "div": "<div xmlns=\"http://www.w3.org/1999/xhtml\"><table class=\"hl7__ips\"><tr><td><span class=\"grayedout\">Chronic kidney disease stage 3</span></td><td><span class=\"nb\">01-Sep-2002 - 07-May-2016</span></td><td><span class=\"grayedout\">inactive</span></td></tr></table></div>"
        },
        "onsetDateTime": "2002-09-01",
        "abatementDateTime": "2016-05-07",
        "subject": {
          "reference": "urn:uuid:",
          "display": "Iva Kratochvílová"
        },
        "asserter": {
          "reference": "urn:uuid:",
          "display": "Nemocnice s poliklinikou Kadaň"
        }
      }
    },
    {
      "fullUrl": "urn:uuid:f8d438cb-e12e-48a6-b96c-077a6dc42d8d",
      "resource": {
        "resourceType": "Condition",
        "id": "f8d438cb-e12e-48a6-b96c-077a6dc42d8d",
        "meta": {
          "profile": [
            "http://hl7.org/fhir/uv/ips/StructureDefinition/Condition-uv-ips"
          ]
        },
        "category": [
          {
            "coding": [
              {
                "code": "problem-list-item",
                "system": "http://terminology.hl7.org/CodeSystem/condition-category",
                "display": "Problem List Item"
              }
            ]
          }
        ],
        "code": {
          "coding": [
            {
              "code": "431856006",
              "system": "http://snomed.info/sct",
              "display": "Chronic kidney disease stage 2 (disorder)"
            }
          ],
          "text": "Chronic kidney disease stage 2"
        },
        "text": {
          "status": "generated",
          "div": "<div xmlns=\"http://www.w3.org/1999/xhtml\"><table class=\"hl7__ips\"><tr><td><span class=\"grayedout\">Chronic kidney disease stage 2</span></td><td><span class=\"nb\">04-Aug-2002 - 07-May-2016</span></td><td><span class=\"grayedout\">inactive</span></td></tr></table></div>"
        },
        "onsetDateTime": "2002-08-04",
        "abatementDateTime": "2016-05-07",
        "subject": {
          "reference": "urn:uuid:",
          "display": "Iva Kratochvílová"
        },
        "asserter": {
          "reference": "urn:uuid:",
          "display": "Nemocnice s poliklinikou Kadaň"
        }
      }
    },
    {
      "fullUrl": "urn:uuid:dac63db3-3af9-46c3-98bf-04f7f91ccedd",
      "resource": {
        "resourceType": "Condition",
        "id": "dac63db3-3af9-46c3-98bf-04f7f91ccedd",
        "meta": {
          "profile": [
            "http://hl7.org/fhir/uv/ips/StructureDefinition/Condition-uv-ips"
          ]
        },
        "category": [
          {
            "coding": [
              {
                "code": "problem-list-item",
                "system": "http://terminology.hl7.org/CodeSystem/condition-category",
                "display": "Problem List Item"
              }
            ]
          }
        ],
        "code": {
          "coding": [
            {
              "code": "431855005",
              "system": "http://snomed.info/sct",
              "display": "Chronic kidney disease stage 1 (disorder)"
            }
          ],
          "text": "Chronic kidney disease stage 1"
        },
        "text": {
          "status": "generated",
          "div": "<div xmlns=\"http://www.w3.org/1999/xhtml\"><table class=\"hl7__ips\"><tr><td><span class=\"grayedout\">Chronic kidney disease stage 1</span></td><td><span class=\"nb\">08-Jul-1990 - 07-May-2016</span></td><td><span class=\"grayedout\">inactive</span></td></tr></table></div>"
        },
        "onsetDateTime": "1990-07-08",
        "abatementDateTime": "2016-05-07",
        "subject": {
          "reference": "urn:uuid:",
          "display": "Iva Kratochvílová"
        },
        "asserter": {
          "reference": "urn:uuid:",
          "display": "Nemocnice s poliklinikou Kadaň"
        }
      }
    },
    {
      "fullUrl": "urn:uuid:53cda99e-7de3-420d-9fe5-b8c47ed48dc3",
      "resource": {
        "resourceType": "Medication",
        "id": "53cda99e-7de3-420d-9fe5-b8c47ed48dc3",
        "meta": {
          "profile": [
            "http://hl7.eu/fhir/eps/StructureDefinition/Medication-eu-eps"
          ]
        },
        "code": {
          "coding": [
            {
              "code": "106892",
              "system": "http://www.nlm.nih.gov/research/umls/rxnorm",
              "display": "insulin isophane  human 70 UNT/ML / insulin  regular  human 30 UNT/ML Injectable Suspension [Humulin]"
            }
          ],
          "text": "insulin isophane  human 70 UNT/ML / insulin  regular  human 30 UNT/ML Injectable Suspension [Humulin]"
        },
        "text": {
          "status": "generated",
          "div": "<div xmlns=\"http://www.w3.org/1999/xhtml\">insulin isophane human 70 UNT/ML / insulin regular human 30 UNT/ML Injectable Suspension [Humulin]</div>"
        }
      }
    },
    {
      "fullUrl": "urn:uuid:bc7bf681-d8b1-418f-bfda-20cfbb186d77",
      "resource": {
        "resourceType": "MedicationStatement",
        "id": "bc7bf681-d8b1-418f-bfda-20cfbb186d77",
        "meta": {
          "profile": [
            "http://hl7.eu/fhir/eps/StructureDefinition/MedicationStatement-eu-eps"
          ]
        },
        "effectivePeriod": {
          "start": "2025-03-23"
        },
        "dosage": [
          {
            "doseAndRate": [
              {
                "doseQuantity": {
                  "value": 10,
                  "unit": "U",
                  "system": "$ucum",
                  "code": "U"
                }
              }
            ],
            "timing": {
              "repeat": {
                "frequency": 2,
                "period": 1,
                "periodUnit": "d"
              }
            },
            "text": "10 units subcutaneously before breakfast and dinner",
            "asNeededBoolean": false
          }
        ],
        "reasonCode": [
          {
            "coding": [
              {
                "code": "15777000",
                "system": "http://snomed.info/sct",
                "display": "Prediabetes"
              }
            ]
          }
        ],
        "text": {
          "status": "generated",
          "div": "<div xmlns=\"http://www.w3.org/1999/xhtml\"><table class=\"hl7__ips first25\"><tr><th>Medication</th><th>Since</th><th>Form</th><th>Dosage</th><th>Reason</th></tr><tr><td>insulin isophane human 70 UNT/ML / insulin regular human 30 UNT/ML Injectable Suspension [Humulin]</td><td><span class=\"nb\">2025-03-23</span></td><td>-</td><td>10 units subcutaneously before breakfast and dinner</td><td>Prediabetes</td></tr></table></div>"
        },
        "status": "active",
        "medicationReference": {
          "reference": "urn:uuid:53cda99e-7de3-420d-9fe5-b8c47ed48dc3",
          "display": "insulin isophane  human 70 UNT/ML / insulin  regular  human 30 UNT/ML Injectable Suspension [Humulin]"
        },
        "subject": {
          "reference": "urn:uuid:6e94afa9-6401-4575-be50-05ea0e9f060f",
          "display": "Iva Kratochvílová"
        }
      }
    },
    {
      "fullUrl": "urn:uuid:57a2008e-13ae-4de2-98dd-86de496981dc",
      "resource": {
        "resourceType": "Medication",
        "id": "57a2008e-13ae-4de2-98dd-86de496981dc",
        "meta": {
          "profile": [
            "http://hl7.eu/fhir/eps/StructureDefinition/Medication-eu-eps"
          ]
        },
        "code": {
          "coding": [
            {
              "code": "376209006",
              "system": "http://snomed.info/sct",
              "display": "Hydrochlorothiazide 25 mg oral tablet"
            }
          ],
          "text": "Hydrochlorothiazide 25 mg oral tablet"
        },
        "text": {
          "status": "generated",
          "div": "<div xmlns=\"http://www.w3.org/1999/xhtml\">Hydrochlorothiazide 25 mg oral tablet</div>"
        }
      }
    },
    {
      "fullUrl": "urn:uuid:ff1464f5-b2e9-4acb-b306-b5283617c1af",
      "resource": {
        "resourceType": "MedicationStatement",
        "id": "ff1464f5-b2e9-4acb-b306-b5283617c1af",
        "meta": {
          "profile": [
            "http://hl7.eu/fhir/eps/StructureDefinition/MedicationStatement-eu-eps"
          ]
        },
        "effectivePeriod": {
          "start": "2025-03-23"
        },
        "dosage": [
          {
            "doseAndRate": [
              {
                "doseQuantity": {
                  "value": 1,
                  "unit": "{tbl}",
                  "code": "{tbl}"
                }
              }
            ],
            "timing": {
              "repeat": {
                "frequency": 1,
                "period": 1,
                "periodUnit": "d"
              }
            },
            "text": "1 tablet (25 mg) by mouth once daily",
            "asNeededBoolean": false
          }
        ],
        "reasonCode": [
          {
            "coding": [
              {
                "code": "59621000",
                "system": "http://snomed.info/sct",
                "display": "Essential hypertension (disorder)"
              }
            ]
          }
        ],
        "text": {
          "status": "generated",
          "div": "<div xmlns=\"http://www.w3.org/1999/xhtml\"><table class=\"hl7__ips first25\"><tr><th>Medication</th><th>Since</th><th>Form</th><th>Dosage</th><th>Reason</th></tr><tr><td>Hydrochlorothiazide 25 mg oral tablet</td><td><span class=\"nb\">2025-03-23</span></td><td>-</td><td>1 tablet (25 mg) by mouth once daily</td><td>Essential hypertension (disorder)</td></tr></table></div>"
        },
        "status": "active",
        "medicationReference": {
          "reference": "urn:uuid:57a2008e-13ae-4de2-98dd-86de496981dc",
          "display": "Hydrochlorothiazide 25 mg oral tablet"
        },
        "subject": {
          "reference": "urn:uuid:6e94afa9-6401-4575-be50-05ea0e9f060f",
          "display": "Iva Kratochvílová"
        }
      }
    },
    {
      "fullUrl": "urn:uuid:134adb3d-07b8-4d1e-880a-1f3ca088e246",
      "resource": {
        "resourceType": "Medication",
        "id": "134adb3d-07b8-4d1e-880a-1f3ca088e246",
        "meta": {
          "profile": [
            "http://hl7.eu/fhir/eps/StructureDefinition/Medication-eu-eps"
          ]
        },
        "code": {
          "coding": [
            {
              "code": "420397007",
              "system": "http://snomed.info/sct",
              "display": "Acetaminophen 300 mg and hydrocodone bitartrate 5 mg oral tablet"
            }
          ],
          "text": "Acetaminophen 300 mg and hydrocodone bitartrate 5 mg oral tablet"
        },
        "text": {
          "status": "generated",
          "div": "<div xmlns=\"http://www.w3.org/1999/xhtml\">Acetaminophen 300 mg and hydrocodone bitartrate 5 mg oral tablet</div>"
        }
      }
    },
    {
      "fullUrl": "urn:uuid:cc032619-bed6-470c-a528-adb1cb9de1b1",
      "resource": {
        "resourceType": "MedicationStatement",
        "id": "cc032619-bed6-470c-a528-adb1cb9de1b1",
        "meta": {
          "profile": [
            "http://hl7.eu/fhir/eps/StructureDefinition/MedicationStatement-eu-eps"
          ]
        },
        "effectivePeriod": {
          "start": "2025-03-23"
        },
        "dosage": [
          {
            "doseAndRate": [
              {
                "doseQuantity": {
                  "value": 1,
                  "unit": "{tbl}",
                  "system": "$ucum",
                  "code": "{tbl}"
                }
              }
            ],
            "timing": {
              "repeat": {
                "frequency": 1,
                "period": 4,
                "periodUnit": "h"
              }
            },
            "text": "1 tablet (300 mg/5 mg) by mouth every 4 to 6 hours as needed for pain",
            "asNeededBoolean": true
          }
        ],
        "text": {
          "status": "generated",
          "div": "<div xmlns=\"http://www.w3.org/1999/xhtml\"><table class=\"hl7__ips first25\"><tr><th>Medication</th><th>Since</th><th>Form</th><th>Dosage</th><th>Reason</th></tr><tr><td>Acetaminophen 300 mg and hydrocodone bitartrate 5 mg oral tablet</td><td><span class=\"nb\">2025-03-23</span></td><td>-</td><td>1 tablet (300 mg/5 mg) by mouth every 4 to 6 hours as needed for pain</td><td>-</td></tr></table></div>"
        },
        "status": "active",
        "medicationReference": {
          "reference": "urn:uuid:134adb3d-07b8-4d1e-880a-1f3ca088e246",
          "display": "Acetaminophen 300 mg and hydrocodone bitartrate 5 mg oral tablet"
        },
        "subject": {
          "reference": "urn:uuid:6e94afa9-6401-4575-be50-05ea0e9f060f",
          "display": "Iva Kratochvílová"
        }
      }
    },
    {
      "fullUrl": "urn:uuid:31ed8142-d1ff-460c-b02d-40dc030f25e3",
      "resource": {
        "resourceType": "Medication",
        "id": "31ed8142-d1ff-460c-b02d-40dc030f25e3",
        "meta": {
          "profile": [
            "http://hl7.eu/fhir/eps/StructureDefinition/Medication-eu-eps"
          ]
        },
        "code": {
          "coding": [
            {
              "code": "1049504",
              "system": "http://www.nlm.nih.gov/research/umls/rxnorm",
              "display": "Abuse-Deterrent 12 HR Oxycodone Hydrochloride 10 MG Extended Release Oral Tablet [Oxycontin]"
            }
          ],
          "text": "Abuse-Deterrent 12 HR Oxycodone Hydrochloride 10 MG Extended Release Oral Tablet [Oxycontin]"
        },
        "text": {
          "status": "generated",
          "div": "<div xmlns=\"http://www.w3.org/1999/xhtml\">Abuse-Deterrent 12 HR Oxycodone Hydrochloride 10 MG Extended Release Oral Tablet [Oxycontin]</div>"
        }
      }
    },
    {
      "fullUrl": "urn:uuid:6d852884-686e-41ab-964d-2e5bb745d936",
      "resource": {
        "resourceType": "MedicationStatement",
        "id": "6d852884-686e-41ab-964d-2e5bb745d936",
        "meta": {
          "profile": [
            "http://hl7.eu/fhir/eps/StructureDefinition/MedicationStatement-eu-eps"
          ]
        },
        "effectivePeriod": {
          "start": "2025-03-23"
        },
        "dosage": [
          {
            "doseAndRate": [
              {
                "doseQuantity": {
                  "value": 1,
                  "unit": "{tbl}",
                  "system": "$ucum",
                  "code": "{tbl}"
                }
              }
            ],
            "timing": {
              "repeat": {
                "frequency": 2,
                "period": 1,
                "periodUnit": "d"
              }
            },
            "text": "1 tablet (10 mg) every 12 hours",
            "asNeededBoolean": false
          }
        ],
        "text": {
          "status": "generated",
          "div": "<div xmlns=\"http://www.w3.org/1999/xhtml\"><table class=\"hl7__ips first25\"><tr><th>Medication</th><th>Since</th><th>Form</th><th>Dosage</th><th>Reason</th></tr><tr><td>Abuse-Deterrent 12 HR Oxycodone Hydrochloride 10 MG Extended Release Oral Tablet [Oxycontin]</td><td><span class=\"nb\">2025-03-23</span></td><td>-</td><td>1 tablet (10 mg) every 12 hours</td><td>-</td></tr></table></div>"
        },
        "status": "active",
        "medicationReference": {
          "reference": "urn:uuid:31ed8142-d1ff-460c-b02d-40dc030f25e3",
          "display": "Abuse-Deterrent 12 HR Oxycodone Hydrochloride 10 MG Extended Release Oral Tablet [Oxycontin]"
        },
        "subject": {
          "reference": "urn:uuid:6e94afa9-6401-4575-be50-05ea0e9f060f",
          "display": "Iva Kratochvílová"
        }
      }
    },
    {
      "fullUrl": "urn:uuid:7cdb0ffd-2e07-4bcd-941b-931e2c6f25d3",
      "resource": {
        "resourceType": "Medication",
        "id": "7cdb0ffd-2e07-4bcd-941b-931e2c6f25d3",
        "meta": {
          "profile": [
            "http://hl7.eu/fhir/eps/StructureDefinition/Medication-eu-eps"
          ]
        },
        "code": {
          "coding": [
            {
              "code": "1664463",
              "system": "http://www.nlm.nih.gov/research/umls/rxnorm",
              "display": "24 HR tacrolimus 1 MG Extended Release Oral Tablet"
            }
          ],
          "text": "24 HR tacrolimus 1 MG Extended Release Oral Tablet"
        },
        "text": {
          "status": "generated",
          "div": "<div xmlns=\"http://www.w3.org/1999/xhtml\">24 HR tacrolimus 1 MG Extended Release Oral Tablet</div>"
        }
      }
    },
    {
      "fullUrl": "urn:uuid:9490b62b-a573-4075-9f7f-b3582e1a6419",
      "resource": {
        "resourceType": "MedicationStatement",
        "id": "9490b62b-a573-4075-9f7f-b3582e1a6419",
        "meta": {
          "profile": [
            "http://hl7.eu/fhir/eps/StructureDefinition/MedicationStatement-eu-eps"
          ]
        },
        "effectivePeriod": {
          "start": "2025-03-23"
        },
        "dosage": [
          {
            "doseAndRate": [
              {
                "doseQuantity": {
                  "value": 1,
                  "unit": "{tbl}",
                  "system": "$ucum",
                  "code": "{tbl}"
                }
              }
            ],
            "timing": {
              "repeat": {
                "frequency": 1,
                "period": 1,
                "periodUnit": "d"
              }
            },
            "text": "1 tablet (1 mg) by mouth once daily",
            "asNeededBoolean": false
          }
        ],
        "reasonCode": [
          {
            "coding": [
              {
                "code": "161665007",
                "system": "http://snomed.info/sct",
                "display": "History of renal transplant (situation)"
              }
            ]
          }
        ],
        "text": {
          "status": "generated",
          "div": "<div xmlns=\"http://www.w3.org/1999/xhtml\"><table class=\"hl7__ips first25\"><tr><th>Medication</th><th>Since</th><th>Form</th><th>Dosage</th><th>Reason</th></tr><tr><td>24 HR tacrolimus 1 MG Extended Release Oral Tablet</td><td><span class=\"nb\">2025-03-23</span></td><td>-</td><td>1 tablet (1 mg) by mouth once daily</td><td>History of renal transplant (situation)</td></tr></table></div>"
        },
        "status": "active",
        "medicationReference": {
          "reference": "urn:uuid:7cdb0ffd-2e07-4bcd-941b-931e2c6f25d3",
          "display": "24 HR tacrolimus 1 MG Extended Release Oral Tablet"
        },
        "subject": {
          "reference": "urn:uuid:6e94afa9-6401-4575-be50-05ea0e9f060f",
          "display": "Iva Kratochvílová"
        }
      }
    },
    {
      "fullUrl": "urn:uuid:5c3f8be7-b1a2-4c19-9442-ef0ffed5a177",
      "resource": {
        "resourceType": "Immunization",
        "id": "5c3f8be7-b1a2-4c19-9442-ef0ffed5a177",
        "meta": {
          "profile": [
            "http://hl7.org/fhir/uv/ips/StructureDefinition/Immunization-uv-ips"
          ]
        },
        "vaccineCode": {
          "coding": [
            {
              "code": "1181000221105",
              "system": "http://snomed.info/sct",
              "display": "Vaccine product containing Influenza virus antigen"
            },
            {
              "code": "J07BB02",
              "system": "http://www.whocc.no/atc",
              "display": "Influenza, inactivated, split virus"
            }
          ],
          "text": "Influenza virus antigen only vaccine product"
        },
        "site": {
          "coding": [
            {
              "code": "244979005",
              "system": "http://snomed.info/sct",
              "display": "Entire muscle of upper arm"
            }
          ],
          "text": "Entire muscle of upper arm"
        },
        "route": {
          "coding": [
            {
              "code": "78421000",
              "system": "http://snomed.info/sct",
              "display": "Intramuscular route"
            }
          ],
          "text": "Intramuscular route"
        },
        "text": {
          "status": "generated",
          "div": "<div xmlns=\"http://www.w3.org/1999/xhtml\"><table class=\"hl7__ips\"><tr><td>Influenza virus antigen only vaccine product</td><td><span class=\"nb\">02-Feb-2025</span></td></tr></table></div>"
        },
        "status": "completed",
        "patient": {
          "reference": "urn:uuid:6e94afa9-6401-4575-be50-05ea0e9f060f",
          "display": "Iva Kratochvílová"
        },
        "occurrenceDateTime": "2025-02-02",
        "lotNumber": "DB-kAwBJxUuu",
        "expirationDate": "2025-08-25"
      }
    },
    {
      "fullUrl": "urn:uuid:403cefa5-d84a-45d7-91a5-04432725f7ab",
      "resource": {
        "resourceType": "Immunization",
        "id": "403cefa5-d84a-45d7-91a5-04432725f7ab",
        "meta": {
          "profile": [
            "http://hl7.org/fhir/uv/ips/StructureDefinition/Immunization-uv-ips"
          ]
        },
        "vaccineCode": {
          "coding": [
            {
              "code": "777725002",
              "system": "http://snomed.info/sct",
              "display": "Vaccine product containing only Clostridium tetani toxoid antigen adsorbed"
            },
            {
              "code": "J07AM51",
              "system": "http://www.whocc.no/atc",
              "display": "Diphtheria-tetanus vaccines, adult type"
            }
          ],
          "text": "Clostridium tetani toxoid antigen adsorbed only vaccine product"
        },
        "site": {
          "coding": [
            {
              "code": "244979005",
              "system": "http://snomed.info/sct",
              "display": "Entire muscle of upper arm"
            }
          ],
          "text": "Entire muscle of upper arm"
        },
        "route": {
          "coding": [
            {
              "code": "78421000",
              "system": "http://snomed.info/sct",
              "display": "Intramuscular route"
            }
          ],
          "text": "Intramuscular route"
        },
        "text": {
          "status": "generated",
          "div": "<div xmlns=\"http://www.w3.org/1999/xhtml\"><table class=\"hl7__ips\"><tr><td>Clostridium tetani toxoid antigen adsorbed only vaccine product</td><td><span class=\"nb\">21-Aug-2022</span></td></tr></table></div>"
        },
        "status": "completed",
        "patient": {
          "reference": "urn:uuid:6e94afa9-6401-4575-be50-05ea0e9f060f",
          "display": "Iva Kratochvílová"
        },
        "occurrenceDateTime": "2022-08-21",
        "lotNumber": "ZS-Tdlss1",
        "expirationDate": "2022-10-17"
      }
    },
    {
      "fullUrl": "urn:uuid:5970b72d-170c-4161-8dd4-05c18fee5dd1",
      "resource": {
        "resourceType": "Immunization",
        "id": "5970b72d-170c-4161-8dd4-05c18fee5dd1",
        "meta": {
          "profile": [
            "http://hl7.org/fhir/uv/ips/StructureDefinition/Immunization-uv-ips"
          ]
        },
        "vaccineCode": {
          "coding": [
            {
              "code": "1119349007",
              "system": "http://snomed.info/sct",
              "display": "Vaccine product containing SARS-CoV-2 mRNA"
            },
            {
              "code": "J07BX03",
              "system": "http://www.whocc.no/atc",
              "display": "COVID-19 mRNA vaccines"
            }
          ],
          "text": "SARS-CoV-2 mRNA vaccine"
        },
        "site": {
          "coding": [
            {
              "code": "244979005",
              "system": "http://snomed.info/sct",
              "display": "Entire muscle of upper arm"
            }
          ],
          "text": "Entire muscle of upper arm"
        },
        "route": {
          "coding": [
            {
              "code": "78421000",
              "system": "http://snomed.info/sct",
              "display": "Intramuscular route"
            }
          ],
          "text": "Intramuscular route"
        },
        "text": {
          "status": "generated",
          "div": "<div xmlns=\"http://www.w3.org/1999/xhtml\"><table class=\"hl7__ips\"><tr><td>SARS-CoV-2 mRNA vaccine</td><td><span class=\"nb\">23-May-2021</span></td></tr></table></div>"
        },
        "status": "completed",
        "patient": {
          "reference": "urn:uuid:6e94afa9-6401-4575-be50-05ea0e9f060f",
          "display": "Iva Kratochvílová"
        },
        "occurrenceDateTime": "2021-05-23",
        "lotNumber": "OJ-KXOjZOwt",
        "expirationDate": "2021-10-11"
      }
    },
    {
      "fullUrl": "urn:uuid:422179ec-3615-4362-bf97-9bc03f5b25f7",
      "resource": {
        "resourceType": "Procedure",
        "id": "422179ec-3615-4362-bf97-9bc03f5b25f7",
        "meta": {
          "profile": [
            "http://hl7.org/fhir/uv/ips/StructureDefinition/Procedure-uv-ips"
          ]
        },
        "code": {
          "coding": [
            {
              "code": "171207006",
              "system": "http://snomed.info/sct",
              "display": "Depression screening (procedure)"
            }
          ],
          "text": "Depression screening"
        },
        "text": {
          "status": "generated",
          "div": "<div xmlns=\"http://www.w3.org/1999/xhtml\"><table class=\"hl7__ips\"><tr><td>Depression screening</td><td><span class=\"nb\">15-Oct-2023</span></td><td>-</td></tr></table></div>"
        },
        "status": "completed",
        "performedDateTime": "2023-10-15",
        "subject": {
          "reference": "urn:uuid:",
          "display": "Iva Kratochvílová"
        }
      }
    },
    {
      "fullUrl": "urn:uuid:03bfe209-a390-45fa-b806-3e605db77b17",
      "resource": {
        "resourceType": "Procedure",
        "id": "03bfe209-a390-45fa-b806-3e605db77b17",
        "meta": {
          "profile": [
            "http://hl7.org/fhir/uv/ips/StructureDefinition/Procedure-uv-ips"
          ]
        },
        "code": {
          "coding": [
            {
              "code": "430193006",
              "system": "http://snomed.info/sct",
              "display": "Medication Reconciliation (procedure)"
            }
          ],
          "text": "Medication reconciliation"
        },
        "text": {
          "status": "generated",
          "div": "<div xmlns=\"http://www.w3.org/1999/xhtml\"><table class=\"hl7__ips\"><tr><td>Medication reconciliation</td><td><span class=\"nb\">15-Oct-2023</span></td><td>-</td></tr></table></div>"
        },
        "status": "completed",
        "performedDateTime": "2023-10-15",
        "subject": {
          "reference": "urn:uuid:",
          "display": "Iva Kratochvílová"
        }
      }
    },
    {
      "fullUrl": "urn:uuid:6bf7ae03-5382-4ae1-acfb-fa0895a2ef22",
      "resource": {
        "resourceType": "Procedure",
        "id": "6bf7ae03-5382-4ae1-acfb-fa0895a2ef22",
        "meta": {
          "profile": [
            "http://hl7.org/fhir/uv/ips/StructureDefinition/Procedure-uv-ips"
          ]
        },
        "code": {
          "coding": [
            {
              "code": "710824005",
              "system": "http://snomed.info/sct",
              "display": "Assessment of health and social care needs (procedure)"
            }
          ],
          "text": "Assessment of health and social care needs"
        },
        "text": {
          "status": "generated",
          "div": "<div xmlns=\"http://www.w3.org/1999/xhtml\"><table class=\"hl7__ips\"><tr><td>Assessment of health and social care needs</td><td><span class=\"nb\">15-Oct-2023</span></td><td>-</td></tr></table></div>"
        },
        "status": "completed",
        "performedDateTime": "2023-10-15",
        "subject": {
          "reference": "urn:uuid:",
          "display": "Iva Kratochvílová"
        }
      }
    },
    {
      "fullUrl": "urn:uuid:94e9a5c2-c756-48f2-80cb-00f55c6086d8",
      "resource": {
        "resourceType": "Procedure",
        "id": "94e9a5c2-c756-48f2-80cb-00f55c6086d8",
        "meta": {
          "profile": [
            "http://hl7.org/fhir/uv/ips/StructureDefinition/Procedure-uv-ips"
          ]
        },
        "code": {
          "coding": [
            {
              "code": "763302001",
              "system": "http://snomed.info/sct",
              "display": "Assessment using Alcohol Use Disorders Identification Test - Consumption (procedure)"
            }
          ],
          "text": "Assessment using AUDIT-C (Alcohol Use Disorders Identification Test - Consumption)"
        },
        "text": {
          "status": "generated",
          "div": "<div xmlns=\"http://www.w3.org/1999/xhtml\"><table class=\"hl7__ips\"><tr><td>Assessment using AUDIT-C (Alcohol Use Disorders Identification Test - Consumption)</td><td><span class=\"nb\">15-Oct-2023</span></td><td>-</td></tr></table></div>"
        },
        "status": "completed",
        "performedDateTime": "2023-10-15",
        "subject": {
          "reference": "urn:uuid:",
          "display": "Iva Kratochvílová"
        }
      }
    },
    {
      "fullUrl": "urn:uuid:6a3a8b85-e442-4103-9a43-12f7138c7126",
      "resource": {
        "resourceType": "Procedure",
        "id": "6a3a8b85-e442-4103-9a43-12f7138c7126",
        "meta": {
          "profile": [
            "http://hl7.org/fhir/uv/ips/StructureDefinition/Procedure-uv-ips"
          ]
        },
        "code": {
          "coding": [
            {
              "code": "428211000124100",
              "system": "http://snomed.info/sct",
              "display": "Assessment of substance use (procedure)"
            }
          ],
          "text": "Assessment of substance use"
        },
        "text": {
          "status": "generated",
          "div": "<div xmlns=\"http://www.w3.org/1999/xhtml\"><table class=\"hl7__ips\"><tr><td>Assessment of substance use</td><td><span class=\"nb\">15-Oct-2023</span></td><td>-</td></tr></table></div>"
        },
        "status": "completed",
        "performedDateTime": "2023-10-15",
        "subject": {
          "reference": "urn:uuid:",
          "display": "Iva Kratochvílová"
        }
      }
    },
    {
      "fullUrl": "urn:uuid:242496a0-1af3-4f21-8cdd-142966cdc9f5",
      "resource": {
        "resourceType": "Procedure",
        "id": "242496a0-1af3-4f21-8cdd-142966cdc9f5",
        "meta": {
          "profile": [
            "http://hl7.org/fhir/uv/ips/StructureDefinition/Procedure-uv-ips"
          ]
        },
        "code": {
          "coding": [
            {
              "code": "454711000124102",
              "system": "http://snomed.info/sct",
              "display": "Depression screening using Patient Health Questionnaire Two-Item score (procedure)"
            }
          ]
        },
        "text": {
          "status": "generated",
          "div": "<div xmlns=\"http://www.w3.org/1999/xhtml\"><table class=\"hl7__ips\"><tr><td>Depression screening using Patient Health Questionnaire Two-Item score (procedure)</td><td><span class=\"nb\">15-Oct-2023</span></td><td>-</td></tr></table></div>"
        },
        "status": "completed",
        "performedDateTime": "2023-10-15",
        "subject": {
          "reference": "urn:uuid:",
          "display": "Iva Kratochvílová"
        }
      }
    },
    {
      "fullUrl": "urn:uuid:4f8ff80e-6dde-4631-bd9c-b23a0ea677e7",
      "resource": {
        "resourceType": "Procedure",
        "id": "4f8ff80e-6dde-4631-bd9c-b23a0ea677e7",
        "meta": {
          "profile": [
            "http://hl7.org/fhir/uv/ips/StructureDefinition/Procedure-uv-ips"
          ]
        },
        "code": {
          "coding": [
            {
              "code": "711446003",
              "system": "http://snomed.info/sct",
              "display": "Transplantation of kidney regime (regime/therapy)"
            }
          ],
          "text": "Transplantation of kidney regime"
        },
        "reasonCode": [
          {
            "coding": [
              {
                "code": "161665007",
                "system": "http://snomed.info/sct",
                "display": "History of renal transplant (situation)"
              }
            ]
          }
        ],
        "text": {
          "status": "generated",
          "div": "<div xmlns=\"http://www.w3.org/1999/xhtml\"><table class=\"hl7__ips\"><tr><td>Transplantation of kidney regime</td><td><span class=\"nb\">09-May-2016</span></td><td>History of renal transplant (situation)</td></tr></table></div>"
        },
        "status": "completed",
        "performedDateTime": "2016-05-09",
        "subject": {
          "reference": "urn:uuid:",
          "display": "Iva Kratochvílová"
        }
      }
    },
    {
      "fullUrl": "urn:uuid:cebf2a33-094d-4593-8699-27a1ae545734",
      "resource": {
        "resourceType": "Procedure",
        "id": "cebf2a33-094d-4593-8699-27a1ae545734",
        "meta": {
          "profile": [
            "http://hl7.org/fhir/uv/ips/StructureDefinition/Procedure-uv-ips"
          ]
        },
        "code": {
          "coding": [
            {
              "code": "70536003",
              "system": "http://snomed.info/sct",
              "display": "Transplant of kidney (procedure)"
            }
          ],
          "text": "Transplant of kidney"
        },
        "reasonCode": [
          {
            "coding": [
              {
                "code": "698306007",
                "system": "http://snomed.info/sct",
                "display": "Awaiting transplantation of kidney (situation)"
              }
            ]
          }
        ],
        "text": {
          "status": "generated",
          "div": "<div xmlns=\"http://www.w3.org/1999/xhtml\"><table class=\"hl7__ips\"><tr><td>Transplant of kidney</td><td><span class=\"nb\">07-May-2016</span></td><td>Awaiting transplantation of kidney (situation)</td></tr></table></div>"
        },
        "status": "completed",
        "performedDateTime": "2016-05-07",
        "subject": {
          "reference": "urn:uuid:",
          "display": "Iva Kratochvílová"
        }
      }
    },
    {
      "fullUrl": "urn:uuid:a20ab930-9d95-4fdb-9997-82eb10847719",
      "resource": {
        "resourceType": "Procedure",
        "id": "a20ab930-9d95-4fdb-9997-82eb10847719",
        "meta": {
          "profile": [
            "http://hl7.org/fhir/uv/ips/StructureDefinition/Procedure-uv-ips"
          ]
        },
        "code": {
          "coding": [
            {
              "code": "428830000",
              "system": "http://snomed.info/sct",
              "display": "Pretransplant evaluation of kidney recipient (procedure)"
            }
          ],
          "text": "Pretransplant evaluation of kidney recipient"
        },
        "reasonCode": [
          {
            "coding": [
              {
                "code": "698306007",
                "system": "http://snomed.info/sct",
                "display": "Awaiting transplantation of kidney (situation)"
              }
            ]
          }
        ],
        "text": {
          "status": "generated",
          "div": "<div xmlns=\"http://www.w3.org/1999/xhtml\"><table class=\"hl7__ips\"><tr><td>Pretransplant evaluation of kidney recipient</td><td><span class=\"nb\">07-May-2016</span></td><td>Awaiting transplantation of kidney (situation)</td></tr></table></div>"
        },
        "status": "completed",
        "performedDateTime": "2016-05-07",
        "subject": {
          "reference": "urn:uuid:",
          "display": "Iva Kratochvílová"
        }
      }
    },
    {
      "fullUrl": "urn:uuid:13458d49-b83b-468e-87dc-3ef71220a0d0",
      "resource": {
        "resourceType": "AllergyIntolerance",
        "id": "13458d49-b83b-468e-87dc-3ef71220a0d0",
        "meta": {
          "profile": [
            "http://hl7.eu/fhir/eps/StructureDefinition/allergyIntolerance-eu-eps"
          ]
        },
        "code": {
          "text": ""
        },
        "clinicalStatus": {
          "coding": [
            {
              "code": "active",
              "system": "http://terminology.hl7.org/CodeSystem/allergyintolerance-clinical"
            }
          ]
        },
        "text": {
          "status": "generated",
          "div": "<div xmlns=\"http://www.w3.org/1999/xhtml\"><table class=\"hl7__ips\"><tr><th>Allergy/Intolerance</th><th>Onset Date</th><th>Status</th><th>Type</th><th>Reaction</th></tr><tr><td></td><td>?</td><td>active</td><td>?</td><td></td></tr></table></div>"
        },
        "verificationStatus": {
          "coding": [
            {
              "code": "confirmed",
              "system": "http://terminology.hl7.org/CodeSystem/allergyintolerance-verification"
            }
          ]
        },
        "patient": {
          "reference": "urn:uuid:6e94afa9-6401-4575-be50-05ea0e9f060f",
          "display": "Iva Kratochvílová"
        },
        "_onsetDateTime": {
          "extension": [
            {
              "url": "http://hl7.org/fhir/StructureDefinition/data-absent-reason",
              "valueCode": "unknown"
            }
          ]
        }
      }
    },
    {
      "fullUrl": "urn:uuid:7f068357-4580-4e45-ab17-4f705d21da41",
      "resource": {
        "resourceType": "CarePlan",
        "id": "7f068357-4580-4e45-ab17-4f705d21da41",
        "category": [
          {
            "coding": [
              {
                "code": "assess-plan",
                "system": "http://terminology.hl7.org/CodeSystem/care-plan-category",
                "display": "Assessment and Plan"
              }
            ]
          }
        ],
        "activity": [
          {
            "detail": {
              "code": {
                "coding": [
                  {
                    "code": "734163000",
                    "system": "http://snomed.info/sct",
                    "display": "Care plan (record artifact)"
                  }
                ]
              },
              "status": "unknown",
              "description": "Care plan",
              "kind": "Appointment"
            }
          }
        ],
        "period": {
          "start": "2016-05-07"
        },
        "text": {
          "status": "generated",
          "div": "<div xmlns=\"http://www.w3.org/1999/xhtml\"><table class=\"hl7__ips first25\"><tr><th>Active Planned Care / Goals</th><th>Start Date</th><th>Reason</th></tr><tr><td>Care plan</td><td><span class=\"nb\">07-May-2016</span></td><td>-</td></tr></table></div>"
        },
        "status": "active",
        "intent": "plan",
        "subject": {
          "reference": "urn:uuid:6e94afa9-6401-4575-be50-05ea0e9f060f",
          "display": "Iva Kratochvílová"
        }
      }
    },
    {
      "fullUrl": "urn:uuid:a4940840-89ec-4c68-a981-6cbd03dc81cf",
      "resource": {
        "resourceType": "CarePlan",
        "id": "a4940840-89ec-4c68-a981-6cbd03dc81cf",
        "category": [
          {
            "coding": [
              {
                "code": "assess-plan",
                "system": "http://terminology.hl7.org/CodeSystem/care-plan-category",
                "display": "Assessment and Plan"
              }
            ]
          }
        ],
        "activity": [
          {
            "detail": {
              "code": {
                "coding": [
                  {
                    "code": "276239002",
                    "system": "http://snomed.info/sct",
                    "display": "Therapy (regime/therapy)"
                  }
                ]
              },
              "status": "unknown",
              "description": "Therapy",
              "kind": "Appointment"
            }
          }
        ],
        "period": {
          "start": "2014-04-03"
        },
        "text": {
          "status": "generated",
          "div": "<div xmlns=\"http://www.w3.org/1999/xhtml\"><table class=\"hl7__ips first25\"><tr><th>Active Planned Care / Goals</th><th>Start Date</th><th>Reason</th></tr><tr><td>Therapy</td><td><span class=\"nb\">03-Apr-2014</span></td><td>-</td></tr></table></div>"
        },
        "status": "active",
        "intent": "plan",
        "subject": {
          "reference": "urn:uuid:6e94afa9-6401-4575-be50-05ea0e9f060f",
          "display": "Iva Kratochvílová"
        }
      }
    },
    {
      "fullUrl": "urn:uuid:84e04c8b-5a29-4109-a8c9-e42f7f24fed0",
      "resource": {
        "resourceType": "CarePlan",
        "id": "84e04c8b-5a29-4109-a8c9-e42f7f24fed0",
        "category": [
          {
            "coding": [
              {
                "code": "assess-plan",
                "system": "http://terminology.hl7.org/CodeSystem/care-plan-category",
                "display": "Assessment and Plan"
              }
            ]
          }
        ],
        "activity": [
          {
            "detail": {
              "code": {
                "coding": [
                  {
                    "code": "736690008",
                    "system": "http://snomed.info/sct",
                    "display": "Dialysis care plan (record artifact)"
                  }
                ]
              },
              "status": "unknown",
              "description": "Dialysis care plan",
              "kind": "Appointment"
            }
          }
        ],
        "period": {
          "start": "2011-01-12"
        },
        "text": {
          "status": "generated",
          "div": "<div xmlns=\"http://www.w3.org/1999/xhtml\"><table class=\"hl7__ips first25\"><tr><th>Active Planned Care / Goals</th><th>Start Date</th><th>Reason</th></tr><tr><td>Dialysis care plan</td><td><span class=\"nb\">12-Jan-2011</span></td><td>-</td></tr></table></div>"
        },
        "status": "active",
        "intent": "plan",
        "subject": {
          "reference": "urn:uuid:6e94afa9-6401-4575-be50-05ea0e9f060f",
          "display": "Iva Kratochvílová"
        }
      }
    },
    {
      "fullUrl": "urn:uuid:fd7cf50b-a397-4a02-87f0-3751844ac2b3",
      "resource": {
        "resourceType": "CarePlan",
        "id": "fd7cf50b-a397-4a02-87f0-3751844ac2b3",
        "category": [
          {
            "coding": [
              {
                "code": "assess-plan",
                "system": "http://terminology.hl7.org/CodeSystem/care-plan-category",
                "display": "Assessment and Plan"
              }
            ]
          }
        ],
        "activity": [
          {
            "detail": {
              "code": {
                "coding": [
                  {
                    "code": "698360004",
                    "system": "http://snomed.info/sct",
                    "display": "Diabetes self management plan (qualifier value)"
                  }
                ]
              },
              "reasonCode": [
                {
                  "coding": [
                    {
                      "code": "15777000",
                      "system": "http://snomed.info/sct",
                      "display": "Prediabetes"
                    }
                  ]
                }
              ],
              "status": "unknown",
              "description": "Diabetes self management plan",
              "kind": "Appointment"
            }
          }
        ],
        "period": {
          "start": "2009-12-27"
        },
        "goal": [
          {
            "reference": "urn:uuid:ec62c7a4-752b-415b-8132-68678c510b80"
          },
          {
            "reference": "urn:uuid:3b034ea4-ed08-45bf-8865-66e26deff312"
          },
          {
            "reference": "urn:uuid:8f79d2ae-17c9-4922-bca1-242f66702d21"
          },
          {
            "reference": "urn:uuid:1eb5144b-e1ec-42a2-be66-e75f2157a2f2"
          }
        ],
        "text": {
          "status": "generated",
          "div": "<div xmlns=\"http://www.w3.org/1999/xhtml\"><table class=\"hl7__ips first25\"><tr><th>Active Planned Care / Goals</th><th>Start Date</th><th>Reason</th></tr><tr><td>Diabetes self management plan</td><td><span class=\"nb\">27-Dec-2009</span></td><td>Prediabetes</td></tr><tr><td><ul><li>Maintain hemoglobin A1c below 6.5% to reduce risk of diabetes progression.</li><li>Achieve and maintain at least 5% weight loss from baseline to improve glycemic control.</li><li>Maintain blood pressure below 130/80 mmHg to reduce cardiovascular risk.</li><li>Engage in at least 150 minutes of moderate-intensity physical activity per week.</li></ul></td><td></td><td></td></tr></table></div>"
        },
        "status": "active",
        "intent": "plan",
        "subject": {
          "reference": "urn:uuid:6e94afa9-6401-4575-be50-05ea0e9f060f",
          "display": "Iva Kratochvílová"
        }
      }
    },
    {
      "fullUrl": "urn:uuid:b26e2065-4e42-4f46-b2c0-29a9f16bcd17",
      "resource": {
        "resourceType": "CarePlan",
        "id": "b26e2065-4e42-4f46-b2c0-29a9f16bcd17",
        "category": [
          {
            "coding": [
              {
                "code": "assess-plan",
                "system": "http://terminology.hl7.org/CodeSystem/care-plan-category",
                "display": "Assessment and Plan"
              }
            ]
          }
        ],
        "activity": [
          {
            "detail": {
              "code": {
                "coding": [
                  {
                    "code": "443402002",
                    "system": "http://snomed.info/sct",
                    "display": "Lifestyle education regarding hypertension (procedure)"
                  }
                ]
              },
              "reasonCode": [
                {
                  "coding": [
                    {
                      "code": "59621000",
                      "system": "http://snomed.info/sct",
                      "display": "Essential hypertension (disorder)"
                    }
                  ]
                }
              ],
              "status": "unknown",
              "description": "Lifestyle education regarding hypertension",
              "kind": "Appointment"
            }
          }
        ],
        "period": {
          "start": "1983-07-31"
        },
        "goal": [
          {
            "reference": "urn:uuid:62c16c13-11cd-47ce-a172-ddfd06e9af0a"
          },
          {
            "reference": "urn:uuid:680d1fb2-0610-4f40-aac7-8b2edb3fc53a"
          },
          {
            "reference": "urn:uuid:31188176-ab12-4a83-a569-0d365846bcf0"
          },
          {
            "reference": "urn:uuid:c9156166-0a95-4ee4-9130-379c29581853"
          },
          {
            "reference": "urn:uuid:2d4bf1e3-3450-46ea-89da-ea148be96fd9"
          }
        ],
        "text": {
          "status": "generated",
          "div": "<div xmlns=\"http://www.w3.org/1999/xhtml\"><table class=\"hl7__ips first25\"><tr><th>Active Planned Care / Goals</th><th>Start Date</th><th>Reason</th></tr><tr><td>Lifestyle education regarding hypertension</td><td><span class=\"nb\">31-Jul-1983</span></td><td>Essential hypertension (disorder)</td></tr><tr><td><ul><li>Achieve and maintain systolic blood pressure within recommended target range through lifestyle modifications.</li><li>Achieve and maintain diastolic blood pressure within recommended target range through lifestyle modifications.</li><li>Reduce daily sodium intake to recommended levels as part of hypertension management.</li><li>Achieve and maintain a healthy body weight to support blood pressure control.</li><li>Engage in at least 150 minutes of moderate-intensity physical activity per week to support blood pressure control.</li></ul></td><td></td><td></td></tr></table></div>"
        },
        "status": "active",
        "intent": "plan",
        "subject": {
          "reference": "urn:uuid:6e94afa9-6401-4575-be50-05ea0e9f060f",
          "display": "Iva Kratochvílová"
        }
      }
    },
    {
      "fullUrl": "urn:uuid:18709fe4-458b-44f3-81ce-25f9ea826dc8",
      "resource": {
        "resourceType": "ImmunizationRecommendation",
        "id": "18709fe4-458b-44f3-81ce-25f9ea826dc8",
        "recommendation": [
          {
            "vaccineCode": [
              {
                "coding": [
                  {
                    "code": "1181000221105",
                    "system": "http://snomed.info/sct",
                    "display": "Vaccine product containing only Influenza virus antigen (medicinal product)"
                  }
                ]
              }
            ],
            "dateCriterion": [
              {
                "code": {
                  "coding": [
                    {
                      "code": "30980-7",
                      "system": "http://loinc.org",
                      "display": "Date vaccine due"
                    }
                  ]
                },
                "value": "2025-10-01"
              }
            ],
            "targetDisease": {
              "coding": [
                {
                  "code": "6142004",
                  "system": "http://snomed.info/sct",
                  "display": "Influenza (disorder)"
                }
              ]
            },
            "series": "Annual seasonal influenza vaccination",
            "forecastStatus": {
              "coding": [
                {
                  "code": "due",
                  "system": "http://terminology.hl7.org/CodeSystem/immunization-recommendation-status",
                  "display": "Due"
                }
              ]
            }
          }
        ],
        "text": {
          "status": "generated",
          "div": "<div xmlns=\"http://www.w3.org/1999/xhtml\"><table class=\"hl7__ips\"><tr><td>Vaccine product containing only Influenza virus antigen (medicinal product)</td><td><span class=\"nb\">01-Oct-2025</span></td><td>Annual seasonal influenza vaccination</td></tr></table></div>"
        },
        "date": "2025-10-22",
        "patient": {
          "reference": "urn:uuid:6e94afa9-6401-4575-be50-05ea0e9f060f",
          "display": "Iva Kratochvílová"
        }
      }
    },
    {
      "fullUrl": "urn:uuid:d5d6828c-fb49-4960-b3b2-58e9c68dd07a",
      "resource": {
        "resourceType": "Observation",
        "id": "d5d6828c-fb49-4960-b3b2-58e9c68dd07a",
        "meta": {
          "profile": [
            "http://hl7.org/fhir/StructureDefinition/vitalsigns"
          ]
        },
        "category": [
          {
            "coding": [
              {
                "system": "http://terminology.hl7.org/CodeSystem/observation-category",
                "code": "vital-signs",
                "display": "Vital Signs"
              }
            ]
          }
        ],
        "valueQuantity": {
          "value": 170.9,
          "code": "cm",
          "unit": "cm"
        },
        "text": {
          "status": "generated",
          "div": "<div xmlns=\"http://www.w3.org/1999/xhtml\"><table class=\"hl7__ips\"><tr><th>Vital Sign</th><th>Date</th><th>Measurement</th></tr><tr><td>Body Height</td><td>23-Mar-2025</td><td>170.9 cm</td></tr></table></div>"
        },
        "status": "final",
        "code": {
          "coding": [
            {
              "code": "$8302-2",
              "system": "http://loinc.org",
              "display": "Body Height"
            }
          ]
        },
        "subject": {
          "reference": "urn:uuid:6e94afa9-6401-4575-be50-05ea0e9f060f",
          "display": "Iva Kratochvílová"
        },
        "effectiveDateTime": "2025-03-23"
      }
    },
    {
      "fullUrl": "urn:uuid:4d4d77c2-ee9f-4c68-a97d-fbdefa73bb3d",
      "resource": {
        "resourceType": "Observation",
        "id": "4d4d77c2-ee9f-4c68-a97d-fbdefa73bb3d",
        "meta": {
          "profile": [
            "http://hl7.org/fhir/StructureDefinition/vitalsigns"
          ]
        },
        "category": [
          {
            "coding": [
              {
                "system": "http://terminology.hl7.org/CodeSystem/observation-category",
                "code": "vital-signs",
                "display": "Vital Signs"
              }
            ]
          }
        ],
        "valueQuantity": {
          "value": 3,
          "code": "{score}",
          "unit": "{score}"
        },
        "text": {
          "status": "generated",
          "div": "<div xmlns=\"http://www.w3.org/1999/xhtml\"><table class=\"hl7__ips\"><tr><th>Vital Sign</th><th>Date</th><th>Measurement</th></tr><tr><td>Pain severity - 0-10 verbal numeric rating [Score] - Reported</td><td>23-Mar-2025</td><td>3 {score}</td></tr></table></div>"
        },
        "status": "final",
        "code": {
          "coding": [
            {
              "code": "$72514-3",
              "system": "http://loinc.org",
              "display": "Pain severity - 0-10 verbal numeric rating [Score] - Reported"
            }
          ]
        },
        "subject": {
          "reference": "urn:uuid:6e94afa9-6401-4575-be50-05ea0e9f060f",
          "display": "Iva Kratochvílová"
        },
        "effectiveDateTime": "2025-03-23"
      }
    },
    {
      "fullUrl": "urn:uuid:48041579-85e3-4826-9af8-365e766755f0",
      "resource": {
        "resourceType": "Observation",
        "id": "48041579-85e3-4826-9af8-365e766755f0",
        "meta": {
          "profile": [
            "http://hl7.org/fhir/StructureDefinition/vitalsigns"
          ]
        },
        "category": [
          {
            "coding": [
              {
                "system": "http://terminology.hl7.org/CodeSystem/observation-category",
                "code": "vital-signs",
                "display": "Vital Signs"
              }
            ]
          }
        ],
        "valueQuantity": {
          "value": 87.8,
          "code": "kg",
          "unit": "kg"
        },
        "text": {
          "status": "generated",
          "div": "<div xmlns=\"http://www.w3.org/1999/xhtml\"><table class=\"hl7__ips\"><tr><th>Vital Sign</th><th>Date</th><th>Measurement</th></tr><tr><td>Body Weight</td><td>23-Mar-2025</td><td>87.8 kg</td></tr></table></div>"
        },
        "status": "final",
        "code": {
          "coding": [
            {
              "code": "$29463-7",
              "system": "http://loinc.org",
              "display": "Body Weight"
            }
          ]
        },
        "subject": {
          "reference": "urn:uuid:6e94afa9-6401-4575-be50-05ea0e9f060f",
          "display": "Iva Kratochvílová"
        },
        "effectiveDateTime": "2025-03-23"
      }
    },
    {
      "fullUrl": "urn:uuid:f232820c-43b2-446f-bc00-8d22b386263c",
      "resource": {
        "resourceType": "Observation",
        "id": "f232820c-43b2-446f-bc00-8d22b386263c",
        "meta": {
          "profile": [
            "http://hl7.org/fhir/StructureDefinition/vitalsigns"
          ]
        },
        "category": [
          {
            "coding": [
              {
                "system": "http://terminology.hl7.org/CodeSystem/observation-category",
                "code": "vital-signs",
                "display": "Vital Signs"
              }
            ]
          }
        ],
        "valueQuantity": {
          "value": 30.1,
          "code": "kg/m2",
          "unit": "kg/m2"
        },
        "text": {
          "status": "generated",
          "div": "<div xmlns=\"http://www.w3.org/1999/xhtml\"><table class=\"hl7__ips\"><tr><th>Vital Sign</th><th>Date</th><th>Measurement</th></tr><tr><td>Body mass index (BMI) [Ratio]</td><td>23-Mar-2025</td><td>30.1 kg/m2</td></tr></table></div>"
        },
        "status": "final",
        "code": {
          "coding": [
            {
              "code": "$39156-5",
              "system": "http://loinc.org",
              "display": "Body mass index (BMI) [Ratio]"
            }
          ]
        },
        "subject": {
          "reference": "urn:uuid:6e94afa9-6401-4575-be50-05ea0e9f060f",
          "display": "Iva Kratochvílová"
        },
        "effectiveDateTime": "2025-03-23"
      }
    },
    {
      "fullUrl": "urn:uuid:ce6f1fb9-cdf9-40fa-9b35-4fc15f06673f",
      "resource": {
        "resourceType": "Observation",
        "id": "ce6f1fb9-cdf9-40fa-9b35-4fc15f06673f",
        "meta": {
          "profile": [
            "http://hl7.org/fhir/StructureDefinition/vitalsigns"
          ]
        },
        "category": [
          {
            "coding": [
              {
                "system": "http://terminology.hl7.org/CodeSystem/observation-category",
                "code": "vital-signs",
                "display": "Vital Signs"
              }
            ]
          }
        ],
        "valueQuantity": {
          "value": 98,
          "code": "mm[Hg]",
          "unit": "mm[Hg]"
        },
        "text": {
          "status": "generated",
          "div": "<div xmlns=\"http://www.w3.org/1999/xhtml\"><table class=\"hl7__ips\"><tr><th>Vital Sign</th><th>Date</th><th>Measurement</th></tr><tr><td>Diastolic Blood Pressure</td><td>23-Mar-2025</td><td>98 mm[Hg]</td></tr></table></div>"
        },
        "status": "final",
        "code": {
          "coding": [
            {
              "code": "$8462-4",
              "system": "http://loinc.org",
              "display": "Diastolic Blood Pressure"
            }
          ]
        },
        "subject": {
          "reference": "urn:uuid:6e94afa9-6401-4575-be50-05ea0e9f060f",
          "display": "Iva Kratochvílová"
        },
        "effectiveDateTime": "2025-03-23"
      }
    },
    {
      "fullUrl": "urn:uuid:eaf47906-d265-4001-a973-6d72e8003fa8",
      "resource": {
        "resourceType": "Observation",
        "id": "eaf47906-d265-4001-a973-6d72e8003fa8",
        "meta": {
          "profile": [
            "http://hl7.org/fhir/StructureDefinition/vitalsigns"
          ]
        },
        "category": [
          {
            "coding": [
              {
                "system": "http://terminology.hl7.org/CodeSystem/observation-category",
                "code": "vital-signs",
                "display": "Vital Signs"
              }
            ]
          }
        ],
        "valueQuantity": {
          "value": 115,
          "code": "mm[Hg]",
          "unit": "mm[Hg]"
        },
        "text": {
          "status": "generated",
          "div": "<div xmlns=\"http://www.w3.org/1999/xhtml\"><table class=\"hl7__ips\"><tr><th>Vital Sign</th><th>Date</th><th>Measurement</th></tr><tr><td>Systolic Blood Pressure</td><td>23-Mar-2025</td><td>115 mm[Hg]</td></tr></table></div>"
        },
        "status": "final",
        "code": {
          "coding": [
            {
              "code": "$8480-6",
              "system": "http://loinc.org",
              "display": "Systolic Blood Pressure"
            }
          ]
        },
        "subject": {
          "reference": "urn:uuid:6e94afa9-6401-4575-be50-05ea0e9f060f",
          "display": "Iva Kratochvílová"
        },
        "effectiveDateTime": "2025-03-23"
      }
    },
    {
      "fullUrl": "urn:uuid:1dbd0d61-6034-425a-9ee4-3abb0ae89a53",
      "resource": {
        "resourceType": "Observation",
        "id": "1dbd0d61-6034-425a-9ee4-3abb0ae89a53",
        "meta": {
          "profile": [
            "http://hl7.org/fhir/StructureDefinition/vitalsigns"
          ]
        },
        "category": [
          {
            "coding": [
              {
                "system": "http://terminology.hl7.org/CodeSystem/observation-category",
                "code": "vital-signs",
                "display": "Vital Signs"
              }
            ]
          }
        ],
        "valueQuantity": {
          "value": 78,
          "code": "/min",
          "unit": "/min"
        },
        "text": {
          "status": "generated",
          "div": "<div xmlns=\"http://www.w3.org/1999/xhtml\"><table class=\"hl7__ips\"><tr><th>Vital Sign</th><th>Date</th><th>Measurement</th></tr><tr><td>Heart rate</td><td>23-Mar-2025</td><td>78 /min</td></tr></table></div>"
        },
        "status": "final",
        "code": {
          "coding": [
            {
              "code": "$8867-4",
              "system": "http://loinc.org",
              "display": "Heart rate"
            }
          ]
        },
        "subject": {
          "reference": "urn:uuid:6e94afa9-6401-4575-be50-05ea0e9f060f",
          "display": "Iva Kratochvílová"
        },
        "effectiveDateTime": "2025-03-23"
      }
    },
    {
      "fullUrl": "urn:uuid:b08ac5f2-b2f4-4564-bb9a-acdbc946aaa1",
      "resource": {
        "resourceType": "Observation",
        "id": "b08ac5f2-b2f4-4564-bb9a-acdbc946aaa1",
        "meta": {
          "profile": [
            "http://hl7.org/fhir/StructureDefinition/vitalsigns"
          ]
        },
        "category": [
          {
            "coding": [
              {
                "system": "http://terminology.hl7.org/CodeSystem/observation-category",
                "code": "vital-signs",
                "display": "Vital Signs"
              }
            ]
          }
        ],
        "valueQuantity": {
          "value": 15,
          "code": "/min",
          "unit": "/min"
        },
        "text": {
          "status": "generated",
          "div": "<div xmlns=\"http://www.w3.org/1999/xhtml\"><table class=\"hl7__ips\"><tr><th>Vital Sign</th><th>Date</th><th>Measurement</th></tr><tr><td>Respiratory rate</td><td>23-Mar-2025</td><td>15 /min</td></tr></table></div>"
        },
        "status": "final",
        "code": {
          "coding": [
            {
              "code": "$9279-1",
              "system": "http://loinc.org",
              "display": "Respiratory rate"
            }
          ]
        },
        "subject": {
          "reference": "urn:uuid:6e94afa9-6401-4575-be50-05ea0e9f060f",
          "display": "Iva Kratochvílová"
        },
        "effectiveDateTime": "2025-03-23"
      }
    },
    {
      "fullUrl": "urn:uuid:d8f5b75c-ab01-4de3-9df5-2db2b5dc7d90",
      "resource": {
        "resourceType": "Observation",
        "id": "d8f5b75c-ab01-4de3-9df5-2db2b5dc7d90",
        "meta": {
          "profile": [
            "http://hl7.org/fhir/StructureDefinition/vitalsigns"
          ]
        },
        "category": [
          {
            "coding": [
              {
                "system": "http://terminology.hl7.org/CodeSystem/observation-category",
                "code": "vital-signs",
                "display": "Vital Signs"
              }
            ]
          }
        ],
        "valueQuantity": {
          "value": 170.9,
          "code": "cm",
          "unit": "cm"
        },
        "text": {
          "status": "generated",
          "div": "<div xmlns=\"http://www.w3.org/1999/xhtml\"><table class=\"hl7__ips\"><tr><th>Vital Sign</th><th>Date</th><th>Measurement</th></tr><tr><td>Body Height</td><td>02-Feb-2025</td><td>170.9 cm</td></tr></table></div>"
        },
        "status": "final",
        "code": {
          "coding": [
            {
              "code": "$8302-2",
              "system": "http://loinc.org",
              "display": "Body Height"
            }
          ]
        },
        "subject": {
          "reference": "urn:uuid:6e94afa9-6401-4575-be50-05ea0e9f060f",
          "display": "Iva Kratochvílová"
        },
        "effectiveDateTime": "2025-02-02"
      }
    },
    {
      "fullUrl": "urn:uuid:0a708a5a-8542-495d-8fe9-1c3f4c638443",
      "resource": {
        "resourceType": "Observation",
        "id": "0a708a5a-8542-495d-8fe9-1c3f4c638443",
        "meta": {
          "profile": [
            "http://hl7.org/fhir/StructureDefinition/vitalsigns"
          ]
        },
        "category": [
          {
            "coding": [
              {
                "system": "http://terminology.hl7.org/CodeSystem/observation-category",
                "code": "vital-signs",
                "display": "Vital Signs"
              }
            ]
          }
        ],
        "valueQuantity": {
          "value": 2,
          "code": "{score}",
          "unit": "{score}"
        },
        "text": {
          "status": "generated",
          "div": "<div xmlns=\"http://www.w3.org/1999/xhtml\"><table class=\"hl7__ips\"><tr><th>Vital Sign</th><th>Date</th><th>Measurement</th></tr><tr><td>Pain severity - 0-10 verbal numeric rating [Score] - Reported</td><td>02-Feb-2025</td><td>2 {score}</td></tr></table></div>"
        },
        "status": "final",
        "code": {
          "coding": [
            {
              "code": "$72514-3",
              "system": "http://loinc.org",
              "display": "Pain severity - 0-10 verbal numeric rating [Score] - Reported"
            }
          ]
        },
        "subject": {
          "reference": "urn:uuid:6e94afa9-6401-4575-be50-05ea0e9f060f",
          "display": "Iva Kratochvílová"
        },
        "effectiveDateTime": "2025-02-02"
      }
    },
    {
      "fullUrl": "urn:uuid:9e56192b-af42-4e60-859e-809720448151",
      "resource": {
        "resourceType": "Observation",
        "id": "9e56192b-af42-4e60-859e-809720448151",
        "meta": {
          "profile": [
            "http://hl7.org/fhir/StructureDefinition/vitalsigns"
          ]
        },
        "category": [
          {
            "coding": [
              {
                "system": "http://terminology.hl7.org/CodeSystem/observation-category",
                "code": "vital-signs",
                "display": "Vital Signs"
              }
            ]
          }
        ],
        "valueQuantity": {
          "value": 87.5,
          "code": "kg",
          "unit": "kg"
        },
        "text": {
          "status": "generated",
          "div": "<div xmlns=\"http://www.w3.org/1999/xhtml\"><table class=\"hl7__ips\"><tr><th>Vital Sign</th><th>Date</th><th>Measurement</th></tr><tr><td>Body Weight</td><td>02-Feb-2025</td><td>87.5 kg</td></tr></table></div>"
        },
        "status": "final",
        "code": {
          "coding": [
            {
              "code": "$29463-7",
              "system": "http://loinc.org",
              "display": "Body Weight"
            }
          ]
        },
        "subject": {
          "reference": "urn:uuid:6e94afa9-6401-4575-be50-05ea0e9f060f",
          "display": "Iva Kratochvílová"
        },
        "effectiveDateTime": "2025-02-02"
      }
    },
    {
      "fullUrl": "urn:uuid:1ca5d596-442a-4512-b287-31dc4c343a30",
      "resource": {
        "resourceType": "Observation",
        "id": "1ca5d596-442a-4512-b287-31dc4c343a30",
        "meta": {
          "profile": [
            "http://hl7.org/fhir/StructureDefinition/vitalsigns"
          ]
        },
        "category": [
          {
            "coding": [
              {
                "system": "http://terminology.hl7.org/CodeSystem/observation-category",
                "code": "vital-signs",
                "display": "Vital Signs"
              }
            ]
          }
        ],
        "valueQuantity": {
          "value": 30,
          "code": "kg/m2",
          "unit": "kg/m2"
        },
        "text": {
          "status": "generated",
          "div": "<div xmlns=\"http://www.w3.org/1999/xhtml\"><table class=\"hl7__ips\"><tr><th>Vital Sign</th><th>Date</th><th>Measurement</th></tr><tr><td>Body mass index (BMI) [Ratio]</td><td>02-Feb-2025</td><td>30 kg/m2</td></tr></table></div>"
        },
        "status": "final",
        "code": {
          "coding": [
            {
              "code": "$39156-5",
              "system": "http://loinc.org",
              "display": "Body mass index (BMI) [Ratio]"
            }
          ]
        },
        "subject": {
          "reference": "urn:uuid:6e94afa9-6401-4575-be50-05ea0e9f060f",
          "display": "Iva Kratochvílová"
        },
        "effectiveDateTime": "2025-02-02"
      }
    },
    {
      "fullUrl": "urn:uuid:b054f6de-999a-4ec8-89fc-35fe3c5427fb",
      "resource": {
        "resourceType": "Observation",
        "id": "b054f6de-999a-4ec8-89fc-35fe3c5427fb",
        "meta": {
          "profile": [
            "http://hl7.org/fhir/StructureDefinition/vitalsigns"
          ]
        },
        "category": [
          {
            "coding": [
              {
                "system": "http://terminology.hl7.org/CodeSystem/observation-category",
                "code": "vital-signs",
                "display": "Vital Signs"
              }
            ]
          }
        ],
        "valueQuantity": {
          "value": 105,
          "code": "mm[Hg]",
          "unit": "mm[Hg]"
        },
        "text": {
          "status": "generated",
          "div": "<div xmlns=\"http://www.w3.org/1999/xhtml\"><table class=\"hl7__ips\"><tr><th>Vital Sign</th><th>Date</th><th>Measurement</th></tr><tr><td>Diastolic Blood Pressure</td><td>02-Feb-2025</td><td>105 mm[Hg]</td></tr></table></div>"
        },
        "status": "final",
        "code": {
          "coding": [
            {
              "code": "$8462-4",
              "system": "http://loinc.org",
              "display": "Diastolic Blood Pressure"
            }
          ]
        },
        "subject": {
          "reference": "urn:uuid:6e94afa9-6401-4575-be50-05ea0e9f060f",
          "display": "Iva Kratochvílová"
        },
        "effectiveDateTime": "2025-02-02"
      }
    },
    {
      "fullUrl": "urn:uuid:a03b0de4-7eda-4c2b-8cdc-3907ff880964",
      "resource": {
        "resourceType": "Observation",
        "id": "a03b0de4-7eda-4c2b-8cdc-3907ff880964",
        "meta": {
          "profile": [
            "http://hl7.org/fhir/StructureDefinition/vitalsigns"
          ]
        },
        "category": [
          {
            "coding": [
              {
                "system": "http://terminology.hl7.org/CodeSystem/observation-category",
                "code": "vital-signs",
                "display": "Vital Signs"
              }
            ]
          }
        ],
        "valueQuantity": {
          "value": 125,
          "code": "mm[Hg]",
          "unit": "mm[Hg]"
        },
        "text": {
          "status": "generated",
          "div": "<div xmlns=\"http://www.w3.org/1999/xhtml\"><table class=\"hl7__ips\"><tr><th>Vital Sign</th><th>Date</th><th>Measurement</th></tr><tr><td>Systolic Blood Pressure</td><td>02-Feb-2025</td><td>125 mm[Hg]</td></tr></table></div>"
        },
        "status": "final",
        "code": {
          "coding": [
            {
              "code": "$8480-6",
              "system": "http://loinc.org",
              "display": "Systolic Blood Pressure"
            }
          ]
        },
        "subject": {
          "reference": "urn:uuid:6e94afa9-6401-4575-be50-05ea0e9f060f",
          "display": "Iva Kratochvílová"
        },
        "effectiveDateTime": "2025-02-02"
      }
    },
    {
      "fullUrl": "urn:uuid:8f4923d5-0462-4ec4-b51c-96407777e09e",
      "resource": {
        "resourceType": "Observation",
        "id": "8f4923d5-0462-4ec4-b51c-96407777e09e",
        "meta": {
          "profile": [
            "http://hl7.org/fhir/StructureDefinition/vitalsigns"
          ]
        },
        "category": [
          {
            "coding": [
              {
                "system": "http://terminology.hl7.org/CodeSystem/observation-category",
                "code": "vital-signs",
                "display": "Vital Signs"
              }
            ]
          }
        ],
        "valueQuantity": {
          "value": 74,
          "code": "/min",
          "unit": "/min"
        },
        "text": {
          "status": "generated",
          "div": "<div xmlns=\"http://www.w3.org/1999/xhtml\"><table class=\"hl7__ips\"><tr><th>Vital Sign</th><th>Date</th><th>Measurement</th></tr><tr><td>Heart rate</td><td>02-Feb-2025</td><td>74 /min</td></tr></table></div>"
        },
        "status": "final",
        "code": {
          "coding": [
            {
              "code": "$8867-4",
              "system": "http://loinc.org",
              "display": "Heart rate"
            }
          ]
        },
        "subject": {
          "reference": "urn:uuid:6e94afa9-6401-4575-be50-05ea0e9f060f",
          "display": "Iva Kratochvílová"
        },
        "effectiveDateTime": "2025-02-02"
      }
    },
    {
      "fullUrl": "urn:uuid:0cab65d3-6c3b-4dd5-a39a-1dc4d6a76a4e",
      "resource": {
        "resourceType": "Observation",
        "id": "0cab65d3-6c3b-4dd5-a39a-1dc4d6a76a4e",
        "meta": {
          "profile": [
            "http://hl7.org/fhir/StructureDefinition/vitalsigns"
          ]
        },
        "category": [
          {
            "coding": [
              {
                "system": "http://terminology.hl7.org/CodeSystem/observation-category",
                "code": "vital-signs",
                "display": "Vital Signs"
              }
            ]
          }
        ],
        "valueQuantity": {
          "value": 14,
          "code": "/min",
          "unit": "/min"
        },
        "text": {
          "status": "generated",
          "div": "<div xmlns=\"http://www.w3.org/1999/xhtml\"><table class=\"hl7__ips\"><tr><th>Vital Sign</th><th>Date</th><th>Measurement</th></tr><tr><td>Respiratory rate</td><td>02-Feb-2025</td><td>14 /min</td></tr></table></div>"
        },
        "status": "final",
        "code": {
          "coding": [
            {
              "code": "$9279-1",
              "system": "http://loinc.org",
              "display": "Respiratory rate"
            }
          ]
        },
        "subject": {
          "reference": "urn:uuid:6e94afa9-6401-4575-be50-05ea0e9f060f",
          "display": "Iva Kratochvílová"
        },
        "effectiveDateTime": "2025-02-02"
      }
    },
    {
      "fullUrl": "urn:uuid:d2a3de73-608b-4b85-bb65-39b1c7737eb9",
      "resource": {
        "resourceType": "Observation",
        "id": "d2a3de73-608b-4b85-bb65-39b1c7737eb9",
        "meta": {
          "profile": [
            "http://hl7.eu/fhir/laboratory/StructureDefinition/Observation-resultslab-eu-lab"
          ]
        },
        "performer": [
          {
            "display": "The Central European Lab"
          }
        ],
        "category": [
          {
            "coding": [
              {
                "system": "http://terminology.hl7.org/CodeSystem/observation-category",
                "code": "laboratory"
              }
            ]
          }
        ],
        "code": {
          "coding": [
            {
              "code": "2345-7",
              "system": "http://loinc.org",
              "display": "Glucose [Mass/volume] in Serum or Plasma"
            }
          ],
          "text": "Glucose [Mass/volume] in Serum or Plasma"
        },
        "valueQuantity": {
          "system": "http://unitsofmeasure.org",
          "value": 89.6,
          "unit": "mg/dL",
          "code": "mg/dL"
        },
        "referenceRange": [
          {
            "low": {
              "value": 70,
              "code": "mg/dL",
              "system": "http://unitsofmeasure.org"
            }
          },
          {
            "high": {
              "value": 99,
              "code": "mg/dL",
              "system": "http://unitsofmeasure.org"
            }
          }
        ],
        "text": {
          "status": "generated",
          "div": "<div xmlns=\"http://www.w3.org/1999/xhtml\"><table class=\"hl7__eu__lab__report\"><tr><th>Test</th><th>23-Mar-2025</th><th>Reference&#xA0;Range</th><th>Unit</th></tr><tr><td>Glucose [Mass/volume] in Serum or Plasma</td><td>89.6</td><td>70 - 99</td><td></td><td>mg/dL</td></tr></table></div>"
        },
        "status": "final",
        "subject": {
          "reference": "urn:uuid:6e94afa9-6401-4575-be50-05ea0e9f060f",
          "display": "Iva Kratochvílová"
        },
        "effectiveDateTime": "2025-03-23T16:10:29Z"
      }
    },
    {
      "fullUrl": "urn:uuid:7b074639-5bd3-449c-88a0-af92897cc207",
      "resource": {
        "resourceType": "Observation",
        "id": "7b074639-5bd3-449c-88a0-af92897cc207",
        "meta": {
          "profile": [
            "http://hl7.eu/fhir/laboratory/StructureDefinition/Observation-resultslab-eu-lab"
          ]
        },
        "performer": [
          {
            "display": "The Central European Lab"
          }
        ],
        "category": [
          {
            "coding": [
              {
                "system": "http://terminology.hl7.org/CodeSystem/observation-category",
                "code": "laboratory"
              }
            ]
          }
        ],
        "code": {
          "coding": [
            {
              "code": "3094-0",
              "system": "http://loinc.org",
              "display": "Urea nitrogen [Mass/volume] in Serum or Plasma"
            }
          ],
          "text": "Urea nitrogen [Mass/volume] in Serum or Plasma"
        },
        "valueQuantity": {
          "system": "http://unitsofmeasure.org",
          "value": 7.4,
          "unit": "mg/dL",
          "code": "mg/dL"
        },
        "referenceRange": [
          {
            "low": {
              "value": 7,
              "code": "mg/dL",
              "system": "http://unitsofmeasure.org"
            }
          },
          {
            "high": {
              "value": 20,
              "code": "mg/dL",
              "system": "http://unitsofmeasure.org"
            }
          }
        ],
        "text": {
          "status": "generated",
          "div": "<div xmlns=\"http://www.w3.org/1999/xhtml\"><table class=\"hl7__eu__lab__report\"><tr><th>Test</th><th>23-Mar-2025</th><th>Reference&#xA0;Range</th><th>Unit</th></tr><tr><td>Urea nitrogen [Mass/volume] in Serum or Plasma</td><td>7.4</td><td>7 - 20</td><td></td><td>mg/dL</td></tr></table></div>"
        },
        "status": "final",
        "subject": {
          "reference": "urn:uuid:6e94afa9-6401-4575-be50-05ea0e9f060f",
          "display": "Iva Kratochvílová"
        },
        "effectiveDateTime": "2025-03-23T16:10:29Z"
      }
    },
    {
      "fullUrl": "urn:uuid:ab2ba86e-60ab-43dc-b89f-872a8d93098a",
      "resource": {
        "resourceType": "Observation",
        "id": "ab2ba86e-60ab-43dc-b89f-872a8d93098a",
        "meta": {
          "profile": [
            "http://hl7.eu/fhir/laboratory/StructureDefinition/Observation-resultslab-eu-lab"
          ]
        },
        "performer": [
          {
            "display": "The Central European Lab"
          }
        ],
        "category": [
          {
            "coding": [
              {
                "system": "http://terminology.hl7.org/CodeSystem/observation-category",
                "code": "laboratory"
              }
            ]
          }
        ],
        "code": {
          "coding": [
            {
              "code": "2160-0",
              "system": "http://loinc.org",
              "display": "Creatinine [Mass/volume] in Serum or Plasma"
            }
          ],
          "text": "Creatinine [Mass/volume] in Serum or Plasma"
        },
        "valueQuantity": {
          "system": "http://unitsofmeasure.org",
          "value": 1.9,
          "unit": "mg/dL",
          "code": "mg/dL"
        },
        "referenceRange": [
          {
            "low": {
              "value": 0.6,
              "code": "mg/dL",
              "system": "http://unitsofmeasure.org"
            }
          },
          {
            "high": {
              "value": 1.3,
              "code": "mg/dL",
              "system": "http://unitsofmeasure.org"
            }
          }
        ],
        "interpretation": [
          {
            "coding": [
              {
                "code": "H",
                "system": "http://terminology.hl7.org/CodeSystem/v3-ObservationInterpretation",
                "display": "High"
              }
            ]
          }
        ],
        "text": {
          "status": "generated",
          "div": "<div xmlns=\"http://www.w3.org/1999/xhtml\"><table class=\"hl7__eu__lab__report\"><tr><th>Test</th><th>23-Mar-2025</th><th>Reference&#xA0;Range</th><th>Unit</th></tr><tr><td>Creatinine [Mass/volume] in Serum or Plasma</td><td>1.9</td><td>0.6 - 1.3</td><td>H</td><td>mg/dL</td></tr></table></div>"
        },
        "status": "final",
        "subject": {
          "reference": "urn:uuid:6e94afa9-6401-4575-be50-05ea0e9f060f",
          "display": "Iva Kratochvílová"
        },
        "effectiveDateTime": "2025-03-23T16:10:29Z"
      }
    },
    {
      "fullUrl": "urn:uuid:ca190522-24e9-4c54-8de4-f32a1b6188f5",
      "resource": {
        "resourceType": "Observation",
        "id": "ca190522-24e9-4c54-8de4-f32a1b6188f5",
        "meta": {
          "profile": [
            "http://hl7.eu/fhir/laboratory/StructureDefinition/Observation-resultslab-eu-lab"
          ]
        },
        "performer": [
          {
            "display": "The Central European Lab"
          }
        ],
        "category": [
          {
            "coding": [
              {
                "system": "http://terminology.hl7.org/CodeSystem/observation-category",
                "code": "laboratory"
              }
            ]
          }
        ],
        "code": {
          "coding": [
            {
              "code": "17861-6",
              "system": "http://loinc.org",
              "display": "Calcium [Mass/volume] in Serum or Plasma"
            }
          ],
          "text": "Calcium [Mass/volume] in Serum or Plasma"
        },
        "valueQuantity": {
          "system": "http://unitsofmeasure.org",
          "value": 10.1,
          "unit": "mg/dL",
          "code": "mg/dL"
        },
        "referenceRange": [
          {
            "low": {
              "value": 8.6,
              "code": "mg/dL",
              "system": "http://unitsofmeasure.org"
            }
          },
          {
            "high": {
              "value": 10.4,
              "code": "mg/dL",
              "system": "http://unitsofmeasure.org"
            }
          }
        ],
        "text": {
          "status": "generated",
          "div": "<div xmlns=\"http://www.w3.org/1999/xhtml\"><table class=\"hl7__eu__lab__report\"><tr><th>Test</th><th>23-Mar-2025</th><th>Reference&#xA0;Range</th><th>Unit</th></tr><tr><td>Calcium [Mass/volume] in Serum or Plasma</td><td>10.1</td><td>8.6 - 10.4</td><td></td><td>mg/dL</td></tr></table></div>"
        },
        "status": "final",
        "subject": {
          "reference": "urn:uuid:6e94afa9-6401-4575-be50-05ea0e9f060f",
          "display": "Iva Kratochvílová"
        },
        "effectiveDateTime": "2025-03-23T16:10:29Z"
      }
    },
    {
      "fullUrl": "urn:uuid:0829ffc6-17a8-42d9-95e4-01f220245739",
      "resource": {
        "resourceType": "Observation",
        "id": "0829ffc6-17a8-42d9-95e4-01f220245739",
        "meta": {
          "profile": [
            "http://hl7.eu/fhir/laboratory/StructureDefinition/Observation-resultslab-eu-lab"
          ]
        },
        "performer": [
          {
            "display": "The Central European Lab"
          }
        ],
        "category": [
          {
            "coding": [
              {
                "system": "http://terminology.hl7.org/CodeSystem/observation-category",
                "code": "laboratory"
              }
            ]
          }
        ],
        "code": {
          "coding": [
            {
              "code": "2951-2",
              "system": "http://loinc.org",
              "display": "Sodium [Moles/volume] in Serum or Plasma"
            }
          ],
          "text": "Sodium [Moles/volume] in Serum or Plasma"
        },
        "valueQuantity": {
          "system": "http://unitsofmeasure.org",
          "value": 138.8,
          "unit": "mmol/L",
          "code": "mmol/L"
        },
        "referenceRange": [
          {
            "low": {
              "value": 135,
              "code": "mmol/L",
              "system": "http://unitsofmeasure.org"
            }
          },
          {
            "high": {
              "value": 145,
              "code": "mmol/L",
              "system": "http://unitsofmeasure.org"
            }
          }
        ],
        "text": {
          "status": "generated",
          "div": "<div xmlns=\"http://www.w3.org/1999/xhtml\"><table class=\"hl7__eu__lab__report\"><tr><th>Test</th><th>23-Mar-2025</th><th>Reference&#xA0;Range</th><th>Unit</th></tr><tr><td>Sodium [Moles/volume] in Serum or Plasma</td><td>138.8</td><td>135 - 145</td><td></td><td>mmol/L</td></tr></table></div>"
        },
        "status": "final",
        "subject": {
          "reference": "urn:uuid:6e94afa9-6401-4575-be50-05ea0e9f060f",
          "display": "Iva Kratochvílová"
        },
        "effectiveDateTime": "2025-03-23T16:10:29Z"
      }
    },
    {
      "fullUrl": "urn:uuid:eaf3493a-87ea-4b13-aa87-563b5871d5c1",
      "resource": {
        "resourceType": "Observation",
        "id": "eaf3493a-87ea-4b13-aa87-563b5871d5c1",
        "meta": {
          "profile": [
            "http://hl7.eu/fhir/laboratory/StructureDefinition/Observation-resultslab-eu-lab"
          ]
        },
        "performer": [
          {
            "display": "The Central European Lab"
          }
        ],
        "category": [
          {
            "coding": [
              {
                "system": "http://terminology.hl7.org/CodeSystem/observation-category",
                "code": "laboratory"
              }
            ]
          }
        ],
        "code": {
          "coding": [
            {
              "code": "2823-3",
              "system": "http://loinc.org",
              "display": "Potassium [Moles/volume] in Serum or Plasma"
            }
          ],
          "text": "Potassium [Moles/volume] in Serum or Plasma"
        },
        "valueQuantity": {
          "system": "http://unitsofmeasure.org",
          "value": 3.8,
          "unit": "mmol/L",
          "code": "mmol/L"
        },
        "referenceRange": [
          {
            "low": {
              "value": 3.5,
              "code": "mmol/L",
              "system": "http://unitsofmeasure.org"
            }
          },
          {
            "high": {
              "value": 5,
              "code": "mmol/L",
              "system": "http://unitsofmeasure.org"
            }
          }
        ],
        "text": {
          "status": "generated",
          "div": "<div xmlns=\"http://www.w3.org/1999/xhtml\"><table class=\"hl7__eu__lab__report\"><tr><th>Test</th><th>23-Mar-2025</th><th>Reference&#xA0;Range</th><th>Unit</th></tr><tr><td>Potassium [Moles/volume] in Serum or Plasma</td><td>3.8</td><td>3.5 - 5</td><td></td><td>mmol/L</td></tr></table></div>"
        },
        "status": "final",
        "subject": {
          "reference": "urn:uuid:6e94afa9-6401-4575-be50-05ea0e9f060f",
          "display": "Iva Kratochvílová"
        },
        "effectiveDateTime": "2025-03-23T16:10:29Z"
      }
    },
    {
      "fullUrl": "urn:uuid:6ad306c0-00d5-411f-a85d-394fba8dae2b",
      "resource": {
        "resourceType": "Observation",
        "id": "6ad306c0-00d5-411f-a85d-394fba8dae2b",
        "meta": {
          "profile": [
            "http://hl7.eu/fhir/laboratory/StructureDefinition/Observation-resultslab-eu-lab"
          ]
        },
        "performer": [
          {
            "display": "The Central European Lab"
          }
        ],
        "category": [
          {
            "coding": [
              {
                "system": "http://terminology.hl7.org/CodeSystem/observation-category",
                "code": "laboratory"
              }
            ]
          }
        ],
        "code": {
          "coding": [
            {
              "code": "2075-0",
              "system": "http://loinc.org",
              "display": "Chloride [Moles/volume] in Serum or Plasma"
            }
          ],
          "text": "Chloride [Moles/volume] in Serum or Plasma"
        },
        "valueQuantity": {
          "system": "http://unitsofmeasure.org",
          "value": 106.4,
          "unit": "mmol/L",
          "code": "mmol/L"
        },
        "referenceRange": [
          {
            "low": {
              "value": 98,
              "code": "mmol/L",
              "system": "http://unitsofmeasure.org"
            }
          },
          {
            "high": {
              "value": 106,
              "code": "mmol/L",
              "system": "http://unitsofmeasure.org"
            }
          }
        ],
        "interpretation": [
          {
            "coding": [
              {
                "code": "H",
                "system": "http://terminology.hl7.org/CodeSystem/v3-ObservationInterpretation",
                "display": "High"
              }
            ]
          }
        ],
        "text": {
          "status": "generated",
          "div": "<div xmlns=\"http://www.w3.org/1999/xhtml\"><table class=\"hl7__eu__lab__report\"><tr><th>Test</th><th>23-Mar-2025</th><th>Reference&#xA0;Range</th><th>Unit</th></tr><tr><td>Chloride [Moles/volume] in Serum or Plasma</td><td>106.4</td><td>98 - 106</td><td>H</td><td>mmol/L</td></tr></table></div>"
        },
        "status": "final",
        "subject": {
          "reference": "urn:uuid:6e94afa9-6401-4575-be50-05ea0e9f060f",
          "display": "Iva Kratochvílová"
        },
        "effectiveDateTime": "2025-03-23T16:10:29Z"
      }
    },
    {
      "fullUrl": "urn:uuid:feeb8ace-fd01-417e-b124-9dd0093cff01",
      "resource": {
        "resourceType": "Observation",
        "id": "feeb8ace-fd01-417e-b124-9dd0093cff01",
        "meta": {
          "profile": [
            "http://hl7.eu/fhir/laboratory/StructureDefinition/Observation-resultslab-eu-lab"
          ]
        },
        "performer": [
          {
            "display": "The Central European Lab"
          }
        ],
        "category": [
          {
            "coding": [
              {
                "system": "http://terminology.hl7.org/CodeSystem/observation-category",
                "code": "laboratory"
              }
            ]
          }
        ],
        "code": {
          "coding": [
            {
              "code": "2028-9",
              "system": "http://loinc.org",
              "display": "Carbon dioxide, total [Moles/volume] in Serum or Plasma"
            }
          ],
          "text": "Carbon dioxide, total [Moles/volume] in Serum or Plasma"
        },
        "valueQuantity": {
          "system": "http://unitsofmeasure.org",
          "value": 21.3,
          "unit": "mmol/L",
          "code": "mmol/L"
        },
        "referenceRange": [
          {
            "low": {
              "value": 22,
              "code": "mmol/L",
              "system": "http://unitsofmeasure.org"
            }
          },
          {
            "high": {
              "value": 29,
              "code": "mmol/L",
              "system": "http://unitsofmeasure.org"
            }
          }
        ],
        "interpretation": [
          {
            "coding": [
              {
                "code": "L",
                "system": "http://terminology.hl7.org/CodeSystem/v3-ObservationInterpretation",
                "display": "Low"
              }
            ]
          }
        ],
        "text": {
          "status": "generated",
          "div": "<div xmlns=\"http://www.w3.org/1999/xhtml\"><table class=\"hl7__eu__lab__report\"><tr><th>Test</th><th>23-Mar-2025</th><th>Reference&#xA0;Range</th><th>Unit</th></tr><tr><td>Carbon dioxide, total [Moles/volume] in Serum or Plasma</td><td>21.3</td><td>22 - 29</td><td>L</td><td>mmol/L</td></tr></table></div>"
        },
        "status": "final",
        "subject": {
          "reference": "urn:uuid:6e94afa9-6401-4575-be50-05ea0e9f060f",
          "display": "Iva Kratochvílová"
        },
        "effectiveDateTime": "2025-03-23T16:10:29Z"
      }
    },
    {
      "fullUrl": "urn:uuid:bfeaa4b6-a7a6-4bf8-9018-db9a1c0ad147",
      "resource": {
        "resourceType": "Observation",
        "id": "bfeaa4b6-a7a6-4bf8-9018-db9a1c0ad147",
        "meta": {
          "profile": [
            "http://hl7.eu/fhir/laboratory/StructureDefinition/Observation-resultslab-eu-lab"
          ]
        },
        "performer": [
          {
            "display": "The Central European Lab"
          }
        ],
        "category": [
          {
            "coding": [
              {
                "system": "http://terminology.hl7.org/CodeSystem/observation-category",
                "code": "laboratory"
              }
            ]
          }
        ],
        "code": {
          "coding": [
            {
              "code": "5767-9",
              "system": "http://loinc.org",
              "display": "Appearance of Urine"
            }
          ],
          "text": "Appearance of Urine"
        },
        "text": {
          "status": "generated",
          "div": "<div xmlns=\"http://www.w3.org/1999/xhtml\"><table class=\"hl7__eu__lab__report\"><tr><th>Test</th><th>23-Mar-2025</th><th>Reference&#xA0;Range</th><th>Unit</th></tr><tr><td>Appearance of Urine</td></tr></table></div>"
        },
        "status": "final",
        "subject": {
          "reference": "urn:uuid:6e94afa9-6401-4575-be50-05ea0e9f060f",
          "display": "Iva Kratochvílová"
        },
        "effectiveDateTime": "2025-03-23T16:10:29Z"
      }
    },
    {
      "fullUrl": "urn:uuid:a41b9e0b-7e07-4612-8321-9956c0d43d43",
      "resource": {
        "resourceType": "Observation",
        "id": "a41b9e0b-7e07-4612-8321-9956c0d43d43",
        "meta": {
          "profile": [
            "http://hl7.eu/fhir/laboratory/StructureDefinition/Observation-resultslab-eu-lab"
          ]
        },
        "performer": [
          {
            "display": "The Central European Lab"
          }
        ],
        "category": [
          {
            "coding": [
              {
                "system": "http://terminology.hl7.org/CodeSystem/observation-category",
                "code": "laboratory"
              }
            ]
          }
        ],
        "code": {
          "coding": [
            {
              "code": "34533-0",
              "system": "http://loinc.org",
              "display": "Odor of Urine"
            }
          ],
          "text": "Odor of Urine"
        },
        "text": {
          "status": "generated",
          "div": "<div xmlns=\"http://www.w3.org/1999/xhtml\"><table class=\"hl7__eu__lab__report\"><tr><th>Test</th><th>23-Mar-2025</th><th>Reference&#xA0;Range</th><th>Unit</th></tr><tr><td>Odor of Urine</td></tr></table></div>"
        },
        "status": "final",
        "subject": {
          "reference": "urn:uuid:6e94afa9-6401-4575-be50-05ea0e9f060f",
          "display": "Iva Kratochvílová"
        },
        "effectiveDateTime": "2025-03-23T16:10:29Z"
      }
    },
    {
      "fullUrl": "urn:uuid:fea1124d-5536-4e4f-ab32-0f2159942c7b",
      "resource": {
        "resourceType": "Observation",
        "id": "fea1124d-5536-4e4f-ab32-0f2159942c7b",
        "meta": {
          "profile": [
            "http://hl7.eu/fhir/laboratory/StructureDefinition/Observation-resultslab-eu-lab"
          ]
        },
        "performer": [
          {
            "display": "The Central European Lab"
          }
        ],
        "category": [
          {
            "coding": [
              {
                "system": "http://terminology.hl7.org/CodeSystem/observation-category",
                "code": "laboratory"
              }
            ]
          }
        ],
        "code": {
          "coding": [
            {
              "code": "32167-9",
              "system": "http://loinc.org",
              "display": "Clarity of Urine"
            }
          ],
          "text": "Clarity of Urine"
        },
        "text": {
          "status": "generated",
          "div": "<div xmlns=\"http://www.w3.org/1999/xhtml\"><table class=\"hl7__eu__lab__report\"><tr><th>Test</th><th>23-Mar-2025</th><th>Reference&#xA0;Range</th><th>Unit</th></tr><tr><td>Clarity of Urine</td></tr></table></div>"
        },
        "status": "final",
        "subject": {
          "reference": "urn:uuid:6e94afa9-6401-4575-be50-05ea0e9f060f",
          "display": "Iva Kratochvílová"
        },
        "effectiveDateTime": "2025-03-23T16:10:29Z"
      }
    },
    {
      "fullUrl": "urn:uuid:64e8c95d-96cb-471d-80ee-f063b20b7fb0",
      "resource": {
        "resourceType": "Observation",
        "id": "64e8c95d-96cb-471d-80ee-f063b20b7fb0",
        "meta": {
          "profile": [
            "http://hl7.eu/fhir/laboratory/StructureDefinition/Observation-resultslab-eu-lab"
          ]
        },
        "performer": [
          {
            "display": "The Central European Lab"
          }
        ],
        "category": [
          {
            "coding": [
              {
                "system": "http://terminology.hl7.org/CodeSystem/observation-category",
                "code": "laboratory"
              }
            ]
          }
        ],
        "code": {
          "coding": [
            {
              "code": "5778-6",
              "system": "http://loinc.org",
              "display": "Color of Urine"
            }
          ],
          "text": "Color of Urine"
        },
        "text": {
          "status": "generated",
          "div": "<div xmlns=\"http://www.w3.org/1999/xhtml\"><table class=\"hl7__eu__lab__report\"><tr><th>Test</th><th>23-Mar-2025</th><th>Reference&#xA0;Range</th><th>Unit</th></tr><tr><td>Color of Urine</td></tr></table></div>"
        },
        "status": "final",
        "subject": {
          "reference": "urn:uuid:6e94afa9-6401-4575-be50-05ea0e9f060f",
          "display": "Iva Kratochvílová"
        },
        "effectiveDateTime": "2025-03-23T16:10:29Z"
      }
    },
    {
      "fullUrl": "urn:uuid:1a0551b1-230c-4d20-8969-5fb4b38e1b10",
      "resource": {
        "resourceType": "Observation",
        "id": "1a0551b1-230c-4d20-8969-5fb4b38e1b10",
        "meta": {
          "profile": [
            "http://hl7.eu/fhir/laboratory/StructureDefinition/Observation-resultslab-eu-lab"
          ]
        },
        "performer": [
          {
            "display": "The Central European Lab"
          }
        ],
        "category": [
          {
            "coding": [
              {
                "system": "http://terminology.hl7.org/CodeSystem/observation-category",
                "code": "laboratory"
              }
            ]
          }
        ],
        "code": {
          "coding": [
            {
              "code": "5792-7",
              "system": "http://loinc.org",
              "display": "Glucose [Mass/volume] in Urine by Test strip"
            }
          ],
          "text": "Glucose [Mass/volume] in Urine by Test strip"
        },
        "valueQuantity": {
          "system": "http://unitsofmeasure.org",
          "value": 1.3,
          "unit": "mg/dL",
          "code": "mg/dL"
        },
        "referenceRange": [
          {
            "low": {
              "value": 0,
              "code": "mg/dL",
              "system": "http://unitsofmeasure.org"
            }
          },
          {
            "high": {
              "value": 0.8,
              "code": "mg/dL",
              "system": "http://unitsofmeasure.org"
            }
          }
        ],
        "interpretation": [
          {
            "coding": [
              {
                "code": "H",
                "system": "http://terminology.hl7.org/CodeSystem/v3-ObservationInterpretation",
                "display": "High"
              }
            ]
          }
        ],
        "text": {
          "status": "generated",
          "div": "<div xmlns=\"http://www.w3.org/1999/xhtml\"><table class=\"hl7__eu__lab__report\"><tr><th>Test</th><th>23-Mar-2025</th><th>Reference&#xA0;Range</th><th>Unit</th></tr><tr><td>Glucose [Mass/volume] in Urine by Test strip</td><td>1.3</td><td>0 - 0.8</td><td>H</td><td>mg/dL</td></tr></table></div>"
        },
        "status": "final",
        "subject": {
          "reference": "urn:uuid:6e94afa9-6401-4575-be50-05ea0e9f060f",
          "display": "Iva Kratochvílová"
        },
        "effectiveDateTime": "2025-03-23T16:10:29Z"
      }
    },
    {
      "fullUrl": "urn:uuid:f8d1cc6f-e70b-4c90-abe2-b7a2305dfafe",
      "resource": {
        "resourceType": "Observation",
        "id": "f8d1cc6f-e70b-4c90-abe2-b7a2305dfafe",
        "meta": {
          "profile": [
            "http://hl7.eu/fhir/laboratory/StructureDefinition/Observation-resultslab-eu-lab"
          ]
        },
        "performer": [
          {
            "display": "The Central European Lab"
          }
        ],
        "category": [
          {
            "coding": [
              {
                "system": "http://terminology.hl7.org/CodeSystem/observation-category",
                "code": "laboratory"
              }
            ]
          }
        ],
        "code": {
          "coding": [
            {
              "code": "25428-4",
              "system": "http://loinc.org",
              "display": "Glucose [Presence] in Urine by Test strip"
            }
          ],
          "text": "Glucose [Presence] in Urine by Test strip"
        },
        "text": {
          "status": "generated",
          "div": "<div xmlns=\"http://www.w3.org/1999/xhtml\"><table class=\"hl7__eu__lab__report\"><tr><th>Test</th><th>23-Mar-2025</th><th>Reference&#xA0;Range</th><th>Unit</th></tr><tr><td>Glucose [Presence] in Urine by Test strip</td></tr></table></div>"
        },
        "status": "final",
        "subject": {
          "reference": "urn:uuid:6e94afa9-6401-4575-be50-05ea0e9f060f",
          "display": "Iva Kratochvílová"
        },
        "effectiveDateTime": "2025-03-23T16:10:29Z"
      }
    },
    {
      "fullUrl": "urn:uuid:9ca758f0-9d5c-465b-8ded-90991b5ce9ea",
      "resource": {
        "resourceType": "Observation",
        "id": "9ca758f0-9d5c-465b-8ded-90991b5ce9ea",
        "meta": {
          "profile": [
            "http://hl7.eu/fhir/laboratory/StructureDefinition/Observation-resultslab-eu-lab"
          ]
        },
        "performer": [
          {
            "display": "The Central European Lab"
          }
        ],
        "category": [
          {
            "coding": [
              {
                "system": "http://terminology.hl7.org/CodeSystem/observation-category",
                "code": "laboratory"
              }
            ]
          }
        ],
        "code": {
          "coding": [
            {
              "code": "20505-4",
              "system": "http://loinc.org",
              "display": "Bilirubin.total [Mass/volume] in Urine by Test strip"
            }
          ],
          "text": "Bilirubin.total [Mass/volume] in Urine by Test strip"
        },
        "valueQuantity": {
          "system": "http://unitsofmeasure.org",
          "value": 0.9,
          "unit": "mg/dL",
          "code": "mg/dL"
        },
        "referenceRange": [
          {
            "low": {
              "value": 0,
              "code": "mg/dL",
              "system": "http://unitsofmeasure.org"
            }
          },
          {
            "high": {
              "value": 1,
              "code": "mg/dL",
              "system": "http://unitsofmeasure.org"
            }
          }
        ],
        "text": {
          "status": "generated",
          "div": "<div xmlns=\"http://www.w3.org/1999/xhtml\"><table class=\"hl7__eu__lab__report\"><tr><th>Test</th><th>23-Mar-2025</th><th>Reference&#xA0;Range</th><th>Unit</th></tr><tr><td>Bilirubin.total [Mass/volume] in Urine by Test strip</td><td>0.9</td><td>0 - 1</td><td></td><td>mg/dL</td></tr></table></div>"
        },
        "status": "final",
        "subject": {
          "reference": "urn:uuid:6e94afa9-6401-4575-be50-05ea0e9f060f",
          "display": "Iva Kratochvílová"
        },
        "effectiveDateTime": "2025-03-23T16:10:29Z"
      }
    },
    {
      "fullUrl": "urn:uuid:76182434-c312-4c4f-9343-cd25f1684199",
      "resource": {
        "resourceType": "Observation",
        "id": "76182434-c312-4c4f-9343-cd25f1684199",
        "meta": {
          "profile": [
            "http://hl7.eu/fhir/laboratory/StructureDefinition/Observation-resultslab-eu-lab"
          ]
        },
        "performer": [
          {
            "display": "The Central European Lab"
          }
        ],
        "category": [
          {
            "coding": [
              {
                "system": "http://terminology.hl7.org/CodeSystem/observation-category",
                "code": "laboratory"
              }
            ]
          }
        ],
        "code": {
          "coding": [
            {
              "code": "5770-3",
              "system": "http://loinc.org",
              "display": "Bilirubin.total [Presence] in Urine by Test strip"
            }
          ],
          "text": "Bilirubin.total [Presence] in Urine by Test strip"
        },
        "text": {
          "status": "generated",
          "div": "<div xmlns=\"http://www.w3.org/1999/xhtml\"><table class=\"hl7__eu__lab__report\"><tr><th>Test</th><th>23-Mar-2025</th><th>Reference&#xA0;Range</th><th>Unit</th></tr><tr><td>Bilirubin.total [Presence] in Urine by Test strip</td></tr></table></div>"
        },
        "status": "final",
        "subject": {
          "reference": "urn:uuid:6e94afa9-6401-4575-be50-05ea0e9f060f",
          "display": "Iva Kratochvílová"
        },
        "effectiveDateTime": "2025-03-23T16:10:29Z"
      }
    },
    {
      "fullUrl": "urn:uuid:78945abb-a069-42df-a2eb-216da6628375",
      "resource": {
        "resourceType": "Observation",
        "id": "78945abb-a069-42df-a2eb-216da6628375",
        "meta": {
          "profile": [
            "http://hl7.eu/fhir/laboratory/StructureDefinition/Observation-resultslab-eu-lab"
          ]
        },
        "performer": [
          {
            "display": "The Central European Lab"
          }
        ],
        "category": [
          {
            "coding": [
              {
                "system": "http://terminology.hl7.org/CodeSystem/observation-category",
                "code": "laboratory"
              }
            ]
          }
        ],
        "code": {
          "coding": [
            {
              "code": "5797-6",
              "system": "http://loinc.org",
              "display": "Ketones [Mass/volume] in Urine by Test strip"
            }
          ],
          "text": "Ketones [Mass/volume] in Urine by Test strip"
        },
        "valueQuantity": {
          "system": "http://unitsofmeasure.org",
          "value": 2,
          "unit": "mg/dL",
          "code": "mg/dL"
        },
        "referenceRange": [
          {
            "low": {
              "value": 0,
              "code": "mg/dL",
              "system": "http://unitsofmeasure.org"
            }
          },
          {
            "high": {
              "value": 4,
              "code": "mg/dL",
              "system": "http://unitsofmeasure.org"
            }
          }
        ],
        "text": {
          "status": "generated",
          "div": "<div xmlns=\"http://www.w3.org/1999/xhtml\"><table class=\"hl7__eu__lab__report\"><tr><th>Test</th><th>23-Mar-2025</th><th>Reference&#xA0;Range</th><th>Unit</th></tr><tr><td>Ketones [Mass/volume] in Urine by Test strip</td><td>2.0</td><td>0 - 4</td><td></td><td>mg/dL</td></tr></table></div>"
        },
        "status": "final",
        "subject": {
          "reference": "urn:uuid:6e94afa9-6401-4575-be50-05ea0e9f060f",
          "display": "Iva Kratochvílová"
        },
        "effectiveDateTime": "2025-03-23T16:10:29Z"
      }
    },
    {
      "fullUrl": "urn:uuid:d585050a-f91e-45c3-a058-4ac9e3e283aa",
      "resource": {
        "resourceType": "Observation",
        "id": "d585050a-f91e-45c3-a058-4ac9e3e283aa",
        "meta": {
          "profile": [
            "http://hl7.eu/fhir/laboratory/StructureDefinition/Observation-resultslab-eu-lab"
          ]
        },
        "performer": [
          {
            "display": "The Central European Lab"
          }
        ],
        "category": [
          {
            "coding": [
              {
                "system": "http://terminology.hl7.org/CodeSystem/observation-category",
                "code": "laboratory"
              }
            ]
          }
        ],
        "code": {
          "coding": [
            {
              "code": "2514-8",
              "system": "http://loinc.org",
              "display": "Ketones [Presence] in Urine by Test strip"
            }
          ],
          "text": "Ketones [Presence] in Urine by Test strip"
        },
        "text": {
          "status": "generated",
          "div": "<div xmlns=\"http://www.w3.org/1999/xhtml\"><table class=\"hl7__eu__lab__report\"><tr><th>Test</th><th>23-Mar-2025</th><th>Reference&#xA0;Range</th><th>Unit</th></tr><tr><td>Ketones [Presence] in Urine by Test strip</td></tr></table></div>"
        },
        "status": "final",
        "subject": {
          "reference": "urn:uuid:6e94afa9-6401-4575-be50-05ea0e9f060f",
          "display": "Iva Kratochvílová"
        },
        "effectiveDateTime": "2025-03-23T16:10:29Z"
      }
    },
    {
      "fullUrl": "urn:uuid:90a49c17-d88f-4e71-9219-b95d5a3dfaba",
      "resource": {
        "resourceType": "Observation",
        "id": "90a49c17-d88f-4e71-9219-b95d5a3dfaba",
        "meta": {
          "profile": [
            "http://hl7.eu/fhir/laboratory/StructureDefinition/Observation-resultslab-eu-lab"
          ]
        },
        "performer": [
          {
            "display": "The Central European Lab"
          }
        ],
        "category": [
          {
            "coding": [
              {
                "system": "http://terminology.hl7.org/CodeSystem/observation-category",
                "code": "laboratory"
              }
            ]
          }
        ],
        "code": {
          "coding": [
            {
              "code": "5811-5",
              "system": "http://loinc.org",
              "display": "Specific gravity of Urine by Test strip"
            }
          ],
          "text": "Specific gravity of Urine by Test strip"
        },
        "valueQuantity": {
          "system": "http://unitsofmeasure.org",
          "value": 1,
          "unit": "{nominal}",
          "code": "{nominal}"
        },
        "referenceRange": [
          {
            "low": {
              "value": 1.005,
              "code": "g/mL",
              "system": "http://unitsofmeasure.org"
            }
          },
          {
            "high": {
              "value": 1.03,
              "code": "g/mL",
              "system": "http://unitsofmeasure.org"
            }
          }
        ],
        "interpretation": [
          {
            "coding": [
              {
                "code": "L",
                "system": "http://terminology.hl7.org/CodeSystem/v3-ObservationInterpretation",
                "display": "Low"
              }
            ]
          }
        ],
        "text": {
          "status": "generated",
          "div": "<div xmlns=\"http://www.w3.org/1999/xhtml\"><table class=\"hl7__eu__lab__report\"><tr><th>Test</th><th>23-Mar-2025</th><th>Reference&#xA0;Range</th><th>Unit</th></tr><tr><td>Specific gravity of Urine by Test strip</td><td>1.0</td><td>1.005 - 1.03</td><td>L</td><td>{nominal}</td></tr></table></div>"
        },
        "status": "final",
        "subject": {
          "reference": "urn:uuid:6e94afa9-6401-4575-be50-05ea0e9f060f",
          "display": "Iva Kratochvílová"
        },
        "effectiveDateTime": "2025-03-23T16:10:29Z"
      }
    },
    {
      "fullUrl": "urn:uuid:bf29b41c-c65a-482d-b57f-da42f3cd046e",
      "resource": {
        "resourceType": "Observation",
        "id": "bf29b41c-c65a-482d-b57f-da42f3cd046e",
        "meta": {
          "profile": [
            "http://hl7.eu/fhir/laboratory/StructureDefinition/Observation-resultslab-eu-lab"
          ]
        },
        "performer": [
          {
            "display": "The Central European Lab"
          }
        ],
        "category": [
          {
            "coding": [
              {
                "system": "http://terminology.hl7.org/CodeSystem/observation-category",
                "code": "laboratory"
              }
            ]
          }
        ],
        "code": {
          "coding": [
            {
              "code": "5803-2",
              "system": "http://loinc.org",
              "display": "pH of Urine by Test strip"
            }
          ],
          "text": "pH of Urine by Test strip"
        },
        "valueQuantity": {
          "system": "http://unitsofmeasure.org",
          "value": 6.1,
          "unit": "pH",
          "code": "pH"
        },
        "referenceRange": [
          {
            "low": {
              "value": 4.5,
              "code": "pH",
              "system": "http://unitsofmeasure.org"
            }
          },
          {
            "high": {
              "value": 7,
              "code": "pH",
              "system": "http://unitsofmeasure.org"
            }
          }
        ],
        "text": {
          "status": "generated",
          "div": "<div xmlns=\"http://www.w3.org/1999/xhtml\"><table class=\"hl7__eu__lab__report\"><tr><th>Test</th><th>23-Mar-2025</th><th>Reference&#xA0;Range</th><th>Unit</th></tr><tr><td>pH of Urine by Test strip</td><td>6.1</td><td>4.5 - 7</td><td></td><td>pH</td></tr></table></div>"
        },
        "status": "final",
        "subject": {
          "reference": "urn:uuid:6e94afa9-6401-4575-be50-05ea0e9f060f",
          "display": "Iva Kratochvílová"
        },
        "effectiveDateTime": "2025-03-23T16:10:29Z"
      }
    },
    {
      "fullUrl": "urn:uuid:14566837-ca8c-4e33-b322-bb135ee773ae",
      "resource": {
        "resourceType": "Observation",
        "id": "14566837-ca8c-4e33-b322-bb135ee773ae",
        "meta": {
          "profile": [
            "http://hl7.eu/fhir/laboratory/StructureDefinition/Observation-resultslab-eu-lab"
          ]
        },
        "performer": [
          {
            "display": "The Central European Lab"
          }
        ],
        "category": [
          {
            "coding": [
              {
                "system": "http://terminology.hl7.org/CodeSystem/observation-category",
                "code": "laboratory"
              }
            ]
          }
        ],
        "code": {
          "coding": [
            {
              "code": "5804-0",
              "system": "http://loinc.org",
              "display": "Protein [Mass/volume] in Urine by Test strip"
            }
          ],
          "text": "Protein [Mass/volume] in Urine by Test strip"
        },
        "valueQuantity": {
          "system": "http://unitsofmeasure.org",
          "value": 318.1,
          "unit": "mg/dL",
          "code": "mg/dL"
        },
        "referenceRange": [
          {
            "low": {
              "value": 0,
              "code": "mg/dL",
              "system": "http://unitsofmeasure.org"
            }
          },
          {
            "high": {
              "value": 145,
              "code": "mg/dL",
              "system": "http://unitsofmeasure.org"
            }
          }
        ],
        "interpretation": [
          {
            "coding": [
              {
                "code": "H",
                "system": "http://terminology.hl7.org/CodeSystem/v3-ObservationInterpretation",
                "display": "High"
              }
            ]
          }
        ],
        "text": {
          "status": "generated",
          "div": "<div xmlns=\"http://www.w3.org/1999/xhtml\"><table class=\"hl7__eu__lab__report\"><tr><th>Test</th><th>23-Mar-2025</th><th>Reference&#xA0;Range</th><th>Unit</th></tr><tr><td>Protein [Mass/volume] in Urine by Test strip</td><td>318.1</td><td>0 - 145</td><td>H</td><td>mg/dL</td></tr></table></div>"
        },
        "status": "final",
        "subject": {
          "reference": "urn:uuid:6e94afa9-6401-4575-be50-05ea0e9f060f",
          "display": "Iva Kratochvílová"
        },
        "effectiveDateTime": "2025-03-23T16:10:29Z"
      }
    },
    {
      "fullUrl": "urn:uuid:047e0a0d-d020-4227-9ebb-4f78baec99e5",
      "resource": {
        "resourceType": "Observation",
        "id": "047e0a0d-d020-4227-9ebb-4f78baec99e5",
        "meta": {
          "profile": [
            "http://hl7.eu/fhir/laboratory/StructureDefinition/Observation-resultslab-eu-lab"
          ]
        },
        "performer": [
          {
            "display": "The Central European Lab"
          }
        ],
        "category": [
          {
            "coding": [
              {
                "system": "http://terminology.hl7.org/CodeSystem/observation-category",
                "code": "laboratory"
              }
            ]
          }
        ],
        "code": {
          "coding": [
            {
              "code": "20454-5",
              "system": "http://loinc.org",
              "display": "Protein [Presence] in Urine by Test strip"
            }
          ],
          "text": "Protein [Presence] in Urine by Test strip"
        },
        "text": {
          "status": "generated",
          "div": "<div xmlns=\"http://www.w3.org/1999/xhtml\"><table class=\"hl7__eu__lab__report\"><tr><th>Test</th><th>23-Mar-2025</th><th>Reference&#xA0;Range</th><th>Unit</th></tr><tr><td>Protein [Presence] in Urine by Test strip</td></tr></table></div>"
        },
        "status": "final",
        "subject": {
          "reference": "urn:uuid:6e94afa9-6401-4575-be50-05ea0e9f060f",
          "display": "Iva Kratochvílová"
        },
        "effectiveDateTime": "2025-03-23T16:10:29Z"
      }
    },
    {
      "fullUrl": "urn:uuid:a6092203-4d1b-4c53-a583-f50adc14e702",
      "resource": {
        "resourceType": "Observation",
        "id": "a6092203-4d1b-4c53-a583-f50adc14e702",
        "meta": {
          "profile": [
            "http://hl7.eu/fhir/laboratory/StructureDefinition/Observation-resultslab-eu-lab"
          ]
        },
        "performer": [
          {
            "display": "The Central European Lab"
          }
        ],
        "category": [
          {
            "coding": [
              {
                "system": "http://terminology.hl7.org/CodeSystem/observation-category",
                "code": "laboratory"
              }
            ]
          }
        ],
        "code": {
          "coding": [
            {
              "code": "5802-4",
              "system": "http://loinc.org",
              "display": "Nitrite [Presence] in Urine by Test strip"
            }
          ],
          "text": "Nitrite [Presence] in Urine by Test strip"
        },
        "text": {
          "status": "generated",
          "div": "<div xmlns=\"http://www.w3.org/1999/xhtml\"><table class=\"hl7__eu__lab__report\"><tr><th>Test</th><th>23-Mar-2025</th><th>Reference&#xA0;Range</th><th>Unit</th></tr><tr><td>Nitrite [Presence] in Urine by Test strip</td></tr></table></div>"
        },
        "status": "final",
        "subject": {
          "reference": "urn:uuid:6e94afa9-6401-4575-be50-05ea0e9f060f",
          "display": "Iva Kratochvílová"
        },
        "effectiveDateTime": "2025-03-23T16:10:29Z"
      }
    },
    {
      "fullUrl": "urn:uuid:902362b7-8f08-4c10-afc5-187b4ab0f902",
      "resource": {
        "resourceType": "Observation",
        "id": "902362b7-8f08-4c10-afc5-187b4ab0f902",
        "meta": {
          "profile": [
            "http://hl7.eu/fhir/laboratory/StructureDefinition/Observation-resultslab-eu-lab"
          ]
        },
        "performer": [
          {
            "display": "The Central European Lab"
          }
        ],
        "category": [
          {
            "coding": [
              {
                "system": "http://terminology.hl7.org/CodeSystem/observation-category",
                "code": "laboratory"
              }
            ]
          }
        ],
        "code": {
          "coding": [
            {
              "code": "5794-3",
              "system": "http://loinc.org",
              "display": "Hemoglobin [Presence] in Urine by Test strip"
            }
          ],
          "text": "Hemoglobin [Presence] in Urine by Test strip"
        },
        "text": {
          "status": "generated",
          "div": "<div xmlns=\"http://www.w3.org/1999/xhtml\"><table class=\"hl7__eu__lab__report\"><tr><th>Test</th><th>23-Mar-2025</th><th>Reference&#xA0;Range</th><th>Unit</th></tr><tr><td>Hemoglobin [Presence] in Urine by Test strip</td></tr></table></div>"
        },
        "status": "final",
        "subject": {
          "reference": "urn:uuid:6e94afa9-6401-4575-be50-05ea0e9f060f",
          "display": "Iva Kratochvílová"
        },
        "effectiveDateTime": "2025-03-23T16:10:29Z"
      }
    },
    {
      "fullUrl": "urn:uuid:474346c0-2c05-45e0-9bdb-0480afe9dac6",
      "resource": {
        "resourceType": "Observation",
        "id": "474346c0-2c05-45e0-9bdb-0480afe9dac6",
        "meta": {
          "profile": [
            "http://hl7.eu/fhir/laboratory/StructureDefinition/Observation-resultslab-eu-lab"
          ]
        },
        "performer": [
          {
            "display": "The Central European Lab"
          }
        ],
        "category": [
          {
            "coding": [
              {
                "system": "http://terminology.hl7.org/CodeSystem/observation-category",
                "code": "laboratory"
              }
            ]
          }
        ],
        "code": {
          "coding": [
            {
              "code": "5799-2",
              "system": "http://loinc.org",
              "display": "Leukocyte esterase [Presence] in Urine by Test strip"
            }
          ],
          "text": "Leukocyte esterase [Presence] in Urine by Test strip"
        },
        "text": {
          "status": "generated",
          "div": "<div xmlns=\"http://www.w3.org/1999/xhtml\"><table class=\"hl7__eu__lab__report\"><tr><th>Test</th><th>23-Mar-2025</th><th>Reference&#xA0;Range</th><th>Unit</th></tr><tr><td>Leukocyte esterase [Presence] in Urine by Test strip</td></tr></table></div>"
        },
        "status": "final",
        "subject": {
          "reference": "urn:uuid:6e94afa9-6401-4575-be50-05ea0e9f060f",
          "display": "Iva Kratochvílová"
        },
        "effectiveDateTime": "2025-03-23T16:10:29Z"
      }
    },
    {
      "fullUrl": "urn:uuid:8d4495b0-d0ee-496c-b64a-7a3f7af66178",
      "resource": {
        "resourceType": "Observation",
        "id": "8d4495b0-d0ee-496c-b64a-7a3f7af66178",
        "meta": {
          "profile": [
            "http://hl7.eu/fhir/laboratory/StructureDefinition/Observation-resultslab-eu-lab"
          ]
        },
        "performer": [
          {
            "display": "The Central European Lab"
          }
        ],
        "category": [
          {
            "coding": [
              {
                "system": "http://terminology.hl7.org/CodeSystem/observation-category",
                "code": "laboratory"
              }
            ]
          }
        ],
        "code": {
          "coding": [
            {
              "code": "4548-4",
              "system": "http://loinc.org",
              "display": "Hemoglobin A1c/Hemoglobin.total in Blood"
            }
          ],
          "text": "Hemoglobin A1c/Hemoglobin.total in Blood"
        },
        "valueQuantity": {
          "system": "http://unitsofmeasure.org",
          "value": 3.4,
          "unit": "%",
          "code": "%"
        },
        "referenceRange": [
          {
            "low": {
              "value": 4,
              "code": "%",
              "system": "http://unitsofmeasure.org"
            }
          },
          {
            "high": {
              "value": 6,
              "code": "%",
              "system": "http://unitsofmeasure.org"
            }
          }
        ],
        "interpretation": [
          {
            "coding": [
              {
                "code": "L",
                "system": "http://terminology.hl7.org/CodeSystem/v3-ObservationInterpretation",
                "display": "Low"
              }
            ]
          }
        ],
        "text": {
          "status": "generated",
          "div": "<div xmlns=\"http://www.w3.org/1999/xhtml\"><table class=\"hl7__eu__lab__report\"><tr><th>Test</th><th>23-Mar-2025</th><th>Reference&#xA0;Range</th><th>Unit</th></tr><tr><td>Hemoglobin A1c/Hemoglobin.total in Blood</td><td>3.4</td><td>4 - 6</td><td>L</td><td>%</td></tr></table></div>"
        },
        "status": "final",
        "subject": {
          "reference": "urn:uuid:6e94afa9-6401-4575-be50-05ea0e9f060f",
          "display": "Iva Kratochvílová"
        },
        "effectiveDateTime": "2025-03-23T16:10:29Z"
      }
    },
    {
      "fullUrl": "urn:uuid:8e6276a2-1596-44b7-a738-e09f36aa3ba6",
      "resource": {
        "resourceType": "Observation",
        "id": "8e6276a2-1596-44b7-a738-e09f36aa3ba6",
        "meta": {
          "profile": [
            "http://hl7.eu/fhir/laboratory/StructureDefinition/Observation-resultslab-eu-lab"
          ]
        },
        "performer": [
          {
            "display": "The Central European Lab"
          }
        ],
        "category": [
          {
            "coding": [
              {
                "system": "http://terminology.hl7.org/CodeSystem/observation-category",
                "code": "laboratory"
              }
            ]
          }
        ],
        "code": {
          "coding": [
            {
              "code": "2339-0",
              "system": "http://loinc.org",
              "display": "Glucose [Mass/volume] in Blood"
            }
          ],
          "text": "Glucose [Mass/volume] in Blood"
        },
        "valueQuantity": {
          "system": "http://unitsofmeasure.org",
          "value": 89.6,
          "unit": "mg/dL",
          "code": "mg/dL"
        },
        "referenceRange": [
          {
            "low": {
              "value": 70,
              "code": "mg/dL",
              "system": "http://unitsofmeasure.org"
            }
          },
          {
            "high": {
              "value": 140,
              "code": "mg/dL",
              "system": "http://unitsofmeasure.org"
            }
          }
        ],
        "text": {
          "status": "generated",
          "div": "<div xmlns=\"http://www.w3.org/1999/xhtml\"><table class=\"hl7__eu__lab__report\"><tr><th>Test</th><th>23-Mar-2025</th><th>Reference&#xA0;Range</th><th>Unit</th></tr><tr><td>Glucose [Mass/volume] in Blood</td><td>89.6</td><td>70 - 140</td><td></td><td>mg/dL</td></tr></table></div>"
        },
        "status": "final",
        "subject": {
          "reference": "urn:uuid:6e94afa9-6401-4575-be50-05ea0e9f060f",
          "display": "Iva Kratochvílová"
        },
        "effectiveDateTime": "2025-03-23T16:10:29Z"
      }
    },
    {
      "fullUrl": "urn:uuid:29ac0be1-567e-448e-bff7-a90bc9b56e8e",
      "resource": {
        "resourceType": "Observation",
        "id": "29ac0be1-567e-448e-bff7-a90bc9b56e8e",
        "meta": {
          "profile": [
            "http://hl7.eu/fhir/laboratory/StructureDefinition/Observation-resultslab-eu-lab"
          ]
        },
        "performer": [
          {
            "display": "The Central European Lab"
          }
        ],
        "category": [
          {
            "coding": [
              {
                "system": "http://terminology.hl7.org/CodeSystem/observation-category",
                "code": "laboratory"
              }
            ]
          }
        ],
        "code": {
          "coding": [
            {
              "code": "6299-2",
              "system": "http://loinc.org",
              "display": "Urea nitrogen [Mass/volume] in Blood"
            }
          ],
          "text": "Urea nitrogen [Mass/volume] in Blood"
        },
        "valueQuantity": {
          "system": "http://unitsofmeasure.org",
          "value": 7.4,
          "unit": "mg/dL",
          "code": "mg/dL"
        },
        "referenceRange": [
          {
            "low": {
              "value": 7,
              "code": "mg/dL",
              "system": "http://unitsofmeasure.org"
            }
          },
          {
            "high": {
              "value": 25,
              "code": "mg/dL",
              "system": "http://unitsofmeasure.org"
            }
          }
        ],
        "text": {
          "status": "generated",
          "div": "<div xmlns=\"http://www.w3.org/1999/xhtml\"><table class=\"hl7__eu__lab__report\"><tr><th>Test</th><th>23-Mar-2025</th><th>Reference&#xA0;Range</th><th>Unit</th></tr><tr><td>Urea nitrogen [Mass/volume] in Blood</td><td>7.4</td><td>7 - 25</td><td></td><td>mg/dL</td></tr></table></div>"
        },
        "status": "final",
        "subject": {
          "reference": "urn:uuid:6e94afa9-6401-4575-be50-05ea0e9f060f",
          "display": "Iva Kratochvílová"
        },
        "effectiveDateTime": "2025-03-23T16:10:29Z"
      }
    },
    {
      "fullUrl": "urn:uuid:93dcd78d-7c7c-487f-bf9c-ec2878bb3fe9",
      "resource": {
        "resourceType": "Observation",
        "id": "93dcd78d-7c7c-487f-bf9c-ec2878bb3fe9",
        "meta": {
          "profile": [
            "http://hl7.eu/fhir/laboratory/StructureDefinition/Observation-resultslab-eu-lab"
          ]
        },
        "performer": [
          {
            "display": "The Central European Lab"
          }
        ],
        "category": [
          {
            "coding": [
              {
                "system": "http://terminology.hl7.org/CodeSystem/observation-category",
                "code": "laboratory"
              }
            ]
          }
        ],
        "code": {
          "coding": [
            {
              "code": "38483-4",
              "system": "http://loinc.org",
              "display": "Creatinine [Mass/volume] in Blood"
            }
          ],
          "text": "Creatinine [Mass/volume] in Blood"
        },
        "valueQuantity": {
          "system": "http://unitsofmeasure.org",
          "value": 1.8,
          "unit": "mg/dL",
          "code": "mg/dL"
        },
        "referenceRange": [
          {
            "low": {
              "value": 0.6,
              "code": "mg/dL",
              "system": "http://unitsofmeasure.org"
            }
          },
          {
            "high": {
              "value": 1.1,
              "code": "mg/dL",
              "system": "http://unitsofmeasure.org"
            }
          }
        ],
        "interpretation": [
          {
            "coding": [
              {
                "code": "H",
                "system": "http://terminology.hl7.org/CodeSystem/v3-ObservationInterpretation",
                "display": "High"
              }
            ]
          }
        ],
        "text": {
          "status": "generated",
          "div": "<div xmlns=\"http://www.w3.org/1999/xhtml\"><table class=\"hl7__eu__lab__report\"><tr><th>Test</th><th>23-Mar-2025</th><th>Reference&#xA0;Range</th><th>Unit</th></tr><tr><td>Creatinine [Mass/volume] in Blood</td><td>1.8</td><td>0.6 - 1.1</td><td>H</td><td>mg/dL</td></tr></table></div>"
        },
        "status": "final",
        "subject": {
          "reference": "urn:uuid:6e94afa9-6401-4575-be50-05ea0e9f060f",
          "display": "Iva Kratochvílová"
        },
        "effectiveDateTime": "2025-03-23T16:10:29Z"
      }
    },
    {
      "fullUrl": "urn:uuid:ba40dea1-7bb1-4267-9639-2f4a5c010aee",
      "resource": {
        "resourceType": "Observation",
        "id": "ba40dea1-7bb1-4267-9639-2f4a5c010aee",
        "meta": {
          "profile": [
            "http://hl7.eu/fhir/laboratory/StructureDefinition/Observation-resultslab-eu-lab"
          ]
        },
        "performer": [
          {
            "display": "The Central European Lab"
          }
        ],
        "category": [
          {
            "coding": [
              {
                "system": "http://terminology.hl7.org/CodeSystem/observation-category",
                "code": "laboratory"
              }
            ]
          }
        ],
        "code": {
          "coding": [
            {
              "code": "49765-1",
              "system": "http://loinc.org",
              "display": "Calcium [Mass/volume] in Blood"
            }
          ],
          "text": "Calcium [Mass/volume] in Blood"
        },
        "valueQuantity": {
          "system": "http://unitsofmeasure.org",
          "value": 10.1,
          "unit": "mg/dL",
          "code": "mg/dL"
        },
        "referenceRange": [
          {
            "low": {
              "value": 8.6,
              "code": "mg/dL",
              "system": "http://unitsofmeasure.org"
            }
          },
          {
            "high": {
              "value": 10.4,
              "code": "mg/dL",
              "system": "http://unitsofmeasure.org"
            }
          }
        ],
        "text": {
          "status": "generated",
          "div": "<div xmlns=\"http://www.w3.org/1999/xhtml\"><table class=\"hl7__eu__lab__report\"><tr><th>Test</th><th>23-Mar-2025</th><th>Reference&#xA0;Range</th><th>Unit</th></tr><tr><td>Calcium [Mass/volume] in Blood</td><td>10.1</td><td>8.6 - 10.4</td><td></td><td>mg/dL</td></tr></table></div>"
        },
        "status": "final",
        "subject": {
          "reference": "urn:uuid:6e94afa9-6401-4575-be50-05ea0e9f060f",
          "display": "Iva Kratochvílová"
        },
        "effectiveDateTime": "2025-03-23T16:10:29Z"
      }
    },
    {
      "fullUrl": "urn:uuid:6bfa3d92-ce88-4b74-bf7d-4a84031c1d99",
      "resource": {
        "resourceType": "Observation",
        "id": "6bfa3d92-ce88-4b74-bf7d-4a84031c1d99",
        "meta": {
          "profile": [
            "http://hl7.eu/fhir/laboratory/StructureDefinition/Observation-resultslab-eu-lab"
          ]
        },
        "performer": [
          {
            "display": "The Central European Lab"
          }
        ],
        "category": [
          {
            "coding": [
              {
                "system": "http://terminology.hl7.org/CodeSystem/observation-category",
                "code": "laboratory"
              }
            ]
          }
        ],
        "code": {
          "coding": [
            {
              "code": "2947-0",
              "system": "http://loinc.org",
              "display": "Sodium [Moles/volume] in Blood"
            }
          ],
          "text": "Sodium [Moles/volume] in Blood"
        },
        "valueQuantity": {
          "system": "http://unitsofmeasure.org",
          "value": 138.8,
          "unit": "mmol/L",
          "code": "mmol/L"
        },
        "referenceRange": [
          {
            "low": {
              "value": 135,
              "code": "mmol/L",
              "system": "http://unitsofmeasure.org"
            }
          },
          {
            "high": {
              "value": 145,
              "code": "mmol/L",
              "system": "http://unitsofmeasure.org"
            }
          }
        ],
        "text": {
          "status": "generated",
          "div": "<div xmlns=\"http://www.w3.org/1999/xhtml\"><table class=\"hl7__eu__lab__report\"><tr><th>Test</th><th>23-Mar-2025</th><th>Reference&#xA0;Range</th><th>Unit</th></tr><tr><td>Sodium [Moles/volume] in Blood</td><td>138.8</td><td>135 - 145</td><td></td><td>mmol/L</td></tr></table></div>"
        },
        "status": "final",
        "subject": {
          "reference": "urn:uuid:6e94afa9-6401-4575-be50-05ea0e9f060f",
          "display": "Iva Kratochvílová"
        },
        "effectiveDateTime": "2025-03-23T16:10:29Z"
      }
    },
    {
      "fullUrl": "urn:uuid:90c25843-142a-4d54-b041-87f0fb52b07c",
      "resource": {
        "resourceType": "Observation",
        "id": "90c25843-142a-4d54-b041-87f0fb52b07c",
        "meta": {
          "profile": [
            "http://hl7.eu/fhir/laboratory/StructureDefinition/Observation-resultslab-eu-lab"
          ]
        },
        "performer": [
          {
            "display": "The Central European Lab"
          }
        ],
        "category": [
          {
            "coding": [
              {
                "system": "http://terminology.hl7.org/CodeSystem/observation-category",
                "code": "laboratory"
              }
            ]
          }
        ],
        "code": {
          "coding": [
            {
              "code": "6298-4",
              "system": "http://loinc.org",
              "display": "Potassium [Moles/volume] in Blood"
            }
          ],
          "text": "Potassium [Moles/volume] in Blood"
        },
        "valueQuantity": {
          "system": "http://unitsofmeasure.org",
          "value": 3.8,
          "unit": "mmol/L",
          "code": "mmol/L"
        },
        "referenceRange": [
          {
            "low": {
              "value": 3.5,
              "code": "mmol/L",
              "system": "http://unitsofmeasure.org"
            }
          },
          {
            "high": {
              "value": 5.1,
              "code": "mmol/L",
              "system": "http://unitsofmeasure.org"
            }
          }
        ],
        "text": {
          "status": "generated",
          "div": "<div xmlns=\"http://www.w3.org/1999/xhtml\"><table class=\"hl7__eu__lab__report\"><tr><th>Test</th><th>23-Mar-2025</th><th>Reference&#xA0;Range</th><th>Unit</th></tr><tr><td>Potassium [Moles/volume] in Blood</td><td>3.8</td><td>3.5 - 5.1</td><td></td><td>mmol/L</td></tr></table></div>"
        },
        "status": "final",
        "subject": {
          "reference": "urn:uuid:6e94afa9-6401-4575-be50-05ea0e9f060f",
          "display": "Iva Kratochvílová"
        },
        "effectiveDateTime": "2025-03-23T16:10:29Z"
      }
    },
    {
      "fullUrl": "urn:uuid:518bd7d8-1768-47a0-bddd-9cfc05a1a731",
      "resource": {
        "resourceType": "Observation",
        "id": "518bd7d8-1768-47a0-bddd-9cfc05a1a731",
        "meta": {
          "profile": [
            "http://hl7.eu/fhir/laboratory/StructureDefinition/Observation-resultslab-eu-lab"
          ]
        },
        "performer": [
          {
            "display": "The Central European Lab"
          }
        ],
        "category": [
          {
            "coding": [
              {
                "system": "http://terminology.hl7.org/CodeSystem/observation-category",
                "code": "laboratory"
              }
            ]
          }
        ],
        "code": {
          "coding": [
            {
              "code": "2069-3",
              "system": "http://loinc.org",
              "display": "Chloride [Moles/volume] in Blood"
            }
          ],
          "text": "Chloride [Moles/volume] in Blood"
        },
        "valueQuantity": {
          "system": "http://unitsofmeasure.org",
          "value": 106.4,
          "unit": "mmol/L",
          "code": "mmol/L"
        },
        "referenceRange": [
          {
            "low": {
              "value": 98,
              "code": "mmol/L",
              "system": "http://unitsofmeasure.org"
            }
          },
          {
            "high": {
              "value": 110,
              "code": "mmol/L",
              "system": "http://unitsofmeasure.org"
            }
          }
        ],
        "text": {
          "status": "generated",
          "div": "<div xmlns=\"http://www.w3.org/1999/xhtml\"><table class=\"hl7__eu__lab__report\"><tr><th>Test</th><th>23-Mar-2025</th><th>Reference&#xA0;Range</th><th>Unit</th></tr><tr><td>Chloride [Moles/volume] in Blood</td><td>106.4</td><td>98 - 110</td><td></td><td>mmol/L</td></tr></table></div>"
        },
        "status": "final",
        "subject": {
          "reference": "urn:uuid:6e94afa9-6401-4575-be50-05ea0e9f060f",
          "display": "Iva Kratochvílová"
        },
        "effectiveDateTime": "2025-03-23T16:10:29Z"
      }
    },
    {
      "fullUrl": "urn:uuid:5a3a45b6-61ff-4cda-b6f0-f4de2ad9cea4",
      "resource": {
        "resourceType": "Observation",
        "id": "5a3a45b6-61ff-4cda-b6f0-f4de2ad9cea4",
        "meta": {
          "profile": [
            "http://hl7.eu/fhir/laboratory/StructureDefinition/Observation-resultslab-eu-lab"
          ]
        },
        "performer": [
          {
            "display": "The Central European Lab"
          }
        ],
        "category": [
          {
            "coding": [
              {
                "system": "http://terminology.hl7.org/CodeSystem/observation-category",
                "code": "laboratory"
              }
            ]
          }
        ],
        "code": {
          "coding": [
            {
              "code": "20565-8",
              "system": "http://loinc.org",
              "display": "Carbon dioxide, total [Moles/volume] in Blood"
            }
          ],
          "text": "Carbon dioxide, total [Moles/volume] in Blood"
        },
        "valueQuantity": {
          "system": "http://unitsofmeasure.org",
          "value": 21.3,
          "unit": "mmol/L",
          "code": "mmol/L"
        },
        "referenceRange": [
          {
            "low": {
              "value": 22,
              "code": "mmol/L",
              "system": "http://unitsofmeasure.org"
            }
          },
          {
            "high": {
              "value": 29,
              "code": "mmol/L",
              "system": "http://unitsofmeasure.org"
            }
          }
        ],
        "interpretation": [
          {
            "coding": [
              {
                "code": "L",
                "system": "http://terminology.hl7.org/CodeSystem/v3-ObservationInterpretation",
                "display": "Low"
              }
            ]
          }
        ],
        "text": {
          "status": "generated",
          "div": "<div xmlns=\"http://www.w3.org/1999/xhtml\"><table class=\"hl7__eu__lab__report\"><tr><th>Test</th><th>23-Mar-2025</th><th>Reference&#xA0;Range</th><th>Unit</th></tr><tr><td>Carbon dioxide, total [Moles/volume] in Blood</td><td>21.3</td><td>22 - 29</td><td>L</td><td>mmol/L</td></tr></table></div>"
        },
        "status": "final",
        "subject": {
          "reference": "urn:uuid:6e94afa9-6401-4575-be50-05ea0e9f060f",
          "display": "Iva Kratochvílová"
        },
        "effectiveDateTime": "2025-03-23T16:10:29Z"
      }
    },
    {
      "fullUrl": "urn:uuid:519baa79-c32f-4c85-abac-0953eef8c477",
      "resource": {
        "resourceType": "Observation",
        "id": "519baa79-c32f-4c85-abac-0953eef8c477",
        "meta": {
          "profile": [
            "http://hl7.eu/fhir/laboratory/StructureDefinition/Observation-resultslab-eu-lab"
          ]
        },
        "performer": [
          {
            "display": "The Central European Lab"
          }
        ],
        "category": [
          {
            "coding": [
              {
                "system": "http://terminology.hl7.org/CodeSystem/observation-category",
                "code": "laboratory"
              }
            ]
          }
        ],
        "code": {
          "coding": [
            {
              "code": "2093-3",
              "system": "http://loinc.org",
              "display": "Cholesterol [Mass/volume] in Serum or Plasma"
            }
          ],
          "text": "Cholesterol [Mass/volume] in Serum or Plasma"
        },
        "valueQuantity": {
          "system": "http://unitsofmeasure.org",
          "value": 181.3,
          "unit": "mg/dL",
          "code": "mg/dL"
        },
        "referenceRange": [
          {
            "low": {
              "value": 130,
              "code": "mg/dL",
              "system": "http://unitsofmeasure.org"
            }
          },
          {
            "high": {
              "value": 200,
              "code": "mg/dL",
              "system": "http://unitsofmeasure.org"
            }
          }
        ],
        "text": {
          "status": "generated",
          "div": "<div xmlns=\"http://www.w3.org/1999/xhtml\"><table class=\"hl7__eu__lab__report\"><tr><th>Test</th><th>23-Mar-2025</th><th>Reference&#xA0;Range</th><th>Unit</th></tr><tr><td>Cholesterol [Mass/volume] in Serum or Plasma</td><td>181.3</td><td>130 - 200</td><td></td><td>mg/dL</td></tr></table></div>"
        },
        "status": "final",
        "subject": {
          "reference": "urn:uuid:6e94afa9-6401-4575-be50-05ea0e9f060f",
          "display": "Iva Kratochvílová"
        },
        "effectiveDateTime": "2025-03-23T16:10:29Z"
      }
    },
    {
      "fullUrl": "urn:uuid:f684b764-bc7e-4a8d-911c-e7c77b469007",
      "resource": {
        "resourceType": "Observation",
        "id": "f684b764-bc7e-4a8d-911c-e7c77b469007",
        "meta": {
          "profile": [
            "http://hl7.eu/fhir/laboratory/StructureDefinition/Observation-resultslab-eu-lab"
          ]
        },
        "performer": [
          {
            "display": "The Central European Lab"
          }
        ],
        "category": [
          {
            "coding": [
              {
                "system": "http://terminology.hl7.org/CodeSystem/observation-category",
                "code": "laboratory"
              }
            ]
          }
        ],
        "code": {
          "coding": [
            {
              "code": "2571-8",
              "system": "http://loinc.org",
              "display": "Triglyceride [Mass/volume] in Serum or Plasma"
            }
          ],
          "text": "Triglyceride [Mass/volume] in Serum or Plasma"
        },
        "valueQuantity": {
          "system": "http://unitsofmeasure.org",
          "value": 110,
          "unit": "mg/dL",
          "code": "mg/dL"
        },
        "referenceRange": [
          {
            "low": {
              "value": 35,
              "code": "mg/dL",
              "system": "http://unitsofmeasure.org"
            }
          },
          {
            "high": {
              "value": 150,
              "code": "mg/dL",
              "system": "http://unitsofmeasure.org"
            }
          }
        ],
        "text": {
          "status": "generated",
          "div": "<div xmlns=\"http://www.w3.org/1999/xhtml\"><table class=\"hl7__eu__lab__report\"><tr><th>Test</th><th>23-Mar-2025</th><th>Reference&#xA0;Range</th><th>Unit</th></tr><tr><td>Triglyceride [Mass/volume] in Serum or Plasma</td><td>110.0</td><td>35 - 150</td><td></td><td>mg/dL</td></tr></table></div>"
        },
        "status": "final",
        "subject": {
          "reference": "urn:uuid:6e94afa9-6401-4575-be50-05ea0e9f060f",
          "display": "Iva Kratochvílová"
        },
        "effectiveDateTime": "2025-03-23T16:10:29Z"
      }
    },
    {
      "fullUrl": "urn:uuid:0a2acf88-6afd-450f-8464-b75ad50ad65c",
      "resource": {
        "resourceType": "Observation",
        "id": "0a2acf88-6afd-450f-8464-b75ad50ad65c",
        "meta": {
          "profile": [
            "http://hl7.eu/fhir/laboratory/StructureDefinition/Observation-resultslab-eu-lab"
          ]
        },
        "performer": [
          {
            "display": "The Central European Lab"
          }
        ],
        "category": [
          {
            "coding": [
              {
                "system": "http://terminology.hl7.org/CodeSystem/observation-category",
                "code": "laboratory"
              }
            ]
          }
        ],
        "code": {
          "coding": [
            {
              "code": "18262-6",
              "system": "http://loinc.org",
              "display": "Cholesterol in LDL [Mass/volume] in Serum or Plasma by Direct assay"
            }
          ],
          "text": "Cholesterol in LDL [Mass/volume] in Serum or Plasma by Direct assay"
        },
        "valueQuantity": {
          "system": "http://unitsofmeasure.org",
          "value": 111,
          "unit": "mg/dL",
          "code": "mg/dL"
        },
        "referenceRange": [
          {
            "low": {
              "value": 0,
              "code": "mg/dL",
              "system": "http://unitsofmeasure.org"
            }
          },
          {
            "high": {
              "value": 130,
              "code": "mg/dL",
              "system": "http://unitsofmeasure.org"
            }
          }
        ],
        "text": {
          "status": "generated",
          "div": "<div xmlns=\"http://www.w3.org/1999/xhtml\"><table class=\"hl7__eu__lab__report\"><tr><th>Test</th><th>23-Mar-2025</th><th>Reference&#xA0;Range</th><th>Unit</th></tr><tr><td>Cholesterol in LDL [Mass/volume] in Serum or Plasma by Direct assay</td><td>111.0</td><td>0 - 130</td><td></td><td>mg/dL</td></tr></table></div>"
        },
        "status": "final",
        "subject": {
          "reference": "urn:uuid:6e94afa9-6401-4575-be50-05ea0e9f060f",
          "display": "Iva Kratochvílová"
        },
        "effectiveDateTime": "2025-03-23T16:10:29Z"
      }
    },
    {
      "fullUrl": "urn:uuid:f2ecc5b0-b026-44f9-acb1-01b05ddcbfb5",
      "resource": {
        "resourceType": "Observation",
        "id": "f2ecc5b0-b026-44f9-acb1-01b05ddcbfb5",
        "meta": {
          "profile": [
            "http://hl7.eu/fhir/laboratory/StructureDefinition/Observation-resultslab-eu-lab"
          ]
        },
        "performer": [
          {
            "display": "The Central European Lab"
          }
        ],
        "category": [
          {
            "coding": [
              {
                "system": "http://terminology.hl7.org/CodeSystem/observation-category",
                "code": "laboratory"
              }
            ]
          }
        ],
        "code": {
          "coding": [
            {
              "code": "2085-9",
              "system": "http://loinc.org",
              "display": "Cholesterol in HDL [Mass/volume] in Serum or Plasma"
            }
          ],
          "text": "Cholesterol in HDL [Mass/volume] in Serum or Plasma"
        },
        "valueQuantity": {
          "system": "http://unitsofmeasure.org",
          "value": 48.4,
          "unit": "mg/dL",
          "code": "mg/dL"
        },
        "referenceRange": [
          {
            "low": {
              "value": 50,
              "code": "mg/dL",
              "system": "http://unitsofmeasure.org"
            }
          },
          {
            "high": {
              "value": 100,
              "code": "mg/dL",
              "system": "http://unitsofmeasure.org"
            }
          }
        ],
        "interpretation": [
          {
            "coding": [
              {
                "code": "L",
                "system": "http://terminology.hl7.org/CodeSystem/v3-ObservationInterpretation",
                "display": "Low"
              }
            ]
          }
        ],
        "text": {
          "status": "generated",
          "div": "<div xmlns=\"http://www.w3.org/1999/xhtml\"><table class=\"hl7__eu__lab__report\"><tr><th>Test</th><th>23-Mar-2025</th><th>Reference&#xA0;Range</th><th>Unit</th></tr><tr><td>Cholesterol in HDL [Mass/volume] in Serum or Plasma</td><td>48.4</td><td>50 - 100</td><td>L</td><td>mg/dL</td></tr></table></div>"
        },
        "status": "final",
        "subject": {
          "reference": "urn:uuid:6e94afa9-6401-4575-be50-05ea0e9f060f",
          "display": "Iva Kratochvílová"
        },
        "effectiveDateTime": "2025-03-23T16:10:29Z"
      }
    },
    {
      "fullUrl": "urn:uuid:1915609c-e53a-41af-a2ea-65cf73b11327",
      "resource": {
        "resourceType": "DeviceUseStatement",
        "id": "1915609c-e53a-41af-a2ea-65cf73b11327",
        "meta": {
          "profile": [
            "http://hl7.eu/fhir/eps/StructureDefinition/deviceUseStatement-eu-eps"
          ]
        },
        "timingPeriod": {
          "start": "2009-12-27"
        },
        "text": {
          "status": "generated",
          "div": "<div xmlns=\"http://www.w3.org/1999/xhtml\"><table class=\"hl7__ips\"><tr><td>Blood glucose meter (physical object)</td><td><span class=\"nb\">27-Dec-2009</span></td></tr></table></div>"
        },
        "status": "active",
        "device": {
          "reference": "urn:uuid:089678d3-ef47-41de-b56d-7847d7840b21",
          "display": "Blood glucose meter (physical object)"
        },
        "subject": {
          "reference": "urn:uuid:6e94afa9-6401-4575-be50-05ea0e9f060f",
          "display": "Iva Kratochvílová"
        }
      }
    },
    {
      "fullUrl": "urn:uuid:089678d3-ef47-41de-b56d-7847d7840b21",
      "resource": {
        "resourceType": "Device",
        "id": "089678d3-ef47-41de-b56d-7847d7840b21",
        "meta": {
          "profile": [
            "http://hl7.eu/fhir/eps/StructureDefinition/device-eu-eps"
          ]
        },
        "udiCarrier": [
          {
            "id": "(01)64687207836739(11)091206(17)341221(10)81411017080(21)20118190"
          }
        ],
        "status": "active",
        "patient": {
          "reference": "urn:uuid:6e94afa9-6401-4575-be50-05ea0e9f060f",
          "display": "Iva Kratochvílová"
        },
        "type": {
          "coding": [
            {
              "code": "337414009",
              "system": "http://snomed.info/sct",
              "display": "Blood glucose meter (physical object)"
            }
          ]
        }
      }
    },
    {
      "fullUrl": "urn:uuid:950364f8-3ff4-412b-b61c-d4058df2aefc",
      "resource": {
        "resourceType": "DeviceUseStatement",
        "id": "950364f8-3ff4-412b-b61c-d4058df2aefc",
        "meta": {
          "profile": [
            "http://hl7.eu/fhir/eps/StructureDefinition/deviceUseStatement-eu-eps"
          ]
        },
        "timingPeriod": {
          "start": "1998-04-05"
        },
        "text": {
          "status": "generated",
          "div": "<div xmlns=\"http://www.w3.org/1999/xhtml\"><table class=\"hl7__ips\"><tr><td>Manual wheelchair (physical object)</td><td><span class=\"nb\">05-Apr-1998</span></td></tr></table></div>"
        },
        "status": "active",
        "device": {
          "reference": "urn:uuid:4e2e6f8b-883f-48ab-834e-9a68a2b67c2b",
          "display": "Manual wheelchair (physical object)"
        },
        "subject": {
          "reference": "urn:uuid:6e94afa9-6401-4575-be50-05ea0e9f060f",
          "display": "Iva Kratochvílová"
        }
      }
    },
    {
      "fullUrl": "urn:uuid:4e2e6f8b-883f-48ab-834e-9a68a2b67c2b",
      "resource": {
        "resourceType": "Device",
        "id": "4e2e6f8b-883f-48ab-834e-9a68a2b67c2b",
        "meta": {
          "profile": [
            "http://hl7.eu/fhir/eps/StructureDefinition/device-eu-eps"
          ]
        },
        "udiCarrier": [
          {
            "id": "(01)50398805385469(11)980315(17)230330(10)4449(21)2957500"
          }
        ],
        "status": "active",
        "patient": {
          "reference": "urn:uuid:6e94afa9-6401-4575-be50-05ea0e9f060f",
          "display": "Iva Kratochvílová"
        },
        "type": {
          "coding": [
            {
              "code": "228869008",
              "system": "http://snomed.info/sct",
              "display": "Manual wheelchair (physical object)"
            }
          ]
        }
      }
    },
    {
      "fullUrl": "urn:uuid:0e564b32-cc56-4dac-8941-ad0c19eae5f2",
      "resource": {
        "resourceType": "DeviceUseStatement",
        "id": "0e564b32-cc56-4dac-8941-ad0c19eae5f2",
        "meta": {
          "profile": [
            "http://hl7.eu/fhir/eps/StructureDefinition/deviceUseStatement-eu-eps"
          ]
        },
        "timingPeriod": {
          "start": "1998-04-05"
        },
        "text": {
          "status": "generated",
          "div": "<div xmlns=\"http://www.w3.org/1999/xhtml\"><table class=\"hl7__ips\"><tr><td>Wheelchair accessory (physical object)</td><td><span class=\"nb\">05-Apr-1998</span></td></tr></table></div>"
        },
        "status": "active",
        "device": {
          "reference": "urn:uuid:e84b6ce5-19f7-4793-876f-1d14785e4558",
          "display": "Wheelchair accessory (physical object)"
        },
        "subject": {
          "reference": "urn:uuid:6e94afa9-6401-4575-be50-05ea0e9f060f",
          "display": "Iva Kratochvílová"
        }
      }
    },
    {
      "fullUrl": "urn:uuid:e84b6ce5-19f7-4793-876f-1d14785e4558",
      "resource": {
        "resourceType": "Device",
        "id": "e84b6ce5-19f7-4793-876f-1d14785e4558",
        "meta": {
          "profile": [
            "http://hl7.eu/fhir/eps/StructureDefinition/device-eu-eps"
          ]
        },
        "udiCarrier": [
          {
            "id": "(01)13242383350269(11)980315(17)230330(10)815712536(21)326302591552"
          }
        ],
        "status": "active",
        "patient": {
          "reference": "urn:uuid:6e94afa9-6401-4575-be50-05ea0e9f060f",
          "display": "Iva Kratochvílová"
        },
        "type": {
          "coding": [
            {
              "code": "705417005",
              "system": "http://snomed.info/sct",
              "display": "Wheelchair accessory (physical object)"
            }
          ]
        }
      }
    },
    {
      "fullUrl": "urn:uuid:14de9713-ff87-473a-9fe8-b0e1e36808e8",
      "resource": {
        "resourceType": "DeviceUseStatement",
        "id": "14de9713-ff87-473a-9fe8-b0e1e36808e8",
        "meta": {
          "profile": [
            "http://hl7.eu/fhir/eps/StructureDefinition/deviceUseStatement-eu-eps"
          ]
        },
        "timingPeriod": {
          "start": "1992-05-17"
        },
        "text": {
          "status": "generated",
          "div": "<div xmlns=\"http://www.w3.org/1999/xhtml\"><table class=\"hl7__ips\"><tr><td>Home nebulizer (physical object)</td><td><span class=\"nb\">17-May-1992</span></td></tr></table></div>"
        },
        "status": "active",
        "device": {
          "reference": "urn:uuid:6ace5ff7-06a5-439b-bad5-0147dff4f69d",
          "display": "Home nebulizer (physical object)"
        },
        "subject": {
          "reference": "urn:uuid:6e94afa9-6401-4575-be50-05ea0e9f060f",
          "display": "Iva Kratochvílová"
        }
      }
    },
    {
      "fullUrl": "urn:uuid:6ace5ff7-06a5-439b-bad5-0147dff4f69d",
      "resource": {
        "resourceType": "Device",
        "id": "6ace5ff7-06a5-439b-bad5-0147dff4f69d",
        "meta": {
          "profile": [
            "http://hl7.eu/fhir/eps/StructureDefinition/device-eu-eps"
          ]
        },
        "udiCarrier": [
          {
            "id": "(01)15246540173944(11)920426(17)170511(10)3229277840044980011(21)7988749"
          }
        ],
        "status": "active",
        "patient": {
          "reference": "urn:uuid:6e94afa9-6401-4575-be50-05ea0e9f060f",
          "display": "Iva Kratochvílová"
        },
        "type": {
          "coding": [
            {
              "code": "170615005",
              "system": "http://snomed.info/sct",
              "display": "Home nebulizer (physical object)"
            }
          ]
        }
      }
    },
    {
      "fullUrl": "urn:uuid:6ffe7eed-b1fd-4115-9c5e-221a01e48f04",
      "resource": {
        "resourceType": "Device",
        "id": "6ffe7eed-b1fd-4115-9c5e-221a01e48f04",
        "deviceName": [
          {
            "name": "SYNDERAI Synthetic Generator",
            "type": "manufacturer-name"
          }
        ],
        "version": [
          {
            "value": "5.0"
          }
        ],
        "text": {
          "status": "generated",
          "div": "<div xmlns=\"http://www.w3.org/1999/xhtml\">SYNDERAI Synthetic Generator v5.0</div>"
        },
        "status": "active\"",
        "distinctIdentifier": "synderai-generator-50",
        "manufacturer": "SYNDERAI Project"
      }
    },
    {
      "fullUrl": "urn:uuid:61d92a8e-c57c-4806-a462-08953ca5defa",
      "resource": {
        "resourceType": "Provenance",
        "id": "61d92a8e-c57c-4806-a462-08953ca5defa",
        "target": [
          {
            "reference": "Patient/6e94afa9-6401-4575-be50-05ea0e9f060f"
          },
          {
            "reference": "Bundle/d6342d3b-592d-4327-b4af-004fa995a14a"
          },
          {
            "reference": "Composition/ad7593f3-04ce-49c1-adec-99f3ffee6236"
          },
          {
            "reference": "PractitionerRole/d12a00e7-71dd-4147-951b-24b86d613d3b"
          },
          {
            "reference": "Organization/bc71e1aa-190a-495d-80f6-717d60075fb3"
          },
          {
            "reference": "Practitioner/3cb6ce90-5841-48d5-b8cc-00521b6fdcb1"
          }
        ],
        "activity": {
          "text": "Synthetic Example Data Generation"
        },
        "policy": [
          "https://synderai.net/synderai-synthetic-data-policy"
        ],
        "agent": [
          {
            "type": {
              "text": "author"
            },
            "who": {
              "reference": "Device/6ffe7eed-b1fd-4115-9c5e-221a01e48f04"
            }
          }
        ],
        "reason": [
          {
            "text": "Interoperability Testing and Training (non-clinical use)"
          }
        ],
        "text": {
          "status": "generated",
          "div": "<div xmlns=\"http://www.w3.org/1999/xhtml\">Provenance for SYNDERAI Synthetic Example Data Resource</div>"
        },
        "recorded": "2025-03-23T16:10:29Z"
      }
    }
  ],
  "type": "document",
  "timestamp": "2025-03-23T16:10:29Z"
}
