{
  "resourceType": "Bundle",
  "id": "9f427350-800e-4665-b479-54c3dc978dbd",
  "meta": {
    "profile": [
      "http://hl7.eu/fhir/eps/StructureDefinition/bundle-eu-eps"
    ]
  },
  "identifier": {
    "assigner": {
      "display": "HL7 Europe"
    },
    "system": "urn:oid:2.16.840.1.113883.2.51.999",
    "value": "75763c2c-80c8-440d-bea8-1a0b63729f3a"
  },
  "entry": [
    {
      "fullUrl": "urn:uuid:f54ed6ec-b66f-4a19-a457-7dc41db27d52",
      "resource": {
        "resourceType": "Composition",
        "id": "f54ed6ec-b66f-4a19-a457-7dc41db27d52",
        "meta": {
          "security": [
            {
              "system": "http://terminology.hl7.org/CodeSystem/v3-ActReason",
              "code": "HTEST"
            },
            {
              "system": "http://terminology.hl7.org/CodeSystem/v3-ActReason",
              "code": "TRAIN"
            }
          ],
          "tag": [
            {
              "system": "https://synderai.net/fhir/CodeSystem/tags",
              "code": "synthetic",
              "display": "SYNDERAI Synthetic data"
            }
          ],
          "profile": [
            "http://hl7.eu/fhir/eps/StructureDefinition/composition-eu-eps"
          ]
        },
        "identifier": {
          "assigner": {
            "display": "HL7 Europe"
          },
          "system": "urn:oid:2.16.840.1.113883.2.51.999",
          "value": "abe0d2c5-396a-49ea-9908-5911996133e0"
        },
        "type": {
          "coding": [
            {
              "system": "http://loinc.org",
              "code": "60591-5",
              "display": "Patient summary Document"
            }
          ],
          "text": "Patient summary Document"
        },
        "author": [
          {
            "reference": "urn:uuid:8c473960-0099-46ab-a4e1-71bb0fc52514"
          }
        ],
        "section": [
          {
            "text": {
              "status": "generated",
              "div": "<div xmlns=\"http://www.w3.org/1999/xhtml\"><table class=\"hl7__ips\"><tr><th>Condition</th><th>Onset Date</th><th>Status</th></tr><tr><td>Hyperlipidemia</td><td><span class=\"nb\">25-Jun-2024</span></td><td>active</td></tr><tr><td>Chronic kidney disease stage 3</td><td><span class=\"nb\">23-Apr-2019</span></td><td>active</td></tr><tr><td>Proteinuria due to type 2 diabetes mellitus</td><td><span class=\"nb\">23-Apr-2019</span></td><td>active</td></tr><tr><td>Chronic kidney disease stage 2</td><td><span class=\"nb\">27-Aug-2013</span></td><td>active</td></tr><tr><td>Microalbuminuria due to type 2 diabetes mellitus</td><td><span class=\"nb\">27-Aug-2013</span></td><td>active</td></tr><tr><td>Disorder of kidney due to diabetes mellitus</td><td><span class=\"nb\">18-Jul-2006</span></td><td>active</td></tr><tr><td>Chronic kidney disease stage 1</td><td><span class=\"nb\">18-Jul-2006</span></td><td>active</td></tr><tr><td>Metabolic syndrome X</td><td><span class=\"nb\">02-Jun-1998</span></td><td>active</td></tr><tr><td>Anemia</td><td><span class=\"nb\">27-May-1997</span></td><td>active</td></tr><tr><td>Prediabetes</td><td><span class=\"nb\">10-May-1994</span></td><td>active</td></tr><tr><td>Essential hypertension</td><td><span class=\"nb\">16-Apr-1991</span></td><td>active</td></tr></table></div>"
            },
            "entry": [
              {
                "reference": "urn:uuid:a13cbde9-e609-47e4-a894-b06f3c5c52f9"
              },
              {
                "reference": "urn:uuid:f29832b3-cc8b-4a94-b2ca-32bfafca1b94"
              },
              {
                "reference": "urn:uuid:7d9fa088-3616-4525-9ba7-6d1285a0ee68"
              },
              {
                "reference": "urn:uuid:fe6d455d-c73a-4c69-a3de-4a923ec8ebd6"
              },
              {
                "reference": "urn:uuid:320a6d59-0576-4072-9e5c-949069d0e168"
              },
              {
                "reference": "urn:uuid:92551e89-13ee-465a-96bf-9576204ca660"
              },
              {
                "reference": "urn:uuid:35db787c-be71-4917-b695-2d1797048d59"
              },
              {
                "reference": "urn:uuid:d510ba34-1eef-45a5-822f-e8f4faebf772"
              },
              {
                "reference": "urn:uuid:39faaf5e-4ba2-40c6-b1df-9ca62edc44a3"
              },
              {
                "reference": "urn:uuid:ed311ead-e642-4452-b4f4-77bb48abb378"
              },
              {
                "reference": "urn:uuid:5a0eb1ed-cfb3-4b86-bf4e-75f9a5317100"
              }
            ],
            "code": {
              "coding": [
                {
                  "system": "http://loinc.org",
                  "code": "11450-4",
                  "display": "Problem list - Reported"
                }
              ]
            },
            "title": "Problem list"
          },
          {
            "text": {
              "status": "generated",
              "div": "<div xmlns=\"http://www.w3.org/1999/xhtml\"><table class=\"hl7__ips\"><tr><th>Medication</th><th>Since</th><th>Form</th><th>Dosage</th><th>Reason</th></tr><tr><td>Simvastatin 10 mg oral tablet</td><td><span class=\"nb\">2025-07-15</span></td><td>-</td><td>1 tablet (10 mg) by mouth once daily</td><td>Hyperlipidemia</td></tr><tr><td>insulin isophane human 70 UNT/ML / insulin regular human 30 UNT/ML Injectable Suspension [Humulin]</td><td><span class=\"nb\">2025-06-16</span></td><td>-</td><td>10 units subcutaneously twice daily before breakfast and dinner</td><td>Prediabetes</td></tr><tr><td>Amlodipine (as amlodipine besylate) 2.5 mg oral tablet</td><td><span class=\"nb\">2025-06-16</span></td><td>-</td><td>1 tablet (2.5 mg) by mouth once daily</td><td>Essential hypertension (disorder)</td></tr><tr><td>Vitamin B12 5 MG/ML Injectable Solution</td><td><span class=\"nb\">1997-06-02</span></td><td>-</td><td>5 mg (1 mL) intramuscularly once weekly</td><td>-</td></tr></table></div>"
            },
            "entry": [
              {
                "reference": "urn:uuid:59c9288d-d402-4050-a513-8cee759027f6"
              },
              {
                "reference": "urn:uuid:48246013-cc4e-4cdc-9a56-4558607678cc"
              },
              {
                "reference": "urn:uuid:38f277be-4de0-4612-99ce-420fefbb7691"
              },
              {
                "reference": "urn:uuid:551dc2c7-5bbc-4313-87d7-915beeea5c94"
              }
            ],
            "code": {
              "coding": [
                {
                  "system": "http://loinc.org",
                  "code": "10160-0",
                  "display": "History of Medication use Narrative"
                }
              ]
            },
            "title": "Medication list"
          },
          {
            "text": {
              "status": "generated",
              "div": "<div xmlns=\"http://www.w3.org/1999/xhtml\"><table class=\"hl7__ips\"><tr><th>Vaccine</th><th>Date</th></tr><tr><td>Influenza virus antigen only vaccine product</td><td><span class=\"nb\">28-Apr-2025</span></td></tr><tr><td>Streptococcus pneumoniae Danish serotype 1</td><td><span class=\"nb\">21-Oct-2024</span></td></tr><tr><td>Streptococcus pneumoniae Danish serotype 1</td><td><span class=\"nb\">11-Dec-2023</span></td></tr><tr><td>SARS-CoV-2 mRNA vaccine</td><td><span class=\"nb\">20-Dec-2021</span></td></tr><tr><td>Clostridium tetani toxoid antigen adsorbed only vaccine product</td><td><span class=\"nb\">30-Sep-2019</span></td></tr></table></div>"
            },
            "entry": [
              {
                "reference": "urn:uuid:85fc889e-2f86-43e4-8667-de8fa3935525"
              },
              {
                "reference": "urn:uuid:85cb1070-a425-44f1-9955-6cddae3139c6"
              },
              {
                "reference": "urn:uuid:ba7cc130-70eb-4498-9ed3-51556bc586c0"
              },
              {
                "reference": "urn:uuid:00a86d54-4c10-46b4-a5f2-481dcca9f927"
              },
              {
                "reference": "urn:uuid:7114f937-f18a-4fb1-a3c8-332ad113256e"
              }
            ],
            "code": {
              "coding": [
                {
                  "system": "http://loinc.org",
                  "code": "11369-6",
                  "display": "History of Immunization note"
                }
              ]
            },
            "title": "Immunizations list"
          },
          {
            "text": {
              "status": "generated",
              "div": "<div xmlns=\"http://www.w3.org/1999/xhtml\"><table class=\"hl7__ips\"><tr><th>Procedure</th><th>Date</th><th>Reason</th></tr><tr><td>Depression screening</td><td><span class=\"nb\">20-May-2025</span></td><td>-</td></tr><tr><td>Screening for domestic abuse</td><td><span class=\"nb\">20-May-2025</span></td><td>-</td></tr><tr><td>Depression screening using Patient Health Questionnaire Two-Item score (procedure)</td><td><span class=\"nb\">20-May-2025</span></td><td>-</td></tr><tr><td>Assessment of health and social care needs</td><td><span class=\"nb\">19-May-2025</span></td><td>-</td></tr><tr><td>Assessment of anxiety</td><td><span class=\"nb\">19-May-2025</span></td><td>-</td></tr><tr><td>Assessment using Morse Fall Scale</td><td><span class=\"nb\">19-May-2025</span></td><td>-</td></tr><tr><td>Assessment using AUDIT-C (Alcohol Use Disorders Identification Test - Consumption)</td><td><span class=\"nb\">18-Mar-2025</span></td><td>-</td></tr><tr><td>Assessment of substance use</td><td><span class=\"nb\">18-Mar-2025</span></td><td>-</td></tr><tr><td>Medication reconciliation</td><td><span class=\"nb\">17-Mar-2025</span></td><td>-</td></tr><tr><td>Screening for drug abuse</td><td><span class=\"nb\">21-May-2024</span></td><td>-</td></tr><tr><td>Pre-discharge assessment</td><td><span class=\"nb\">01-Dec-2023</span></td><td>-</td></tr><tr><td>Discharge from skilled nursing facility (procedure)</td><td><span class=\"nb\">01-Dec-2023</span></td><td>-</td></tr><tr><td>Nursing care/supplementary surveillance</td><td><span class=\"nb\">30-Nov-2023</span></td><td>-</td></tr><tr><td>Occupational therapy</td><td><span class=\"nb\">29-Nov-2023</span></td><td>-</td></tr><tr><td>Professional / ancillary services care</td><td><span class=\"nb\">22-Nov-2023</span></td><td>-</td></tr><tr><td>Physical therapy procedure</td><td><span class=\"nb\">18-Nov-2023</span></td><td>-</td></tr><tr><td>Speech and language therapy regime</td><td><span class=\"nb\">31-Oct-2023</span></td><td>-</td></tr><tr><td>Care regimes assessment</td><td><span class=\"nb\">23-Oct-2023</span></td><td>-</td></tr><tr><td>History AND physical examination</td><td><span class=\"nb\">02-Oct-2023</span></td><td>-</td></tr><tr><td>Initial patient assessment</td><td><span class=\"nb\">02-Oct-2023</span></td><td>-</td></tr><tr><td>Development of individualized plan of care</td><td><span class=\"nb\">02-Oct-2023</span></td><td>-</td></tr><tr><td>Depression screening using PHQ-9 (Patient Health Questionnaire 9) score</td><td><span class=\"nb\">19-Jul-2022</span></td><td>-</td></tr><tr><td>Radiography of wrist</td><td><span class=\"nb\">27-Dec-2015</span></td><td>-</td></tr><tr><td>Bone immobilization</td><td><span class=\"nb\">27-Dec-2015</span></td><td>Fracture subluxation of wrist</td></tr><tr><td>Bone density scan</td><td><span class=\"nb\">27-Dec-2015</span></td><td>Fracture subluxation of wrist</td></tr></table></div>"
            },
            "entry": [
              {
                "reference": "urn:uuid:00eb3c21-41ce-4ee7-8945-a6cc2c316064"
              },
              {
                "reference": "urn:uuid:52ba6ce5-aebf-4800-997d-585016ea4a33"
              },
              {
                "reference": "urn:uuid:fb13f8fc-34af-4334-9bc0-d5a285f3ca02"
              },
              {
                "reference": "urn:uuid:1eb3bc60-7a3a-4379-8556-70215531e0a6"
              },
              {
                "reference": "urn:uuid:922a4677-33b7-4c28-b893-3034a97966cc"
              },
              {
                "reference": "urn:uuid:19841749-c7e7-4ab5-b0d4-b33bac54eb61"
              },
              {
                "reference": "urn:uuid:c1f913f3-ea4e-4ac4-9ee7-80db359862ee"
              },
              {
                "reference": "urn:uuid:242893db-4922-4b21-996e-5b5b66d0257a"
              },
              {
                "reference": "urn:uuid:d31bb2d5-a970-40cd-b6cf-b8c629d7fdeb"
              },
              {
                "reference": "urn:uuid:cb80ce16-c403-426c-9c17-19305d356d54"
              },
              {
                "reference": "urn:uuid:0842d51b-2b96-400e-9419-aa7ec848919f"
              },
              {
                "reference": "urn:uuid:df359677-26a5-4a09-88b8-8e8165d5582f"
              },
              {
                "reference": "urn:uuid:95bb45b6-31e8-4bbe-b142-3a966dd52a4e"
              },
              {
                "reference": "urn:uuid:ab5cf4ca-96fd-4154-ad82-e4505cd8fbcd"
              },
              {
                "reference": "urn:uuid:5e5da5f7-fd0f-4a29-9210-b4fd2ea070f8"
              },
              {
                "reference": "urn:uuid:d3b543a8-9478-4a37-9e7d-a5733122b387"
              },
              {
                "reference": "urn:uuid:cf7099ea-ee87-4dcc-a853-979969eedd0c"
              },
              {
                "reference": "urn:uuid:b80d0e7c-6f91-424e-8a80-994f968ed197"
              },
              {
                "reference": "urn:uuid:e261883e-8a8f-4af2-8e6b-055030db1f33"
              },
              {
                "reference": "urn:uuid:58672db7-f8b5-4b25-8350-7b4f87c7217b"
              },
              {
                "reference": "urn:uuid:21a394ac-99ec-4ef3-b672-fbac84bc0ec7"
              },
              {
                "reference": "urn:uuid:5dba8feb-a37f-485f-986c-8deee51dc868"
              },
              {
                "reference": "urn:uuid:55d3a38f-51a2-45b3-817e-3e78b5c9936d"
              },
              {
                "reference": "urn:uuid:e7812b1e-44d1-40d5-9cd2-b0ab75a112ce"
              },
              {
                "reference": "urn:uuid:98f5e7d7-09cd-45e7-864e-0c69e107d122"
              }
            ],
            "code": {
              "coding": [
                {
                  "system": "http://loinc.org",
                  "code": "47519-4",
                  "display": "History of Procedures Document"
                }
              ]
            },
            "title": "Procedure History list"
          },
          {
            "text": {
              "status": "generated",
              "div": "<div xmlns=\"http://www.w3.org/1999/xhtml\"><table class=\"hl7__ips\"><tr><th>Allergy/Intolerance</th><th>Onset Date</th><th>Status</th><th>Type</th><th>Reaction</th></tr><tr><td></td><td>?</td><td>active</td><td>?</td><td></td></tr></table></div>"
            },
            "entry": [
              {
                "reference": "urn:uuid:7a1932c1-3f94-4682-a4d3-0b98d9a65345"
              }
            ],
            "code": {
              "coding": [
                {
                  "system": "http://loinc.org",
                  "code": "48765-2",
                  "display": "Allergies and adverse reactions Document"
                }
              ]
            },
            "title": "Allergies and Intolerances"
          },
          {
            "text": {
              "status": "generated",
              "div": "<div xmlns=\"http://www.w3.org/1999/xhtml\"><table class=\"hl7__ips\"><tr><th>Active Planned Care / Goals</th><th>Start Date</th><th>Reason</th></tr><tr><td>Hyperlipidemia clinical management plan</td><td><span class=\"nb\">16-Jul-2024</span></td><td>Hyperlipidemia</td></tr><tr><td><ul><li>Reduce LDL cholesterol to target level</li><li>Reduce total cholesterol to target level</li><li>Reduce triglycerides to target level</li><li>Increase HDL cholesterol to target level</li></ul></td><td></td><td></td></tr><tr><td>Diabetes self management plan</td><td><span class=\"nb\">10-May-1994</span></td><td>Prediabetes</td></tr><tr><td><ul><li>Achieve and maintain Hemoglobin A1c below 6.5% through diabetes self-management.</li><li>Achieve and maintain a healthy body weight as part of diabetes self-management.</li><li>Maintain blood pressure below 130/80 mmHg through lifestyle modifications.</li><li>Achieve and maintain LDL cholesterol below 2.6 mmol/L as part of diabetes self-management.</li></ul></td><td></td><td></td></tr><tr><td>Lifestyle education regarding hypertension</td><td><span class=\"nb\">16-Apr-1991</span></td><td>Essential hypertension (disorder)</td></tr><tr><td><ul><li>Maintain blood pressure below 130/80 mmHg to reduce cardiovascular and renal risk.</li><li>Adopt dietary changes, increase physical activity, and reduce sodium intake to support blood pressure control.</li></ul></td><td></td><td></td></tr><tr><th>Immunization Recommendation</th><th>Due Date</th><th>Reason</th></tr><tr><td>Vaccine product containing only Influenza virus antigen (medicinal product)</td><td><span class=\"nb\">01-Oct-2025</span></td><td>Annual seasonal influenza vaccination</td></tr></table></div>"
            },
            "entry": [
              {
                "reference": "urn:uuid:7cebd6aa-6731-4bb7-baf5-dff8ec656312"
              },
              {
                "reference": "urn:uuid:f2df7653-b4e3-4527-89b6-2518f7d45a32"
              },
              {
                "reference": "urn:uuid:a383ab84-d92d-4815-9b8f-415e73f08cb9"
              },
              {
                "reference": "urn:uuid:de30efcd-3993-4ff3-97c1-7598b4de94c7"
              }
            ],
            "code": {
              "coding": [
                {
                  "system": "http://loinc.org",
                  "code": "18776-5",
                  "display": "Plan of care note"
                }
              ]
            },
            "title": "Care Plan"
          },
          {
            "text": {
              "status": "generated",
              "div": "<div xmlns=\"http://www.w3.org/1999/xhtml\"><table class=\"hl7__ips\"><tr><th>Vital Signs</th><th>2025-06-16</th><th>2025-05-19</th></tr><tr><td>Body Height</td><td>169.5 cm</td><td>169.5 cm</td></tr><tr><td>Pain severity - 0-10 verbal numeric rating [Score] - Reported</td><td>1 {score}</td><td>2 {score}</td></tr><tr><td>Body Weight</td><td>80.6 kg</td><td>80.6 kg</td></tr><tr><td>Body mass index (BMI) [Ratio]</td><td>28.1 kg/m2</td><td>28.1 kg/m2</td></tr><tr><td>Diastolic Blood Pressure</td><td>91 mm[Hg]</td><td>89 mm[Hg]</td></tr><tr><td>Systolic Blood Pressure</td><td>111 mm[Hg]</td><td>110 mm[Hg]</td></tr><tr><td>Heart rate</td><td>79 /min</td><td>65 /min</td></tr><tr><td>Respiratory rate</td><td>14 /min</td><td>14 /min</td></tr></table></div>"
            },
            "entry": [
              {
                "reference": "urn:uuid:4ae546db-baef-4085-b9c8-70837c0ad6af"
              },
              {
                "reference": "urn:uuid:60db4dd2-2971-4bc0-b176-0dba7c49b621"
              },
              {
                "reference": "urn:uuid:24c3c298-7864-48f1-a90f-550f049b5bd0"
              },
              {
                "reference": "urn:uuid:b3dc33f3-e456-4b8e-bea1-7e3a2ff490fa"
              },
              {
                "reference": "urn:uuid:3273a658-7eb1-479c-8721-6411ea0f4fa8"
              },
              {
                "reference": "urn:uuid:baa57112-8286-4852-ad9d-e7f89d6a0861"
              },
              {
                "reference": "urn:uuid:ee8f17ee-558e-4ccb-bd70-5bec899cc976"
              },
              {
                "reference": "urn:uuid:0d3c3534-339e-4cc2-809b-693141acbbc4"
              },
              {
                "reference": "urn:uuid:2d222e56-da97-467b-8345-3cc7aa422923"
              },
              {
                "reference": "urn:uuid:d14a0f72-3bd8-47d0-badc-e39652eec919"
              },
              {
                "reference": "urn:uuid:d3f062fc-eba9-4d53-885e-ab9ee2023b48"
              },
              {
                "reference": "urn:uuid:fa55a61b-25da-4cc3-ac49-98c71a77a4f1"
              },
              {
                "reference": "urn:uuid:f81347c6-73de-4ce1-ad3e-dc48d02e2c31"
              },
              {
                "reference": "urn:uuid:ce13097c-f2bb-4397-85de-0edd03241850"
              },
              {
                "reference": "urn:uuid:d718152b-6c05-4b50-87e7-9a9250736ba8"
              },
              {
                "reference": "urn:uuid:7ab56c1a-3272-4715-8da3-87860de51b54"
              }
            ],
            "code": {
              "coding": [
                {
                  "system": "http://loinc.org",
                  "code": "8716-3",
                  "display": "Vital signs note"
                }
              ]
            },
            "title": "Vital Signs"
          },
          {
            "text": {
              "status": "generated",
              "div": "<div xmlns=\"http://www.w3.org/1999/xhtml\"><table class=\"hl7__ips\"><table class=\"hl7__ips\"><thead><tr><th>Recent Lab Observations</th><th>16-JUL-2025</th><th>Reference&#xA0;Range</th><th>Unit</th></tr></thead><tbody><tr><td>Glucose [Mass/volume] in Blood</td><td>75.1</td><td>70 - 100</td><td>mg/dL</td></tr><tr><td>Urea nitrogen [Mass/volume] in Blood</td><td>18.0</td><td>7 - 43</td><td>mg/dL</td></tr><tr><td>Creatinine [Mass/volume] in Blood</td><td><strong>2.9 H</strong></td><td>0.6 - 1.1</td><td>mg/dL</td></tr><tr><td>Calcium [Mass/volume] in Blood</td><td>9.8</td><td>8.5 - 10.5</td><td>mg/dL</td></tr><tr><td>Sodium [Moles/volume] in Blood</td><td>137.5</td><td>135 - 145</td><td>mmol/L</td></tr><tr><td>Potassium [Moles/volume] in Blood</td><td>4.6</td><td>3.5 - 5.1</td><td>mmol/L</td></tr><tr><td>Chloride [Moles/volume] in Blood</td><td>105.3</td><td>98 - 108</td><td>mmol/L</td></tr><tr><td>Carbon dioxide, total [Moles/volume] in Blood</td><td>25.3</td><td>22 - 29</td><td>mmol/L</td></tr><tr><td>Protein [Mass/volume] in Serum or Plasma</td><td>6.7</td><td>6 - 8.3</td><td>g/dL</td></tr><tr><td>Albumin [Mass/volume] in Serum or Plasma</td><td>5.2</td><td>3.5 - 5.5</td><td>g/dL</td></tr><tr><td>Globulin [Mass/volume] in Serum by calculation</td><td>3.2</td><td>2 - 3.5</td><td>g/L</td></tr><tr><td>Bilirubin.total [Mass/volume] in Serum or Plasma</td><td><strong>0.1 L</strong></td><td>0.3 - 1.2</td><td>mg/dL</td></tr><tr><td>Alkaline phosphatase [Enzymatic activity/volume] in Serum or Plasma</td><td>80.2</td><td>44 - 130</td><td>U/L</td></tr><tr><td>Alanine aminotransferase [Enzymatic activity/volume] in Serum or Plasma</td><td>53.4</td><td>0 - 55</td><td>U/L</td></tr><tr><td>Aspartate aminotransferase [Enzymatic activity/volume] in Serum or Plasma</td><td>10.6</td><td>10 - 40</td><td>U/L</td></tr><tr><td>Cholesterol [Mass/volume] in Serum or Plasma</td><td>199.1</td><td>125 - 239</td><td>mg/dL</td></tr><tr><td>Triglyceride [Mass/volume] in Serum or Plasma</td><td>113.4</td><td></td><td>mg/dL</td></tr><tr><td>Cholesterol in LDL [Mass/volume] in Serum or Plasma by Direct assay</td><td><strong>142.4 H</strong></td><td>0 - 130</td><td>mg/dL</td></tr><tr><td>Cholesterol in HDL [Mass/volume] in Serum or Plasma</td><td>74.2</td><td>50 - 100</td><td>mg/dL</td></tr></tbody></table></table></div>"
            },
            "entry": [
              {
                "reference": "urn:uuid:6dd671d2-7432-44f8-bbb1-56f922f3f5db"
              },
              {
                "reference": "urn:uuid:990cd759-f00e-48de-92e8-b044095c16a6"
              },
              {
                "reference": "urn:uuid:2ef252e6-6437-4ed0-a287-40b702e94392"
              },
              {
                "reference": "urn:uuid:02088bcc-80d5-4657-b7cd-f663d05c4bac"
              },
              {
                "reference": "urn:uuid:13c9572b-f0ff-47ef-bdb1-0af5a6c1d676"
              },
              {
                "reference": "urn:uuid:4430985e-8124-454f-be77-368d95e2835d"
              },
              {
                "reference": "urn:uuid:a92c2b35-53e2-46fb-9e9e-1c655a3d19c0"
              },
              {
                "reference": "urn:uuid:f8d29d4f-290a-4258-9fdd-9c6291cf38df"
              },
              {
                "reference": "urn:uuid:9dc369e2-a704-47e9-9d7b-5163e7a952a5"
              },
              {
                "reference": "urn:uuid:5016659a-1e30-4320-bdc2-59fe5abbbea3"
              },
              {
                "reference": "urn:uuid:3506b0dc-269e-41f6-a566-c21812b2c1d6"
              },
              {
                "reference": "urn:uuid:fbdd6c19-6840-425f-9df4-d4828f31fe52"
              },
              {
                "reference": "urn:uuid:3e7408ee-8fb6-463d-ba6e-e37aedaf4020"
              },
              {
                "reference": "urn:uuid:4f1d9078-98f2-4dfd-8b98-e5269c1e531a"
              },
              {
                "reference": "urn:uuid:b855fca9-702d-463c-94bd-6b9c0b0c2b31"
              },
              {
                "reference": "urn:uuid:8aa94eb0-e771-49a9-b0a9-e67d87048b48"
              },
              {
                "reference": "urn:uuid:37cb845d-7b5f-493b-a09a-04f2b423c8c5"
              },
              {
                "reference": "urn:uuid:8830ea51-77f3-43e7-9673-b740bdcbb509"
              },
              {
                "reference": "urn:uuid:4cd1af7e-8d83-4790-b69a-3a5b75bde724"
              }
            ],
            "code": {
              "coding": [
                {
                  "system": "http://loinc.org",
                  "code": "30954-2",
                  "display": "Relevant diagnostic tests/laboratory data note"
                }
              ]
            },
            "title": "Relevant diagnostic tests/laboratory data"
          },
          {
            "text": {
              "status": "generated",
              "div": "<div xmlns=\"http://www.w3.org/1999/xhtml\"><table class=\"hl7__ips\"><tr><th>Device</th><th>Date (since)</th></tr><tr><td>Blood glucose meter (physical object)</td><td><span class=\"nb\">09-May-1994</span></td></tr></table></div>"
            },
            "entry": [
              {
                "reference": "urn:uuid:99865356-3147-4c79-8fbf-7f7488bc81de"
              }
            ],
            "code": {
              "coding": [
                {
                  "system": "http://loinc.org",
                  "code": "46264-8",
                  "display": "History of medical device use"
                }
              ]
            },
            "title": "Device Use"
          }
        ],
        "title": "European Patient Summary",
        "status": "final",
        "subject": {
          "reference": "urn:uuid:62480d3b-bc3e-44b2-b530-29d3c4027acb",
          "display": "Meaghan Neary"
        },
        "custodian": {
          "reference": "urn:uuid:62088d92-b336-44eb-b1dc-a30b8080d6e6"
        },
        "date": "2025-07-16",
        "confidentiality": "N"
      }
    },
    {
      "fullUrl": "urn:uuid:62480d3b-bc3e-44b2-b530-29d3c4027acb",
      "resource": {
        "resourceType": "Patient",
        "id": "62480d3b-bc3e-44b2-b530-29d3c4027acb",
        "meta": {
          "security": [
            {
              "system": "http://terminology.hl7.org/CodeSystem/v3-ActReason",
              "code": "HTEST"
            },
            {
              "system": "http://terminology.hl7.org/CodeSystem/v3-ActReason",
              "code": "TRAIN"
            }
          ],
          "tag": [
            {
              "system": "https://synderai.net/fhir/CodeSystem/tags",
              "code": "synthetic",
              "display": "SYNDERAI Synthetic data"
            }
          ],
          "profile": [
            "http://hl7.eu/fhir/eps/StructureDefinition/patient-eu-eps"
          ]
        },
        "identifier": [
          {
            "type": {
              "coding": [
                {
                  "code": "PT",
                  "system": "http://terminology.hl7.org/CodeSystem/v2-0203"
                }
              ]
            },
            "system": "http://ec.europa.eu/identifier/eci",
            "value": "1586-567257-8"
          },
          {
            "type": {
              "coding": [
                {
                  "code": "MR",
                  "system": "http://terminology.hl7.org/CodeSystem/v2-0203"
                }
              ]
            },
            "system": "http://local.setting.eu/identifier",
            "value": "443e6379-f231-b364-3ccb-644740a1aa2a"
          }
        ],
        "name": [
          {
            "family": "Neary"
          },
          {
            "given": [
              "Meaghan"
            ]
          },
          {
            "text": "Meaghan Neary"
          }
        ],
        "address": [
          {
            "line": [
              "64 Linskey Street"
            ],
            "use": "home",
            "type": "physical",
            "postalCode": "D02",
            "city": "Dublin",
            "country": "Ireland"
          }
        ],
        "telecom": [
          {
            "system": "phone",
            "value": "001-967-573-0911x465"
          }
        ],
        "extension": [
          {
            "url": "http://hl7.org/fhir/StructureDefinition/patient-nationality",
            "valueCodeableConcept": {
              "coding": [
                {
                  "code": "IE",
                  "system": "http://hl7.org/fhir/ValueSet/country"
                }
              ]
            }
          }
        ],
        "text": {
          "status": "generated",
          "div": "<div xmlns=\"http://www.w3.org/1999/xhtml\"><table class=\"hl7__ips\"><tr><td>Meaghan Neary</td><td>female</td><td>19-Dec-1960</td></tr></table></div>"
        },
        "gender": "female",
        "birthDate": "1960-12-19"
      }
    },
    {
      "fullUrl": "urn:uuid:8c473960-0099-46ab-a4e1-71bb0fc52514",
      "resource": {
        "resourceType": "PractitionerRole",
        "id": "8c473960-0099-46ab-a4e1-71bb0fc52514",
        "meta": {
          "profile": [
            "http://hl7.eu/fhir/base/StructureDefinition/practitionerRole-eu"
          ]
        },
        "text": {
          "status": "generated",
          "div": "<div xmlns=\"http://www.w3.org/1999/xhtml\"><table class=\"hl7__ips\">Provider Role Id 8c473960-0099-46ab-a4e1-71bb0fc52514</table></div>"
        },
        "practitioner": {
          "reference": "urn:uuid:4777f485-22c6-469a-b68d-07ac062b9878"
        },
        "organization": {
          "reference": "urn:uuid:62088d92-b336-44eb-b1dc-a30b8080d6e6"
        }
      }
    },
    {
      "fullUrl": "urn:uuid:4777f485-22c6-469a-b68d-07ac062b9878",
      "resource": {
        "resourceType": "Practitioner",
        "id": "4777f485-22c6-469a-b68d-07ac062b9878",
        "meta": {
          "profile": [
            "http://hl7.eu/fhir/base/StructureDefinition/practitioner-eu"
          ]
        },
        "name": [
          {
            "prefix": [
              "Dr."
            ],
            "given": [
              "Hel"
            ],
            "family": "Ping"
          }
        ],
        "text": {
          "status": "generated",
          "div": "<div xmlns=\"http://www.w3.org/1999/xhtml\"><table class=\"hl7__ips\">Dr. Hel Ping</table></div>"
        }
      }
    },
    {
      "fullUrl": "urn:uuid:62088d92-b336-44eb-b1dc-a30b8080d6e6",
      "resource": {
        "resourceType": "Organization",
        "id": "62088d92-b336-44eb-b1dc-a30b8080d6e6",
        "meta": {
          "profile": [
            "http://hl7.eu/fhir/base/StructureDefinition/organization-eu"
          ]
        },
        "identifier": [
          {
            "assigner": {
              "display": "HL7 Europe"
            },
            "system": "urn:oid:2.16.840.1.113883.2.51.999",
            "value": "269b2d79-ad43-4200-8bd7-16a2d55c1bb8"
          }
        ],
        "address": [
          {
            "line": [
              "Parnell Square West nan"
            ],
            "city": "Dublin",
            "postalCode": "D01",
            "country": "Ireland"
          }
        ],
        "text": {
          "status": "generated",
          "div": "<div xmlns=\"http://www.w3.org/1999/xhtml\"><table class=\"hl7__ips\">Rotunda Hospital</table></div>"
        },
        "name": "Rotunda Hospital"
      }
    },
    {
      "fullUrl": "urn:uuid:a13cbde9-e609-47e4-a894-b06f3c5c52f9",
      "resource": {
        "resourceType": "Condition",
        "id": "a13cbde9-e609-47e4-a894-b06f3c5c52f9",
        "meta": {
          "profile": [
            "http://hl7.org/fhir/uv/ips/StructureDefinition/Condition-uv-ips"
          ]
        },
        "category": [
          {
            "coding": [
              {
                "code": "problem-list-item",
                "system": "http://terminology.hl7.org/CodeSystem/condition-category",
                "display": "Problem List Item"
              }
            ]
          }
        ],
        "code": {
          "coding": [
            {
              "code": "55822004",
              "system": "http://snomed.info/sct",
              "display": "Hyperlipidemia (disorder)"
            }
          ],
          "text": "Hyperlipidemia"
        },
        "text": {
          "status": "generated",
          "div": "<div xmlns=\"http://www.w3.org/1999/xhtml\"><table class=\"hl7__ips\"><tr><td>Hyperlipidemia</td><td><span class=\"nb\">25-Jun-2024</span></td><td>active</td></tr></table></div>"
        },
        "onsetDateTime": "2024-06-25",
        "subject": {
          "reference": "urn:uuid:",
          "display": "Meaghan Neary"
        },
        "asserter": {
          "reference": "urn:uuid:",
          "display": "Rotunda Hospital"
        }
      }
    },
    {
      "fullUrl": "urn:uuid:f29832b3-cc8b-4a94-b2ca-32bfafca1b94",
      "resource": {
        "resourceType": "Condition",
        "id": "f29832b3-cc8b-4a94-b2ca-32bfafca1b94",
        "meta": {
          "profile": [
            "http://hl7.org/fhir/uv/ips/StructureDefinition/Condition-uv-ips"
          ]
        },
        "category": [
          {
            "coding": [
              {
                "code": "problem-list-item",
                "system": "http://terminology.hl7.org/CodeSystem/condition-category",
                "display": "Problem List Item"
              }
            ]
          }
        ],
        "code": {
          "coding": [
            {
              "code": "433144002",
              "system": "http://snomed.info/sct",
              "display": "Chronic kidney disease stage 3 (disorder)"
            }
          ],
          "text": "Chronic kidney disease stage 3"
        },
        "text": {
          "status": "generated",
          "div": "<div xmlns=\"http://www.w3.org/1999/xhtml\"><table class=\"hl7__ips\"><tr><td>Chronic kidney disease stage 3</td><td><span class=\"nb\">23-Apr-2019</span></td><td>active</td></tr></table></div>"
        },
        "onsetDateTime": "2019-04-23",
        "subject": {
          "reference": "urn:uuid:",
          "display": "Meaghan Neary"
        },
        "asserter": {
          "reference": "urn:uuid:",
          "display": "Rotunda Hospital"
        }
      }
    },
    {
      "fullUrl": "urn:uuid:7d9fa088-3616-4525-9ba7-6d1285a0ee68",
      "resource": {
        "resourceType": "Condition",
        "id": "7d9fa088-3616-4525-9ba7-6d1285a0ee68",
        "meta": {
          "profile": [
            "http://hl7.org/fhir/uv/ips/StructureDefinition/Condition-uv-ips"
          ]
        },
        "category": [
          {
            "coding": [
              {
                "code": "problem-list-item",
                "system": "http://terminology.hl7.org/CodeSystem/condition-category",
                "display": "Problem List Item"
              }
            ]
          }
        ],
        "code": {
          "coding": [
            {
              "code": "157141000119108",
              "system": "http://snomed.info/sct",
              "display": "Proteinuria due to type 2 diabetes mellitus (disorder)"
            }
          ],
          "text": "Proteinuria due to type 2 diabetes mellitus"
        },
        "text": {
          "status": "generated",
          "div": "<div xmlns=\"http://www.w3.org/1999/xhtml\"><table class=\"hl7__ips\"><tr><td>Proteinuria due to type 2 diabetes mellitus</td><td><span class=\"nb\">23-Apr-2019</span></td><td>active</td></tr></table></div>"
        },
        "onsetDateTime": "2019-04-23",
        "subject": {
          "reference": "urn:uuid:",
          "display": "Meaghan Neary"
        },
        "asserter": {
          "reference": "urn:uuid:",
          "display": "Rotunda Hospital"
        }
      }
    },
    {
      "fullUrl": "urn:uuid:fe6d455d-c73a-4c69-a3de-4a923ec8ebd6",
      "resource": {
        "resourceType": "Condition",
        "id": "fe6d455d-c73a-4c69-a3de-4a923ec8ebd6",
        "meta": {
          "profile": [
            "http://hl7.org/fhir/uv/ips/StructureDefinition/Condition-uv-ips"
          ]
        },
        "category": [
          {
            "coding": [
              {
                "code": "problem-list-item",
                "system": "http://terminology.hl7.org/CodeSystem/condition-category",
                "display": "Problem List Item"
              }
            ]
          }
        ],
        "code": {
          "coding": [
            {
              "code": "431856006",
              "system": "http://snomed.info/sct",
              "display": "Chronic kidney disease stage 2 (disorder)"
            }
          ],
          "text": "Chronic kidney disease stage 2"
        },
        "text": {
          "status": "generated",
          "div": "<div xmlns=\"http://www.w3.org/1999/xhtml\"><table class=\"hl7__ips\"><tr><td>Chronic kidney disease stage 2</td><td><span class=\"nb\">27-Aug-2013</span></td><td>active</td></tr></table></div>"
        },
        "onsetDateTime": "2013-08-27",
        "subject": {
          "reference": "urn:uuid:",
          "display": "Meaghan Neary"
        },
        "asserter": {
          "reference": "urn:uuid:",
          "display": "Rotunda Hospital"
        }
      }
    },
    {
      "fullUrl": "urn:uuid:320a6d59-0576-4072-9e5c-949069d0e168",
      "resource": {
        "resourceType": "Condition",
        "id": "320a6d59-0576-4072-9e5c-949069d0e168",
        "meta": {
          "profile": [
            "http://hl7.org/fhir/uv/ips/StructureDefinition/Condition-uv-ips"
          ]
        },
        "category": [
          {
            "coding": [
              {
                "code": "problem-list-item",
                "system": "http://terminology.hl7.org/CodeSystem/condition-category",
                "display": "Problem List Item"
              }
            ]
          }
        ],
        "code": {
          "coding": [
            {
              "code": "90781000119102",
              "system": "http://snomed.info/sct",
              "display": "Microalbuminuria due to type 2 diabetes mellitus (disorder)"
            }
          ],
          "text": "Microalbuminuria due to type 2 diabetes mellitus"
        },
        "text": {
          "status": "generated",
          "div": "<div xmlns=\"http://www.w3.org/1999/xhtml\"><table class=\"hl7__ips\"><tr><td>Microalbuminuria due to type 2 diabetes mellitus</td><td><span class=\"nb\">27-Aug-2013</span></td><td>active</td></tr></table></div>"
        },
        "onsetDateTime": "2013-08-27",
        "subject": {
          "reference": "urn:uuid:",
          "display": "Meaghan Neary"
        },
        "asserter": {
          "reference": "urn:uuid:",
          "display": "Rotunda Hospital"
        }
      }
    },
    {
      "fullUrl": "urn:uuid:92551e89-13ee-465a-96bf-9576204ca660",
      "resource": {
        "resourceType": "Condition",
        "id": "92551e89-13ee-465a-96bf-9576204ca660",
        "meta": {
          "profile": [
            "http://hl7.org/fhir/uv/ips/StructureDefinition/Condition-uv-ips"
          ]
        },
        "category": [
          {
            "coding": [
              {
                "code": "problem-list-item",
                "system": "http://terminology.hl7.org/CodeSystem/condition-category",
                "display": "Problem List Item"
              }
            ]
          }
        ],
        "code": {
          "coding": [
            {
              "code": "127013003",
              "system": "http://snomed.info/sct",
              "display": "Disorder of kidney due to diabetes mellitus (disorder)"
            }
          ],
          "text": "Disorder of kidney due to diabetes mellitus"
        },
        "text": {
          "status": "generated",
          "div": "<div xmlns=\"http://www.w3.org/1999/xhtml\"><table class=\"hl7__ips\"><tr><td>Disorder of kidney due to diabetes mellitus</td><td><span class=\"nb\">18-Jul-2006</span></td><td>active</td></tr></table></div>"
        },
        "onsetDateTime": "2006-07-18",
        "subject": {
          "reference": "urn:uuid:",
          "display": "Meaghan Neary"
        },
        "asserter": {
          "reference": "urn:uuid:",
          "display": "Rotunda Hospital"
        }
      }
    },
    {
      "fullUrl": "urn:uuid:35db787c-be71-4917-b695-2d1797048d59",
      "resource": {
        "resourceType": "Condition",
        "id": "35db787c-be71-4917-b695-2d1797048d59",
        "meta": {
          "profile": [
            "http://hl7.org/fhir/uv/ips/StructureDefinition/Condition-uv-ips"
          ]
        },
        "category": [
          {
            "coding": [
              {
                "code": "problem-list-item",
                "system": "http://terminology.hl7.org/CodeSystem/condition-category",
                "display": "Problem List Item"
              }
            ]
          }
        ],
        "code": {
          "coding": [
            {
              "code": "431855005",
              "system": "http://snomed.info/sct",
              "display": "Chronic kidney disease stage 1 (disorder)"
            }
          ],
          "text": "Chronic kidney disease stage 1"
        },
        "text": {
          "status": "generated",
          "div": "<div xmlns=\"http://www.w3.org/1999/xhtml\"><table class=\"hl7__ips\"><tr><td>Chronic kidney disease stage 1</td><td><span class=\"nb\">18-Jul-2006</span></td><td>active</td></tr></table></div>"
        },
        "onsetDateTime": "2006-07-18",
        "subject": {
          "reference": "urn:uuid:",
          "display": "Meaghan Neary"
        },
        "asserter": {
          "reference": "urn:uuid:",
          "display": "Rotunda Hospital"
        }
      }
    },
    {
      "fullUrl": "urn:uuid:d510ba34-1eef-45a5-822f-e8f4faebf772",
      "resource": {
        "resourceType": "Condition",
        "id": "d510ba34-1eef-45a5-822f-e8f4faebf772",
        "meta": {
          "profile": [
            "http://hl7.org/fhir/uv/ips/StructureDefinition/Condition-uv-ips"
          ]
        },
        "category": [
          {
            "coding": [
              {
                "code": "problem-list-item",
                "system": "http://terminology.hl7.org/CodeSystem/condition-category",
                "display": "Problem List Item"
              }
            ]
          }
        ],
        "code": {
          "coding": [
            {
              "code": "237602007",
              "system": "http://snomed.info/sct",
              "display": "Metabolic syndrome X (disorder)"
            }
          ],
          "text": "Metabolic syndrome X"
        },
        "text": {
          "status": "generated",
          "div": "<div xmlns=\"http://www.w3.org/1999/xhtml\"><table class=\"hl7__ips\"><tr><td>Metabolic syndrome X</td><td><span class=\"nb\">02-Jun-1998</span></td><td>active</td></tr></table></div>"
        },
        "onsetDateTime": "1998-06-02",
        "subject": {
          "reference": "urn:uuid:",
          "display": "Meaghan Neary"
        },
        "asserter": {
          "reference": "urn:uuid:",
          "display": "Rotunda Hospital"
        }
      }
    },
    {
      "fullUrl": "urn:uuid:39faaf5e-4ba2-40c6-b1df-9ca62edc44a3",
      "resource": {
        "resourceType": "Condition",
        "id": "39faaf5e-4ba2-40c6-b1df-9ca62edc44a3",
        "meta": {
          "profile": [
            "http://hl7.org/fhir/uv/ips/StructureDefinition/Condition-uv-ips"
          ]
        },
        "category": [
          {
            "coding": [
              {
                "code": "problem-list-item",
                "system": "http://terminology.hl7.org/CodeSystem/condition-category",
                "display": "Problem List Item"
              }
            ]
          }
        ],
        "code": {
          "coding": [
            {
              "code": "271737000",
              "system": "http://snomed.info/sct",
              "display": "Anemia (disorder)"
            }
          ],
          "text": "Anemia"
        },
        "text": {
          "status": "generated",
          "div": "<div xmlns=\"http://www.w3.org/1999/xhtml\"><table class=\"hl7__ips\"><tr><td>Anemia</td><td><span class=\"nb\">27-May-1997</span></td><td>active</td></tr></table></div>"
        },
        "onsetDateTime": "1997-05-27",
        "subject": {
          "reference": "urn:uuid:",
          "display": "Meaghan Neary"
        },
        "asserter": {
          "reference": "urn:uuid:",
          "display": "Rotunda Hospital"
        }
      }
    },
    {
      "fullUrl": "urn:uuid:ed311ead-e642-4452-b4f4-77bb48abb378",
      "resource": {
        "resourceType": "Condition",
        "id": "ed311ead-e642-4452-b4f4-77bb48abb378",
        "meta": {
          "profile": [
            "http://hl7.org/fhir/uv/ips/StructureDefinition/Condition-uv-ips"
          ]
        },
        "category": [
          {
            "coding": [
              {
                "code": "problem-list-item",
                "system": "http://terminology.hl7.org/CodeSystem/condition-category",
                "display": "Problem List Item"
              }
            ]
          }
        ],
        "code": {
          "coding": [
            {
              "code": "15777000",
              "system": "http://snomed.info/sct",
              "display": "Prediabetes (disorder)"
            }
          ],
          "text": "Prediabetes"
        },
        "text": {
          "status": "generated",
          "div": "<div xmlns=\"http://www.w3.org/1999/xhtml\"><table class=\"hl7__ips\"><tr><td>Prediabetes</td><td><span class=\"nb\">10-May-1994</span></td><td>active</td></tr></table></div>"
        },
        "onsetDateTime": "1994-05-10",
        "subject": {
          "reference": "urn:uuid:",
          "display": "Meaghan Neary"
        },
        "asserter": {
          "reference": "urn:uuid:",
          "display": "Rotunda Hospital"
        }
      }
    },
    {
      "fullUrl": "urn:uuid:5a0eb1ed-cfb3-4b86-bf4e-75f9a5317100",
      "resource": {
        "resourceType": "Condition",
        "id": "5a0eb1ed-cfb3-4b86-bf4e-75f9a5317100",
        "meta": {
          "profile": [
            "http://hl7.org/fhir/uv/ips/StructureDefinition/Condition-uv-ips"
          ]
        },
        "category": [
          {
            "coding": [
              {
                "code": "problem-list-item",
                "system": "http://terminology.hl7.org/CodeSystem/condition-category",
                "display": "Problem List Item"
              }
            ]
          }
        ],
        "code": {
          "coding": [
            {
              "code": "59621000",
              "system": "http://snomed.info/sct",
              "display": "Essential hypertension (disorder)"
            }
          ],
          "text": "Essential hypertension"
        },
        "text": {
          "status": "generated",
          "div": "<div xmlns=\"http://www.w3.org/1999/xhtml\"><table class=\"hl7__ips\"><tr><td>Essential hypertension</td><td><span class=\"nb\">16-Apr-1991</span></td><td>active</td></tr></table></div>"
        },
        "onsetDateTime": "1991-04-16",
        "subject": {
          "reference": "urn:uuid:",
          "display": "Meaghan Neary"
        },
        "asserter": {
          "reference": "urn:uuid:",
          "display": "Rotunda Hospital"
        }
      }
    },
    {
      "fullUrl": "urn:uuid:d6218712-eca8-4d18-abaf-b2fcdf01e4fa",
      "resource": {
        "resourceType": "Condition",
        "id": "d6218712-eca8-4d18-abaf-b2fcdf01e4fa",
        "meta": {
          "profile": [
            "http://hl7.org/fhir/uv/ips/StructureDefinition/Condition-uv-ips"
          ]
        },
        "category": [
          {
            "coding": [
              {
                "code": "problem-list-item",
                "system": "http://terminology.hl7.org/CodeSystem/condition-category",
                "display": "Problem List Item"
              }
            ]
          }
        ],
        "code": {
          "coding": [
            {
              "code": "195662009",
              "system": "http://snomed.info/sct",
              "display": "Acute viral pharyngitis (disorder)"
            }
          ],
          "text": "Acute viral pharyngitis"
        },
        "text": {
          "status": "generated",
          "div": "<div xmlns=\"http://www.w3.org/1999/xhtml\"><table class=\"hl7__ips\"><tr><td><span class=\"grayedout\">Acute viral pharyngitis</span></td><td><span class=\"nb\">11-Jul-2022 - 20-Jul-2022</span></td><td><span class=\"grayedout\">inactive</span></td></tr></table></div>"
        },
        "onsetDateTime": "2022-07-11",
        "abatementDateTime": "2022-07-20",
        "subject": {
          "reference": "urn:uuid:",
          "display": "Meaghan Neary"
        },
        "asserter": {
          "reference": "urn:uuid:",
          "display": "Rotunda Hospital"
        }
      }
    },
    {
      "fullUrl": "urn:uuid:478c4878-22af-4dcf-9e70-6f1a959dc00f",
      "resource": {
        "resourceType": "Condition",
        "id": "478c4878-22af-4dcf-9e70-6f1a959dc00f",
        "meta": {
          "profile": [
            "http://hl7.org/fhir/uv/ips/StructureDefinition/Condition-uv-ips"
          ]
        },
        "category": [
          {
            "coding": [
              {
                "code": "problem-list-item",
                "system": "http://terminology.hl7.org/CodeSystem/condition-category",
                "display": "Problem List Item"
              }
            ]
          }
        ],
        "code": {
          "coding": [
            {
              "code": "444814009",
              "system": "http://snomed.info/sct",
              "display": "Viral sinusitis (disorder)"
            }
          ],
          "text": "Viral sinusitis"
        },
        "text": {
          "status": "generated",
          "div": "<div xmlns=\"http://www.w3.org/1999/xhtml\"><table class=\"hl7__ips\"><tr><td><span class=\"grayedout\">Viral sinusitis</span></td><td><span class=\"nb\">12-Sep-2017 - 08-Oct-2017</span></td><td><span class=\"grayedout\">inactive</span></td></tr></table></div>"
        },
        "onsetDateTime": "2017-09-12",
        "abatementDateTime": "2017-10-08",
        "subject": {
          "reference": "urn:uuid:",
          "display": "Meaghan Neary"
        },
        "asserter": {
          "reference": "urn:uuid:",
          "display": "Rotunda Hospital"
        }
      }
    },
    {
      "fullUrl": "urn:uuid:ace9e998-f7b5-4c67-96b0-8d97b16dfb98",
      "resource": {
        "resourceType": "Condition",
        "id": "ace9e998-f7b5-4c67-96b0-8d97b16dfb98",
        "meta": {
          "profile": [
            "http://hl7.org/fhir/uv/ips/StructureDefinition/Condition-uv-ips"
          ]
        },
        "category": [
          {
            "coding": [
              {
                "code": "problem-list-item",
                "system": "http://terminology.hl7.org/CodeSystem/condition-category",
                "display": "Problem List Item"
              }
            ]
          }
        ],
        "code": {
          "coding": [
            {
              "code": "444814009",
              "system": "http://snomed.info/sct",
              "display": "Viral sinusitis (disorder)"
            }
          ],
          "text": "Viral sinusitis"
        },
        "text": {
          "status": "generated",
          "div": "<div xmlns=\"http://www.w3.org/1999/xhtml\"><table class=\"hl7__ips\"><tr><td><span class=\"grayedout\">Viral sinusitis</span></td><td><span class=\"nb\">21-Nov-2016 - 09-Dec-2016</span></td><td><span class=\"grayedout\">inactive</span></td></tr></table></div>"
        },
        "onsetDateTime": "2016-11-21",
        "abatementDateTime": "2016-12-09",
        "subject": {
          "reference": "urn:uuid:",
          "display": "Meaghan Neary"
        },
        "asserter": {
          "reference": "urn:uuid:",
          "display": "Rotunda Hospital"
        }
      }
    },
    {
      "fullUrl": "urn:uuid:4d5e8682-6304-4d73-b75a-70e11d9413df",
      "resource": {
        "resourceType": "Condition",
        "id": "4d5e8682-6304-4d73-b75a-70e11d9413df",
        "meta": {
          "profile": [
            "http://hl7.org/fhir/uv/ips/StructureDefinition/Condition-uv-ips"
          ]
        },
        "category": [
          {
            "coding": [
              {
                "code": "problem-list-item",
                "system": "http://terminology.hl7.org/CodeSystem/condition-category",
                "display": "Problem List Item"
              }
            ]
          }
        ],
        "code": {
          "coding": [
            {
              "code": "125605004",
              "system": "http://snomed.info/sct",
              "display": "Fracture of bone (disorder)"
            }
          ],
          "text": "Fracture of bone"
        },
        "text": {
          "status": "generated",
          "div": "<div xmlns=\"http://www.w3.org/1999/xhtml\"><table class=\"hl7__ips\"><tr><td><span class=\"grayedout\">Fracture of bone</span></td><td><span class=\"nb\">27-Dec-2015 - 19-Apr-2016</span></td><td><span class=\"grayedout\">inactive</span></td></tr></table></div>"
        },
        "onsetDateTime": "2015-12-27",
        "abatementDateTime": "2016-04-19",
        "subject": {
          "reference": "urn:uuid:",
          "display": "Meaghan Neary"
        },
        "asserter": {
          "reference": "urn:uuid:",
          "display": "Rotunda Hospital"
        }
      }
    },
    {
      "fullUrl": "urn:uuid:bcd3a523-85cb-4839-b517-cdd895f83cc4",
      "resource": {
        "resourceType": "Condition",
        "id": "bcd3a523-85cb-4839-b517-cdd895f83cc4",
        "meta": {
          "profile": [
            "http://hl7.org/fhir/uv/ips/StructureDefinition/Condition-uv-ips"
          ]
        },
        "category": [
          {
            "coding": [
              {
                "code": "problem-list-item",
                "system": "http://terminology.hl7.org/CodeSystem/condition-category",
                "display": "Problem List Item"
              }
            ]
          }
        ],
        "code": {
          "coding": [
            {
              "code": "263102004",
              "system": "http://snomed.info/sct",
              "display": "Fracture subluxation of wrist (disorder)"
            }
          ],
          "text": "Fracture subluxation of wrist"
        },
        "text": {
          "status": "generated",
          "div": "<div xmlns=\"http://www.w3.org/1999/xhtml\"><table class=\"hl7__ips\"><tr><td><span class=\"grayedout\">Fracture subluxation of wrist</span></td><td><span class=\"nb\">27-Dec-2015 - 19-Apr-2016</span></td><td><span class=\"grayedout\">inactive</span></td></tr></table></div>"
        },
        "onsetDateTime": "2015-12-27",
        "abatementDateTime": "2016-04-19",
        "subject": {
          "reference": "urn:uuid:",
          "display": "Meaghan Neary"
        },
        "asserter": {
          "reference": "urn:uuid:",
          "display": "Rotunda Hospital"
        }
      }
    },
    {
      "fullUrl": "urn:uuid:4033c019-04f0-4a58-8332-bfb055a56f80",
      "resource": {
        "resourceType": "Condition",
        "id": "4033c019-04f0-4a58-8332-bfb055a56f80",
        "meta": {
          "profile": [
            "http://hl7.org/fhir/uv/ips/StructureDefinition/Condition-uv-ips"
          ]
        },
        "category": [
          {
            "coding": [
              {
                "code": "problem-list-item",
                "system": "http://terminology.hl7.org/CodeSystem/condition-category",
                "display": "Problem List Item"
              }
            ]
          }
        ],
        "code": {
          "coding": [
            {
              "code": "75498004",
              "system": "http://snomed.info/sct",
              "display": "Acute bacterial sinusitis (disorder)"
            }
          ],
          "text": "Acute bacterial sinusitis"
        },
        "text": {
          "status": "generated",
          "div": "<div xmlns=\"http://www.w3.org/1999/xhtml\"><table class=\"hl7__ips\"><tr><td><span class=\"grayedout\">Acute bacterial sinusitis</span></td><td><span class=\"nb\">02-Nov-2015 - 28-Nov-2015</span></td><td><span class=\"grayedout\">inactive</span></td></tr></table></div>"
        },
        "onsetDateTime": "2015-11-02",
        "abatementDateTime": "2015-11-28",
        "subject": {
          "reference": "urn:uuid:",
          "display": "Meaghan Neary"
        },
        "asserter": {
          "reference": "urn:uuid:",
          "display": "Rotunda Hospital"
        }
      }
    },
    {
      "fullUrl": "urn:uuid:ed3e51bf-a301-4c45-bdfb-12b722331093",
      "resource": {
        "resourceType": "Medication",
        "id": "ed3e51bf-a301-4c45-bdfb-12b722331093",
        "meta": {
          "profile": [
            "http://hl7.eu/fhir/eps/StructureDefinition/Medication-eu-eps"
          ]
        },
        "code": {
          "coding": [
            {
              "code": "319996000",
              "system": "http://snomed.info/sct",
              "display": "Simvastatin 10 mg oral tablet"
            }
          ],
          "text": "Simvastatin 10 mg oral tablet"
        },
        "text": {
          "status": "generated",
          "div": "<div xmlns=\"http://www.w3.org/1999/xhtml\">Simvastatin 10 mg oral tablet</div>"
        }
      }
    },
    {
      "fullUrl": "urn:uuid:59c9288d-d402-4050-a513-8cee759027f6",
      "resource": {
        "resourceType": "MedicationStatement",
        "id": "59c9288d-d402-4050-a513-8cee759027f6",
        "meta": {
          "profile": [
            "http://hl7.eu/fhir/eps/StructureDefinition/MedicationStatement-eu-eps"
          ]
        },
        "effectivePeriod": {
          "start": "2025-07-15"
        },
        "dosage": [
          {
            "doseAndRate": [
              {
                "doseQuantity": {
                  "value": 1,
                  "unit": "{tbl}",
                  "code": "{tbl}"
                }
              }
            ],
            "timing": {
              "repeat": {
                "frequency": 1,
                "period": 1,
                "periodUnit": "d"
              }
            },
            "text": "1 tablet (10 mg) by mouth once daily",
            "asNeededBoolean": false
          }
        ],
        "reasonCode": [
          {
            "coding": [
              {
                "code": "55822004",
                "system": "http://snomed.info/sct",
                "display": "Hyperlipidemia"
              }
            ]
          }
        ],
        "text": {
          "status": "generated",
          "div": "<div xmlns=\"http://www.w3.org/1999/xhtml\"><table class=\"hl7__ips first25\"><tr><th>Medication</th><th>Since</th><th>Form</th><th>Dosage</th><th>Reason</th></tr><tr><td>Simvastatin 10 mg oral tablet</td><td><span class=\"nb\">2025-07-15</span></td><td>-</td><td>1 tablet (10 mg) by mouth once daily</td><td>Hyperlipidemia</td></tr></table></div>"
        },
        "status": "active",
        "medicationReference": {
          "reference": "urn:uuid:ed3e51bf-a301-4c45-bdfb-12b722331093",
          "display": "Simvastatin 10 mg oral tablet"
        },
        "subject": {
          "reference": "urn:uuid:62480d3b-bc3e-44b2-b530-29d3c4027acb",
          "display": "Meaghan Neary"
        }
      }
    },
    {
      "fullUrl": "urn:uuid:725536c6-9a86-45ad-abad-d49c8a7373e0",
      "resource": {
        "resourceType": "Medication",
        "id": "725536c6-9a86-45ad-abad-d49c8a7373e0",
        "meta": {
          "profile": [
            "http://hl7.eu/fhir/eps/StructureDefinition/Medication-eu-eps"
          ]
        },
        "code": {
          "coding": [
            {
              "code": "106892",
              "system": "http://www.nlm.nih.gov/research/umls/rxnorm",
              "display": "insulin isophane  human 70 UNT/ML / insulin  regular  human 30 UNT/ML Injectable Suspension [Humulin]"
            }
          ],
          "text": "insulin isophane  human 70 UNT/ML / insulin  regular  human 30 UNT/ML Injectable Suspension [Humulin]"
        },
        "text": {
          "status": "generated",
          "div": "<div xmlns=\"http://www.w3.org/1999/xhtml\">insulin isophane human 70 UNT/ML / insulin regular human 30 UNT/ML Injectable Suspension [Humulin]</div>"
        }
      }
    },
    {
      "fullUrl": "urn:uuid:48246013-cc4e-4cdc-9a56-4558607678cc",
      "resource": {
        "resourceType": "MedicationStatement",
        "id": "48246013-cc4e-4cdc-9a56-4558607678cc",
        "meta": {
          "profile": [
            "http://hl7.eu/fhir/eps/StructureDefinition/MedicationStatement-eu-eps"
          ]
        },
        "effectivePeriod": {
          "start": "2025-06-16"
        },
        "dosage": [
          {
            "doseAndRate": [
              {
                "doseQuantity": {
                  "value": 10,
                  "unit": "U",
                  "system": "$ucum",
                  "code": "U"
                }
              }
            ],
            "timing": {
              "repeat": {
                "frequency": 2,
                "period": 1,
                "periodUnit": "d"
              }
            },
            "text": "10 units subcutaneously twice daily before breakfast and dinner",
            "asNeededBoolean": false
          }
        ],
        "reasonCode": [
          {
            "coding": [
              {
                "code": "15777000",
                "system": "http://snomed.info/sct",
                "display": "Prediabetes"
              }
            ]
          }
        ],
        "text": {
          "status": "generated",
          "div": "<div xmlns=\"http://www.w3.org/1999/xhtml\"><table class=\"hl7__ips first25\"><tr><th>Medication</th><th>Since</th><th>Form</th><th>Dosage</th><th>Reason</th></tr><tr><td>insulin isophane human 70 UNT/ML / insulin regular human 30 UNT/ML Injectable Suspension [Humulin]</td><td><span class=\"nb\">2025-06-16</span></td><td>-</td><td>10 units subcutaneously twice daily before breakfast and dinner</td><td>Prediabetes</td></tr></table></div>"
        },
        "status": "active",
        "medicationReference": {
          "reference": "urn:uuid:725536c6-9a86-45ad-abad-d49c8a7373e0",
          "display": "insulin isophane  human 70 UNT/ML / insulin  regular  human 30 UNT/ML Injectable Suspension [Humulin]"
        },
        "subject": {
          "reference": "urn:uuid:62480d3b-bc3e-44b2-b530-29d3c4027acb",
          "display": "Meaghan Neary"
        }
      }
    },
    {
      "fullUrl": "urn:uuid:19aa8297-6189-4e53-8a26-76d12d60432b",
      "resource": {
        "resourceType": "Medication",
        "id": "19aa8297-6189-4e53-8a26-76d12d60432b",
        "meta": {
          "profile": [
            "http://hl7.eu/fhir/eps/StructureDefinition/Medication-eu-eps"
          ]
        },
        "code": {
          "coding": [
            {
              "code": "1153431000",
              "system": "http://snomed.info/sct",
              "display": "Amlodipine (as amlodipine besylate) 2.5 mg oral tablet"
            }
          ],
          "text": "Amlodipine (as amlodipine besylate) 2.5 mg oral tablet"
        },
        "text": {
          "status": "generated",
          "div": "<div xmlns=\"http://www.w3.org/1999/xhtml\">Amlodipine (as amlodipine besylate) 2.5 mg oral tablet</div>"
        }
      }
    },
    {
      "fullUrl": "urn:uuid:38f277be-4de0-4612-99ce-420fefbb7691",
      "resource": {
        "resourceType": "MedicationStatement",
        "id": "38f277be-4de0-4612-99ce-420fefbb7691",
        "meta": {
          "profile": [
            "http://hl7.eu/fhir/eps/StructureDefinition/MedicationStatement-eu-eps"
          ]
        },
        "effectivePeriod": {
          "start": "2025-06-16"
        },
        "dosage": [
          {
            "doseAndRate": [
              {
                "doseQuantity": {
                  "value": 1,
                  "unit": "{tbl}",
                  "code": "{tbl}"
                }
              }
            ],
            "timing": {
              "repeat": {
                "frequency": 1,
                "period": 1,
                "periodUnit": "d"
              }
            },
            "text": "1 tablet (2.5 mg) by mouth once daily",
            "asNeededBoolean": false
          }
        ],
        "reasonCode": [
          {
            "coding": [
              {
                "code": "59621000",
                "system": "http://snomed.info/sct",
                "display": "Essential hypertension (disorder)"
              }
            ]
          }
        ],
        "text": {
          "status": "generated",
          "div": "<div xmlns=\"http://www.w3.org/1999/xhtml\"><table class=\"hl7__ips first25\"><tr><th>Medication</th><th>Since</th><th>Form</th><th>Dosage</th><th>Reason</th></tr><tr><td>Amlodipine (as amlodipine besylate) 2.5 mg oral tablet</td><td><span class=\"nb\">2025-06-16</span></td><td>-</td><td>1 tablet (2.5 mg) by mouth once daily</td><td>Essential hypertension (disorder)</td></tr></table></div>"
        },
        "status": "active",
        "medicationReference": {
          "reference": "urn:uuid:19aa8297-6189-4e53-8a26-76d12d60432b",
          "display": "Amlodipine (as amlodipine besylate) 2.5 mg oral tablet"
        },
        "subject": {
          "reference": "urn:uuid:62480d3b-bc3e-44b2-b530-29d3c4027acb",
          "display": "Meaghan Neary"
        }
      }
    },
    {
      "fullUrl": "urn:uuid:e6f6fb0d-e43a-4d8c-a980-245eb12874f2",
      "resource": {
        "resourceType": "Medication",
        "id": "e6f6fb0d-e43a-4d8c-a980-245eb12874f2",
        "meta": {
          "profile": [
            "http://hl7.eu/fhir/eps/StructureDefinition/Medication-eu-eps"
          ]
        },
        "code": {
          "coding": [
            {
              "code": "2001499",
              "system": "http://www.nlm.nih.gov/research/umls/rxnorm",
              "display": "Vitamin B12 5 MG/ML Injectable Solution"
            }
          ],
          "text": "Vitamin B12 5 MG/ML Injectable Solution"
        },
        "text": {
          "status": "generated",
          "div": "<div xmlns=\"http://www.w3.org/1999/xhtml\">Vitamin B12 5 MG/ML Injectable Solution</div>"
        }
      }
    },
    {
      "fullUrl": "urn:uuid:551dc2c7-5bbc-4313-87d7-915beeea5c94",
      "resource": {
        "resourceType": "MedicationStatement",
        "id": "551dc2c7-5bbc-4313-87d7-915beeea5c94",
        "meta": {
          "profile": [
            "http://hl7.eu/fhir/eps/StructureDefinition/MedicationStatement-eu-eps"
          ]
        },
        "effectivePeriod": {
          "start": "1997-06-02"
        },
        "dosage": [
          {
            "doseAndRate": [
              {
                "doseQuantity": {
                  "value": 1,
                  "unit": "mL",
                  "code": "mL"
                }
              }
            ],
            "timing": {
              "repeat": {
                "frequency": 1,
                "period": 1,
                "periodUnit": "wk"
              }
            },
            "text": "5 mg (1 mL) intramuscularly once weekly",
            "asNeededBoolean": false
          }
        ],
        "text": {
          "status": "generated",
          "div": "<div xmlns=\"http://www.w3.org/1999/xhtml\"><table class=\"hl7__ips first25\"><tr><th>Medication</th><th>Since</th><th>Form</th><th>Dosage</th><th>Reason</th></tr><tr><td>Vitamin B12 5 MG/ML Injectable Solution</td><td><span class=\"nb\">1997-06-02</span></td><td>-</td><td>5 mg (1 mL) intramuscularly once weekly</td><td>-</td></tr></table></div>"
        },
        "status": "active",
        "medicationReference": {
          "reference": "urn:uuid:e6f6fb0d-e43a-4d8c-a980-245eb12874f2",
          "display": "Vitamin B12 5 MG/ML Injectable Solution"
        },
        "subject": {
          "reference": "urn:uuid:62480d3b-bc3e-44b2-b530-29d3c4027acb",
          "display": "Meaghan Neary"
        }
      }
    },
    {
      "fullUrl": "urn:uuid:85fc889e-2f86-43e4-8667-de8fa3935525",
      "resource": {
        "resourceType": "Immunization",
        "id": "85fc889e-2f86-43e4-8667-de8fa3935525",
        "meta": {
          "profile": [
            "http://hl7.org/fhir/uv/ips/StructureDefinition/Immunization-uv-ips"
          ]
        },
        "vaccineCode": {
          "coding": [
            {
              "code": "1181000221105",
              "system": "http://snomed.info/sct",
              "display": "Vaccine product containing Influenza virus antigen"
            },
            {
              "code": "J07BB02",
              "system": "http://www.whocc.no/atc",
              "display": "Influenza, inactivated, split virus"
            }
          ],
          "text": "Influenza virus antigen only vaccine product"
        },
        "site": {
          "coding": [
            {
              "code": "244979005",
              "system": "http://snomed.info/sct",
              "display": "Entire muscle of upper arm"
            }
          ],
          "text": "Entire muscle of upper arm"
        },
        "route": {
          "coding": [
            {
              "code": "78421000",
              "system": "http://snomed.info/sct",
              "display": "Intramuscular route"
            }
          ],
          "text": "Intramuscular route"
        },
        "text": {
          "status": "generated",
          "div": "<div xmlns=\"http://www.w3.org/1999/xhtml\"><table class=\"hl7__ips\"><tr><td>Influenza virus antigen only vaccine product</td><td><span class=\"nb\">28-Apr-2025</span></td></tr></table></div>"
        },
        "status": "completed",
        "patient": {
          "reference": "urn:uuid:62480d3b-bc3e-44b2-b530-29d3c4027acb",
          "display": "Meaghan Neary"
        },
        "occurrenceDateTime": "2025-04-28",
        "lotNumber": "NJ-paacqb3vF",
        "expirationDate": "2025-10-20"
      }
    },
    {
      "fullUrl": "urn:uuid:85cb1070-a425-44f1-9955-6cddae3139c6",
      "resource": {
        "resourceType": "Immunization",
        "id": "85cb1070-a425-44f1-9955-6cddae3139c6",
        "meta": {
          "profile": [
            "http://hl7.org/fhir/uv/ips/StructureDefinition/Immunization-uv-ips"
          ]
        },
        "vaccineCode": {
          "coding": [
            {
              "code": "1252709000",
              "system": "http://snomed.info/sct",
              "display": "Vaccine product containing Streptococcus pneumoniae capsular polysaccharide antigens conjugated"
            },
            {
              "code": "J07AL01",
              "system": "http://www.whocc.no/atc",
              "display": "Pneumococcal polysaccharide vaccines"
            }
          ],
          "text": "Streptococcus pneumoniae Danish serotype 1"
        },
        "site": {
          "coding": [
            {
              "code": "244979005",
              "system": "http://snomed.info/sct",
              "display": "Entire muscle of upper arm"
            }
          ],
          "text": "Entire muscle of upper arm"
        },
        "route": {
          "coding": [
            {
              "code": "78421000",
              "system": "http://snomed.info/sct",
              "display": "Intramuscular route"
            }
          ],
          "text": "Intramuscular route"
        },
        "text": {
          "status": "generated",
          "div": "<div xmlns=\"http://www.w3.org/1999/xhtml\"><table class=\"hl7__ips\"><tr><td>Streptococcus pneumoniae Danish serotype 1</td><td><span class=\"nb\">21-Oct-2024</span></td></tr></table></div>"
        },
        "status": "completed",
        "patient": {
          "reference": "urn:uuid:62480d3b-bc3e-44b2-b530-29d3c4027acb",
          "display": "Meaghan Neary"
        },
        "occurrenceDateTime": "2024-10-21",
        "lotNumber": "MN-S10M",
        "expirationDate": "2025-01-04"
      }
    },
    {
      "fullUrl": "urn:uuid:ba7cc130-70eb-4498-9ed3-51556bc586c0",
      "resource": {
        "resourceType": "Immunization",
        "id": "ba7cc130-70eb-4498-9ed3-51556bc586c0",
        "meta": {
          "profile": [
            "http://hl7.org/fhir/uv/ips/StructureDefinition/Immunization-uv-ips"
          ]
        },
        "vaccineCode": {
          "coding": [
            {
              "code": "51451000087105",
              "system": "http://snomed.info/sct",
              "display": "Vaccine product containing Streptococcus pneumoniae capsular polysaccharide antigens conjugated"
            },
            {
              "code": "J07AL02",
              "system": "http://www.whocc.no/atc",
              "display": "Pneumococcal conjugate vaccines"
            }
          ],
          "text": "Streptococcus pneumoniae Danish serotype 1"
        },
        "site": {
          "coding": [
            {
              "code": "244979005",
              "system": "http://snomed.info/sct",
              "display": "Entire muscle of upper arm"
            }
          ],
          "text": "Entire muscle of upper arm"
        },
        "route": {
          "coding": [
            {
              "code": "78421000",
              "system": "http://snomed.info/sct",
              "display": "Intramuscular route"
            }
          ],
          "text": "Intramuscular route"
        },
        "text": {
          "status": "generated",
          "div": "<div xmlns=\"http://www.w3.org/1999/xhtml\"><table class=\"hl7__ips\"><tr><td>Streptococcus pneumoniae Danish serotype 1</td><td><span class=\"nb\">11-Dec-2023</span></td></tr></table></div>"
        },
        "status": "completed",
        "patient": {
          "reference": "urn:uuid:62480d3b-bc3e-44b2-b530-29d3c4027acb",
          "display": "Meaghan Neary"
        },
        "occurrenceDateTime": "2023-12-11",
        "lotNumber": "DL-T1WD",
        "expirationDate": "2024-06-08"
      }
    },
    {
      "fullUrl": "urn:uuid:00a86d54-4c10-46b4-a5f2-481dcca9f927",
      "resource": {
        "resourceType": "Immunization",
        "id": "00a86d54-4c10-46b4-a5f2-481dcca9f927",
        "meta": {
          "profile": [
            "http://hl7.org/fhir/uv/ips/StructureDefinition/Immunization-uv-ips"
          ]
        },
        "vaccineCode": {
          "coding": [
            {
              "code": "1119349007",
              "system": "http://snomed.info/sct",
              "display": "Vaccine product containing SARS-CoV-2 mRNA"
            },
            {
              "code": "J07BX03",
              "system": "http://www.whocc.no/atc",
              "display": "COVID-19 mRNA vaccines"
            }
          ],
          "text": "SARS-CoV-2 mRNA vaccine"
        },
        "site": {
          "coding": [
            {
              "code": "244979005",
              "system": "http://snomed.info/sct",
              "display": "Entire muscle of upper arm"
            }
          ],
          "text": "Entire muscle of upper arm"
        },
        "route": {
          "coding": [
            {
              "code": "78421000",
              "system": "http://snomed.info/sct",
              "display": "Intramuscular route"
            }
          ],
          "text": "Intramuscular route"
        },
        "text": {
          "status": "generated",
          "div": "<div xmlns=\"http://www.w3.org/1999/xhtml\"><table class=\"hl7__ips\"><tr><td>SARS-CoV-2 mRNA vaccine</td><td><span class=\"nb\">20-Dec-2021</span></td></tr></table></div>"
        },
        "status": "completed",
        "patient": {
          "reference": "urn:uuid:62480d3b-bc3e-44b2-b530-29d3c4027acb",
          "display": "Meaghan Neary"
        },
        "occurrenceDateTime": "2021-12-20",
        "lotNumber": "ND-cKuyAFI9",
        "expirationDate": "2022-02-19"
      }
    },
    {
      "fullUrl": "urn:uuid:7114f937-f18a-4fb1-a3c8-332ad113256e",
      "resource": {
        "resourceType": "Immunization",
        "id": "7114f937-f18a-4fb1-a3c8-332ad113256e",
        "meta": {
          "profile": [
            "http://hl7.org/fhir/uv/ips/StructureDefinition/Immunization-uv-ips"
          ]
        },
        "vaccineCode": {
          "coding": [
            {
              "code": "777725002",
              "system": "http://snomed.info/sct",
              "display": "Vaccine product containing only Clostridium tetani toxoid antigen adsorbed"
            },
            {
              "code": "J07AM51",
              "system": "http://www.whocc.no/atc",
              "display": "Diphtheria-tetanus vaccines, adult type"
            }
          ],
          "text": "Clostridium tetani toxoid antigen adsorbed only vaccine product"
        },
        "site": {
          "coding": [
            {
              "code": "244979005",
              "system": "http://snomed.info/sct",
              "display": "Entire muscle of upper arm"
            }
          ],
          "text": "Entire muscle of upper arm"
        },
        "route": {
          "coding": [
            {
              "code": "78421000",
              "system": "http://snomed.info/sct",
              "display": "Intramuscular route"
            }
          ],
          "text": "Intramuscular route"
        },
        "text": {
          "status": "generated",
          "div": "<div xmlns=\"http://www.w3.org/1999/xhtml\"><table class=\"hl7__ips\"><tr><td>Clostridium tetani toxoid antigen adsorbed only vaccine product</td><td><span class=\"nb\">30-Sep-2019</span></td></tr></table></div>"
        },
        "status": "completed",
        "patient": {
          "reference": "urn:uuid:62480d3b-bc3e-44b2-b530-29d3c4027acb",
          "display": "Meaghan Neary"
        },
        "occurrenceDateTime": "2019-09-30",
        "lotNumber": "YC-YEsMg",
        "expirationDate": "2020-09-29"
      }
    },
    {
      "fullUrl": "urn:uuid:00eb3c21-41ce-4ee7-8945-a6cc2c316064",
      "resource": {
        "resourceType": "Procedure",
        "id": "00eb3c21-41ce-4ee7-8945-a6cc2c316064",
        "meta": {
          "profile": [
            "http://hl7.org/fhir/uv/ips/StructureDefinition/Procedure-uv-ips"
          ]
        },
        "code": {
          "coding": [
            {
              "code": "171207006",
              "system": "http://snomed.info/sct",
              "display": "Depression screening (procedure)"
            }
          ],
          "text": "Depression screening"
        },
        "text": {
          "status": "generated",
          "div": "<div xmlns=\"http://www.w3.org/1999/xhtml\"><table class=\"hl7__ips\"><tr><td>Depression screening</td><td><span class=\"nb\">20-May-2025</span></td><td>-</td></tr></table></div>"
        },
        "status": "completed",
        "performedDateTime": "2025-05-20",
        "subject": {
          "reference": "urn:uuid:",
          "display": "Meaghan Neary"
        }
      }
    },
    {
      "fullUrl": "urn:uuid:52ba6ce5-aebf-4800-997d-585016ea4a33",
      "resource": {
        "resourceType": "Procedure",
        "id": "52ba6ce5-aebf-4800-997d-585016ea4a33",
        "meta": {
          "profile": [
            "http://hl7.org/fhir/uv/ips/StructureDefinition/Procedure-uv-ips"
          ]
        },
        "code": {
          "coding": [
            {
              "code": "866148006",
              "system": "http://snomed.info/sct",
              "display": "Screening for domestic abuse (procedure)"
            }
          ],
          "text": "Screening for domestic abuse"
        },
        "text": {
          "status": "generated",
          "div": "<div xmlns=\"http://www.w3.org/1999/xhtml\"><table class=\"hl7__ips\"><tr><td>Screening for domestic abuse</td><td><span class=\"nb\">20-May-2025</span></td><td>-</td></tr></table></div>"
        },
        "status": "completed",
        "performedDateTime": "2025-05-20",
        "subject": {
          "reference": "urn:uuid:",
          "display": "Meaghan Neary"
        }
      }
    },
    {
      "fullUrl": "urn:uuid:fb13f8fc-34af-4334-9bc0-d5a285f3ca02",
      "resource": {
        "resourceType": "Procedure",
        "id": "fb13f8fc-34af-4334-9bc0-d5a285f3ca02",
        "meta": {
          "profile": [
            "http://hl7.org/fhir/uv/ips/StructureDefinition/Procedure-uv-ips"
          ]
        },
        "code": {
          "coding": [
            {
              "code": "454711000124102",
              "system": "http://snomed.info/sct",
              "display": "Depression screening using Patient Health Questionnaire Two-Item score (procedure)"
            }
          ]
        },
        "text": {
          "status": "generated",
          "div": "<div xmlns=\"http://www.w3.org/1999/xhtml\"><table class=\"hl7__ips\"><tr><td>Depression screening using Patient Health Questionnaire Two-Item score (procedure)</td><td><span class=\"nb\">20-May-2025</span></td><td>-</td></tr></table></div>"
        },
        "status": "completed",
        "performedDateTime": "2025-05-20",
        "subject": {
          "reference": "urn:uuid:",
          "display": "Meaghan Neary"
        }
      }
    },
    {
      "fullUrl": "urn:uuid:1eb3bc60-7a3a-4379-8556-70215531e0a6",
      "resource": {
        "resourceType": "Procedure",
        "id": "1eb3bc60-7a3a-4379-8556-70215531e0a6",
        "meta": {
          "profile": [
            "http://hl7.org/fhir/uv/ips/StructureDefinition/Procedure-uv-ips"
          ]
        },
        "code": {
          "coding": [
            {
              "code": "710824005",
              "system": "http://snomed.info/sct",
              "display": "Assessment of health and social care needs (procedure)"
            }
          ],
          "text": "Assessment of health and social care needs"
        },
        "text": {
          "status": "generated",
          "div": "<div xmlns=\"http://www.w3.org/1999/xhtml\"><table class=\"hl7__ips\"><tr><td>Assessment of health and social care needs</td><td><span class=\"nb\">19-May-2025</span></td><td>-</td></tr></table></div>"
        },
        "status": "completed",
        "performedDateTime": "2025-05-19",
        "subject": {
          "reference": "urn:uuid:",
          "display": "Meaghan Neary"
        }
      }
    },
    {
      "fullUrl": "urn:uuid:922a4677-33b7-4c28-b893-3034a97966cc",
      "resource": {
        "resourceType": "Procedure",
        "id": "922a4677-33b7-4c28-b893-3034a97966cc",
        "meta": {
          "profile": [
            "http://hl7.org/fhir/uv/ips/StructureDefinition/Procedure-uv-ips"
          ]
        },
        "code": {
          "coding": [
            {
              "code": "710841007",
              "system": "http://snomed.info/sct",
              "display": "Assessment of anxiety (procedure)"
            }
          ],
          "text": "Assessment of anxiety"
        },
        "text": {
          "status": "generated",
          "div": "<div xmlns=\"http://www.w3.org/1999/xhtml\"><table class=\"hl7__ips\"><tr><td>Assessment of anxiety</td><td><span class=\"nb\">19-May-2025</span></td><td>-</td></tr></table></div>"
        },
        "status": "completed",
        "performedDateTime": "2025-05-19",
        "subject": {
          "reference": "urn:uuid:",
          "display": "Meaghan Neary"
        }
      }
    },
    {
      "fullUrl": "urn:uuid:19841749-c7e7-4ab5-b0d4-b33bac54eb61",
      "resource": {
        "resourceType": "Procedure",
        "id": "19841749-c7e7-4ab5-b0d4-b33bac54eb61",
        "meta": {
          "profile": [
            "http://hl7.org/fhir/uv/ips/StructureDefinition/Procedure-uv-ips"
          ]
        },
        "code": {
          "coding": [
            {
              "code": "762993000",
              "system": "http://snomed.info/sct",
              "display": "Assessment using Morse Fall Scale (procedure)"
            }
          ],
          "text": "Assessment using Morse Fall Scale"
        },
        "text": {
          "status": "generated",
          "div": "<div xmlns=\"http://www.w3.org/1999/xhtml\"><table class=\"hl7__ips\"><tr><td>Assessment using Morse Fall Scale</td><td><span class=\"nb\">19-May-2025</span></td><td>-</td></tr></table></div>"
        },
        "status": "completed",
        "performedDateTime": "2025-05-19",
        "subject": {
          "reference": "urn:uuid:",
          "display": "Meaghan Neary"
        }
      }
    },
    {
      "fullUrl": "urn:uuid:c1f913f3-ea4e-4ac4-9ee7-80db359862ee",
      "resource": {
        "resourceType": "Procedure",
        "id": "c1f913f3-ea4e-4ac4-9ee7-80db359862ee",
        "meta": {
          "profile": [
            "http://hl7.org/fhir/uv/ips/StructureDefinition/Procedure-uv-ips"
          ]
        },
        "code": {
          "coding": [
            {
              "code": "763302001",
              "system": "http://snomed.info/sct",
              "display": "Assessment using Alcohol Use Disorders Identification Test - Consumption (procedure)"
            }
          ],
          "text": "Assessment using AUDIT-C (Alcohol Use Disorders Identification Test - Consumption)"
        },
        "text": {
          "status": "generated",
          "div": "<div xmlns=\"http://www.w3.org/1999/xhtml\"><table class=\"hl7__ips\"><tr><td>Assessment using AUDIT-C (Alcohol Use Disorders Identification Test - Consumption)</td><td><span class=\"nb\">18-Mar-2025</span></td><td>-</td></tr></table></div>"
        },
        "status": "completed",
        "performedDateTime": "2025-03-18",
        "subject": {
          "reference": "urn:uuid:",
          "display": "Meaghan Neary"
        }
      }
    },
    {
      "fullUrl": "urn:uuid:242893db-4922-4b21-996e-5b5b66d0257a",
      "resource": {
        "resourceType": "Procedure",
        "id": "242893db-4922-4b21-996e-5b5b66d0257a",
        "meta": {
          "profile": [
            "http://hl7.org/fhir/uv/ips/StructureDefinition/Procedure-uv-ips"
          ]
        },
        "code": {
          "coding": [
            {
              "code": "428211000124100",
              "system": "http://snomed.info/sct",
              "display": "Assessment of substance use (procedure)"
            }
          ],
          "text": "Assessment of substance use"
        },
        "text": {
          "status": "generated",
          "div": "<div xmlns=\"http://www.w3.org/1999/xhtml\"><table class=\"hl7__ips\"><tr><td>Assessment of substance use</td><td><span class=\"nb\">18-Mar-2025</span></td><td>-</td></tr></table></div>"
        },
        "status": "completed",
        "performedDateTime": "2025-03-18",
        "subject": {
          "reference": "urn:uuid:",
          "display": "Meaghan Neary"
        }
      }
    },
    {
      "fullUrl": "urn:uuid:d31bb2d5-a970-40cd-b6cf-b8c629d7fdeb",
      "resource": {
        "resourceType": "Procedure",
        "id": "d31bb2d5-a970-40cd-b6cf-b8c629d7fdeb",
        "meta": {
          "profile": [
            "http://hl7.org/fhir/uv/ips/StructureDefinition/Procedure-uv-ips"
          ]
        },
        "code": {
          "coding": [
            {
              "code": "430193006",
              "system": "http://snomed.info/sct",
              "display": "Medication Reconciliation (procedure)"
            }
          ],
          "text": "Medication reconciliation"
        },
        "text": {
          "status": "generated",
          "div": "<div xmlns=\"http://www.w3.org/1999/xhtml\"><table class=\"hl7__ips\"><tr><td>Medication reconciliation</td><td><span class=\"nb\">17-Mar-2025</span></td><td>-</td></tr></table></div>"
        },
        "status": "completed",
        "performedDateTime": "2025-03-17",
        "subject": {
          "reference": "urn:uuid:",
          "display": "Meaghan Neary"
        }
      }
    },
    {
      "fullUrl": "urn:uuid:cb80ce16-c403-426c-9c17-19305d356d54",
      "resource": {
        "resourceType": "Procedure",
        "id": "cb80ce16-c403-426c-9c17-19305d356d54",
        "meta": {
          "profile": [
            "http://hl7.org/fhir/uv/ips/StructureDefinition/Procedure-uv-ips"
          ]
        },
        "code": {
          "coding": [
            {
              "code": "713106006",
              "system": "http://snomed.info/sct",
              "display": "Screening for drug abuse (procedure)"
            }
          ],
          "text": "Screening for drug abuse"
        },
        "text": {
          "status": "generated",
          "div": "<div xmlns=\"http://www.w3.org/1999/xhtml\"><table class=\"hl7__ips\"><tr><td>Screening for drug abuse</td><td><span class=\"nb\">21-May-2024</span></td><td>-</td></tr></table></div>"
        },
        "status": "completed",
        "performedDateTime": "2024-05-21",
        "subject": {
          "reference": "urn:uuid:",
          "display": "Meaghan Neary"
        }
      }
    },
    {
      "fullUrl": "urn:uuid:0842d51b-2b96-400e-9419-aa7ec848919f",
      "resource": {
        "resourceType": "Procedure",
        "id": "0842d51b-2b96-400e-9419-aa7ec848919f",
        "meta": {
          "profile": [
            "http://hl7.org/fhir/uv/ips/StructureDefinition/Procedure-uv-ips"
          ]
        },
        "code": {
          "coding": [
            {
              "code": "225386006",
              "system": "http://snomed.info/sct",
              "display": "Pre-discharge assessment (procedure)"
            }
          ],
          "text": "Pre-discharge assessment"
        },
        "text": {
          "status": "generated",
          "div": "<div xmlns=\"http://www.w3.org/1999/xhtml\"><table class=\"hl7__ips\"><tr><td>Pre-discharge assessment</td><td><span class=\"nb\">01-Dec-2023</span></td><td>-</td></tr></table></div>"
        },
        "status": "completed",
        "performedDateTime": "2023-12-01",
        "subject": {
          "reference": "urn:uuid:",
          "display": "Meaghan Neary"
        }
      }
    },
    {
      "fullUrl": "urn:uuid:df359677-26a5-4a09-88b8-8e8165d5582f",
      "resource": {
        "resourceType": "Procedure",
        "id": "df359677-26a5-4a09-88b8-8e8165d5582f",
        "meta": {
          "profile": [
            "http://hl7.org/fhir/uv/ips/StructureDefinition/Procedure-uv-ips"
          ]
        },
        "code": {
          "coding": [
            {
              "code": "449381000124108",
              "system": "http://snomed.info/sct",
              "display": "Discharge from skilled nursing facility (procedure)"
            }
          ]
        },
        "text": {
          "status": "generated",
          "div": "<div xmlns=\"http://www.w3.org/1999/xhtml\"><table class=\"hl7__ips\"><tr><td>Discharge from skilled nursing facility (procedure)</td><td><span class=\"nb\">01-Dec-2023</span></td><td>-</td></tr></table></div>"
        },
        "status": "completed",
        "performedDateTime": "2023-12-01",
        "subject": {
          "reference": "urn:uuid:",
          "display": "Meaghan Neary"
        }
      }
    },
    {
      "fullUrl": "urn:uuid:95bb45b6-31e8-4bbe-b142-3a966dd52a4e",
      "resource": {
        "resourceType": "Procedure",
        "id": "95bb45b6-31e8-4bbe-b142-3a966dd52a4e",
        "meta": {
          "profile": [
            "http://hl7.org/fhir/uv/ips/StructureDefinition/Procedure-uv-ips"
          ]
        },
        "code": {
          "coding": [
            {
              "code": "410401003",
              "system": "http://snomed.info/sct",
              "display": "Nursing care/supplementary surveillance (regime/therapy)"
            }
          ],
          "text": "Nursing care/supplementary surveillance"
        },
        "text": {
          "status": "generated",
          "div": "<div xmlns=\"http://www.w3.org/1999/xhtml\"><table class=\"hl7__ips\"><tr><td>Nursing care/supplementary surveillance</td><td><span class=\"nb\">30-Nov-2023</span></td><td>-</td></tr></table></div>"
        },
        "status": "completed",
        "performedDateTime": "2023-11-30",
        "subject": {
          "reference": "urn:uuid:",
          "display": "Meaghan Neary"
        }
      }
    },
    {
      "fullUrl": "urn:uuid:ab5cf4ca-96fd-4154-ad82-e4505cd8fbcd",
      "resource": {
        "resourceType": "Procedure",
        "id": "ab5cf4ca-96fd-4154-ad82-e4505cd8fbcd",
        "meta": {
          "profile": [
            "http://hl7.org/fhir/uv/ips/StructureDefinition/Procedure-uv-ips"
          ]
        },
        "code": {
          "coding": [
            {
              "code": "84478008",
              "system": "http://snomed.info/sct",
              "display": "Occupational therapy (regime/therapy)"
            }
          ],
          "text": "Occupational therapy"
        },
        "text": {
          "status": "generated",
          "div": "<div xmlns=\"http://www.w3.org/1999/xhtml\"><table class=\"hl7__ips\"><tr><td>Occupational therapy</td><td><span class=\"nb\">29-Nov-2023</span></td><td>-</td></tr></table></div>"
        },
        "status": "completed",
        "performedDateTime": "2023-11-29",
        "subject": {
          "reference": "urn:uuid:",
          "display": "Meaghan Neary"
        }
      }
    },
    {
      "fullUrl": "urn:uuid:5e5da5f7-fd0f-4a29-9210-b4fd2ea070f8",
      "resource": {
        "resourceType": "Procedure",
        "id": "5e5da5f7-fd0f-4a29-9210-b4fd2ea070f8",
        "meta": {
          "profile": [
            "http://hl7.org/fhir/uv/ips/StructureDefinition/Procedure-uv-ips"
          ]
        },
        "code": {
          "coding": [
            {
              "code": "409023009",
              "system": "http://snomed.info/sct",
              "display": "Professional / ancillary services care (regime/therapy)"
            }
          ],
          "text": "Professional / ancillary services care"
        },
        "text": {
          "status": "generated",
          "div": "<div xmlns=\"http://www.w3.org/1999/xhtml\"><table class=\"hl7__ips\"><tr><td>Professional / ancillary services care</td><td><span class=\"nb\">22-Nov-2023</span></td><td>-</td></tr></table></div>"
        },
        "status": "completed",
        "performedDateTime": "2023-11-22",
        "subject": {
          "reference": "urn:uuid:",
          "display": "Meaghan Neary"
        }
      }
    },
    {
      "fullUrl": "urn:uuid:d3b543a8-9478-4a37-9e7d-a5733122b387",
      "resource": {
        "resourceType": "Procedure",
        "id": "d3b543a8-9478-4a37-9e7d-a5733122b387",
        "meta": {
          "profile": [
            "http://hl7.org/fhir/uv/ips/StructureDefinition/Procedure-uv-ips"
          ]
        },
        "code": {
          "coding": [
            {
              "code": "91251008",
              "system": "http://snomed.info/sct",
              "display": "Physical therapy procedure (regime/therapy)"
            }
          ],
          "text": "Physical therapy procedure"
        },
        "text": {
          "status": "generated",
          "div": "<div xmlns=\"http://www.w3.org/1999/xhtml\"><table class=\"hl7__ips\"><tr><td>Physical therapy procedure</td><td><span class=\"nb\">18-Nov-2023</span></td><td>-</td></tr></table></div>"
        },
        "status": "completed",
        "performedDateTime": "2023-11-18",
        "subject": {
          "reference": "urn:uuid:",
          "display": "Meaghan Neary"
        }
      }
    },
    {
      "fullUrl": "urn:uuid:cf7099ea-ee87-4dcc-a853-979969eedd0c",
      "resource": {
        "resourceType": "Procedure",
        "id": "cf7099ea-ee87-4dcc-a853-979969eedd0c",
        "meta": {
          "profile": [
            "http://hl7.org/fhir/uv/ips/StructureDefinition/Procedure-uv-ips"
          ]
        },
        "code": {
          "coding": [
            {
              "code": "311555007",
              "system": "http://snomed.info/sct",
              "display": "Speech and language therapy regime (regime/therapy)"
            }
          ],
          "text": "Speech and language therapy regime"
        },
        "text": {
          "status": "generated",
          "div": "<div xmlns=\"http://www.w3.org/1999/xhtml\"><table class=\"hl7__ips\"><tr><td>Speech and language therapy regime</td><td><span class=\"nb\">31-Oct-2023</span></td><td>-</td></tr></table></div>"
        },
        "status": "completed",
        "performedDateTime": "2023-10-31",
        "subject": {
          "reference": "urn:uuid:",
          "display": "Meaghan Neary"
        }
      }
    },
    {
      "fullUrl": "urn:uuid:b80d0e7c-6f91-424e-8a80-994f968ed197",
      "resource": {
        "resourceType": "Procedure",
        "id": "b80d0e7c-6f91-424e-8a80-994f968ed197",
        "meta": {
          "profile": [
            "http://hl7.org/fhir/uv/ips/StructureDefinition/Procedure-uv-ips"
          ]
        },
        "code": {
          "coding": [
            {
              "code": "392091000",
              "system": "http://snomed.info/sct",
              "display": "Care regimes assessment (procedure)"
            }
          ],
          "text": "Care regimes assessment"
        },
        "text": {
          "status": "generated",
          "div": "<div xmlns=\"http://www.w3.org/1999/xhtml\"><table class=\"hl7__ips\"><tr><td>Care regimes assessment</td><td><span class=\"nb\">23-Oct-2023</span></td><td>-</td></tr></table></div>"
        },
        "status": "completed",
        "performedDateTime": "2023-10-23",
        "subject": {
          "reference": "urn:uuid:",
          "display": "Meaghan Neary"
        }
      }
    },
    {
      "fullUrl": "urn:uuid:e261883e-8a8f-4af2-8e6b-055030db1f33",
      "resource": {
        "resourceType": "Procedure",
        "id": "e261883e-8a8f-4af2-8e6b-055030db1f33",
        "meta": {
          "profile": [
            "http://hl7.org/fhir/uv/ips/StructureDefinition/Procedure-uv-ips"
          ]
        },
        "code": {
          "coding": [
            {
              "code": "63332003",
              "system": "http://snomed.info/sct",
              "display": "History AND physical examination (procedure)"
            }
          ],
          "text": "History AND physical examination"
        },
        "text": {
          "status": "generated",
          "div": "<div xmlns=\"http://www.w3.org/1999/xhtml\"><table class=\"hl7__ips\"><tr><td>History AND physical examination</td><td><span class=\"nb\">02-Oct-2023</span></td><td>-</td></tr></table></div>"
        },
        "status": "completed",
        "performedDateTime": "2023-10-02",
        "subject": {
          "reference": "urn:uuid:",
          "display": "Meaghan Neary"
        }
      }
    },
    {
      "fullUrl": "urn:uuid:58672db7-f8b5-4b25-8350-7b4f87c7217b",
      "resource": {
        "resourceType": "Procedure",
        "id": "58672db7-f8b5-4b25-8350-7b4f87c7217b",
        "meta": {
          "profile": [
            "http://hl7.org/fhir/uv/ips/StructureDefinition/Procedure-uv-ips"
          ]
        },
        "code": {
          "coding": [
            {
              "code": "315639002",
              "system": "http://snomed.info/sct",
              "display": "Initial patient assessment (procedure)"
            }
          ],
          "text": "Initial patient assessment"
        },
        "text": {
          "status": "generated",
          "div": "<div xmlns=\"http://www.w3.org/1999/xhtml\"><table class=\"hl7__ips\"><tr><td>Initial patient assessment</td><td><span class=\"nb\">02-Oct-2023</span></td><td>-</td></tr></table></div>"
        },
        "status": "completed",
        "performedDateTime": "2023-10-02",
        "subject": {
          "reference": "urn:uuid:",
          "display": "Meaghan Neary"
        }
      }
    },
    {
      "fullUrl": "urn:uuid:21a394ac-99ec-4ef3-b672-fbac84bc0ec7",
      "resource": {
        "resourceType": "Procedure",
        "id": "21a394ac-99ec-4ef3-b672-fbac84bc0ec7",
        "meta": {
          "profile": [
            "http://hl7.org/fhir/uv/ips/StructureDefinition/Procedure-uv-ips"
          ]
        },
        "code": {
          "coding": [
            {
              "code": "370789001",
              "system": "http://snomed.info/sct",
              "display": "Development of individualized plan of care (procedure)"
            }
          ],
          "text": "Development of individualized plan of care"
        },
        "text": {
          "status": "generated",
          "div": "<div xmlns=\"http://www.w3.org/1999/xhtml\"><table class=\"hl7__ips\"><tr><td>Development of individualized plan of care</td><td><span class=\"nb\">02-Oct-2023</span></td><td>-</td></tr></table></div>"
        },
        "status": "completed",
        "performedDateTime": "2023-10-02",
        "subject": {
          "reference": "urn:uuid:",
          "display": "Meaghan Neary"
        }
      }
    },
    {
      "fullUrl": "urn:uuid:5dba8feb-a37f-485f-986c-8deee51dc868",
      "resource": {
        "resourceType": "Procedure",
        "id": "5dba8feb-a37f-485f-986c-8deee51dc868",
        "meta": {
          "profile": [
            "http://hl7.org/fhir/uv/ips/StructureDefinition/Procedure-uv-ips"
          ]
        },
        "code": {
          "coding": [
            {
              "code": "715252007",
              "system": "http://snomed.info/sct",
              "display": "Depression screening using Patient Health Questionnaire Nine Item score (procedure)"
            }
          ],
          "text": "Depression screening using PHQ-9 (Patient Health Questionnaire 9) score"
        },
        "text": {
          "status": "generated",
          "div": "<div xmlns=\"http://www.w3.org/1999/xhtml\"><table class=\"hl7__ips\"><tr><td>Depression screening using PHQ-9 (Patient Health Questionnaire 9) score</td><td><span class=\"nb\">19-Jul-2022</span></td><td>-</td></tr></table></div>"
        },
        "status": "completed",
        "performedDateTime": "2022-07-19",
        "subject": {
          "reference": "urn:uuid:",
          "display": "Meaghan Neary"
        }
      }
    },
    {
      "fullUrl": "urn:uuid:55d3a38f-51a2-45b3-817e-3e78b5c9936d",
      "resource": {
        "resourceType": "Procedure",
        "id": "55d3a38f-51a2-45b3-817e-3e78b5c9936d",
        "meta": {
          "profile": [
            "http://hl7.org/fhir/uv/ips/StructureDefinition/Procedure-uv-ips"
          ]
        },
        "code": {
          "coding": [
            {
              "code": "60027007",
              "system": "http://snomed.info/sct",
              "display": "Radiography of wrist (procedure)"
            }
          ],
          "text": "Radiography of wrist"
        },
        "text": {
          "status": "generated",
          "div": "<div xmlns=\"http://www.w3.org/1999/xhtml\"><table class=\"hl7__ips\"><tr><td>Radiography of wrist</td><td><span class=\"nb\">27-Dec-2015</span></td><td>-</td></tr></table></div>"
        },
        "status": "completed",
        "performedDateTime": "2015-12-27",
        "subject": {
          "reference": "urn:uuid:",
          "display": "Meaghan Neary"
        }
      }
    },
    {
      "fullUrl": "urn:uuid:e7812b1e-44d1-40d5-9cd2-b0ab75a112ce",
      "resource": {
        "resourceType": "Procedure",
        "id": "e7812b1e-44d1-40d5-9cd2-b0ab75a112ce",
        "meta": {
          "profile": [
            "http://hl7.org/fhir/uv/ips/StructureDefinition/Procedure-uv-ips"
          ]
        },
        "code": {
          "coding": [
            {
              "code": "274474001",
              "system": "http://snomed.info/sct",
              "display": "Bone immobilization"
            }
          ],
          "text": "Bone immobilization"
        },
        "reasonCode": [
          {
            "coding": [
              {
                "code": "263102004",
                "system": "http://snomed.info/sct",
                "display": "Fracture subluxation of wrist"
              }
            ]
          }
        ],
        "text": {
          "status": "generated",
          "div": "<div xmlns=\"http://www.w3.org/1999/xhtml\"><table class=\"hl7__ips\"><tr><td>Bone immobilization</td><td><span class=\"nb\">27-Dec-2015</span></td><td>Fracture subluxation of wrist</td></tr></table></div>"
        },
        "status": "completed",
        "performedDateTime": "2015-12-27",
        "subject": {
          "reference": "urn:uuid:",
          "display": "Meaghan Neary"
        }
      }
    },
    {
      "fullUrl": "urn:uuid:98f5e7d7-09cd-45e7-864e-0c69e107d122",
      "resource": {
        "resourceType": "Procedure",
        "id": "98f5e7d7-09cd-45e7-864e-0c69e107d122",
        "meta": {
          "profile": [
            "http://hl7.org/fhir/uv/ips/StructureDefinition/Procedure-uv-ips"
          ]
        },
        "code": {
          "coding": [
            {
              "code": "312681000",
              "system": "http://snomed.info/sct",
              "display": "Bone density scan (procedure)"
            }
          ],
          "text": "Bone density scan"
        },
        "reasonCode": [
          {
            "coding": [
              {
                "code": "263102004",
                "system": "http://snomed.info/sct",
                "display": "Fracture subluxation of wrist"
              }
            ]
          }
        ],
        "text": {
          "status": "generated",
          "div": "<div xmlns=\"http://www.w3.org/1999/xhtml\"><table class=\"hl7__ips\"><tr><td>Bone density scan</td><td><span class=\"nb\">27-Dec-2015</span></td><td>Fracture subluxation of wrist</td></tr></table></div>"
        },
        "status": "completed",
        "performedDateTime": "2015-12-27",
        "subject": {
          "reference": "urn:uuid:",
          "display": "Meaghan Neary"
        }
      }
    },
    {
      "fullUrl": "urn:uuid:7a1932c1-3f94-4682-a4d3-0b98d9a65345",
      "resource": {
        "resourceType": "AllergyIntolerance",
        "id": "7a1932c1-3f94-4682-a4d3-0b98d9a65345",
        "meta": {
          "profile": [
            "http://hl7.eu/fhir/eps/StructureDefinition/allergyIntolerance-eu-eps"
          ]
        },
        "code": {
          "text": ""
        },
        "clinicalStatus": {
          "coding": [
            {
              "code": "active",
              "system": "http://terminology.hl7.org/CodeSystem/allergyintolerance-clinical"
            }
          ]
        },
        "text": {
          "status": "generated",
          "div": "<div xmlns=\"http://www.w3.org/1999/xhtml\"><table class=\"hl7__ips\"><tr><th>Allergy/Intolerance</th><th>Onset Date</th><th>Status</th><th>Type</th><th>Reaction</th></tr><tr><td></td><td>?</td><td>active</td><td>?</td><td></td></tr></table></div>"
        },
        "verificationStatus": {
          "coding": [
            {
              "code": "confirmed",
              "system": "http://terminology.hl7.org/CodeSystem/allergyintolerance-verification"
            }
          ]
        },
        "patient": {
          "reference": "urn:uuid:62480d3b-bc3e-44b2-b530-29d3c4027acb",
          "display": "Meaghan Neary"
        },
        "_onsetDateTime": {
          "extension": [
            {
              "url": "http://hl7.org/fhir/StructureDefinition/data-absent-reason",
              "valueCode": "unknown"
            }
          ]
        }
      }
    },
    {
      "fullUrl": "urn:uuid:7cebd6aa-6731-4bb7-baf5-dff8ec656312",
      "resource": {
        "resourceType": "CarePlan",
        "id": "7cebd6aa-6731-4bb7-baf5-dff8ec656312",
        "category": [
          {
            "coding": [
              {
                "code": "assess-plan",
                "system": "http://terminology.hl7.org/CodeSystem/care-plan-category",
                "display": "Assessment and Plan"
              }
            ]
          }
        ],
        "activity": [
          {
            "detail": {
              "code": {
                "coding": [
                  {
                    "code": "736285004",
                    "system": "http://snomed.info/sct",
                    "display": "Hyperlipidemia clinical management plan (record artifact)"
                  }
                ]
              },
              "reasonCode": [
                {
                  "coding": [
                    {
                      "code": "55822004",
                      "system": "http://snomed.info/sct",
                      "display": "Hyperlipidemia"
                    }
                  ]
                }
              ],
              "status": "unknown",
              "description": "Hyperlipidemia clinical management plan",
              "kind": "Appointment"
            }
          }
        ],
        "period": {
          "start": "2024-07-16"
        },
        "goal": [
          {
            "reference": "urn:uuid:a29db360-d324-4a41-bc30-181437d9dc4f"
          },
          {
            "reference": "urn:uuid:663f357c-aec2-41a6-bd3f-32e1d32df7d1"
          },
          {
            "reference": "urn:uuid:844cfc91-6e2e-4624-be63-efbe47afd46e"
          },
          {
            "reference": "urn:uuid:4d5a3ff8-7ad6-46a0-9f23-fc9e855d97c4"
          }
        ],
        "text": {
          "status": "generated",
          "div": "<div xmlns=\"http://www.w3.org/1999/xhtml\"><table class=\"hl7__ips first25\"><tr><th>Active Planned Care / Goals</th><th>Start Date</th><th>Reason</th></tr><tr><td>Hyperlipidemia clinical management plan</td><td><span class=\"nb\">16-Jul-2024</span></td><td>Hyperlipidemia</td></tr><tr><td><ul><li>Reduce LDL cholesterol to target level</li><li>Reduce total cholesterol to target level</li><li>Reduce triglycerides to target level</li><li>Increase HDL cholesterol to target level</li></ul></td><td></td><td></td></tr></table></div>"
        },
        "status": "active",
        "intent": "plan",
        "subject": {
          "reference": "urn:uuid:62480d3b-bc3e-44b2-b530-29d3c4027acb",
          "display": "Meaghan Neary"
        }
      }
    },
    {
      "fullUrl": "urn:uuid:f2df7653-b4e3-4527-89b6-2518f7d45a32",
      "resource": {
        "resourceType": "CarePlan",
        "id": "f2df7653-b4e3-4527-89b6-2518f7d45a32",
        "category": [
          {
            "coding": [
              {
                "code": "assess-plan",
                "system": "http://terminology.hl7.org/CodeSystem/care-plan-category",
                "display": "Assessment and Plan"
              }
            ]
          }
        ],
        "activity": [
          {
            "detail": {
              "code": {
                "coding": [
                  {
                    "code": "698360004",
                    "system": "http://snomed.info/sct",
                    "display": "Diabetes self management plan (qualifier value)"
                  }
                ]
              },
              "reasonCode": [
                {
                  "coding": [
                    {
                      "code": "15777000",
                      "system": "http://snomed.info/sct",
                      "display": "Prediabetes"
                    }
                  ]
                }
              ],
              "status": "unknown",
              "description": "Diabetes self management plan",
              "kind": "Appointment"
            }
          }
        ],
        "period": {
          "start": "1994-05-10"
        },
        "goal": [
          {
            "reference": "urn:uuid:2a050a0e-7fb3-424d-9770-5c7f08f273af"
          },
          {
            "reference": "urn:uuid:887c726f-39d2-47e7-9415-8e57fa4ff3bc"
          },
          {
            "reference": "urn:uuid:d27d2250-2c8a-48d2-b12f-00265a3b6753"
          },
          {
            "reference": "urn:uuid:2a0372f8-7f19-448d-a0cb-2b22aa74e7bb"
          }
        ],
        "text": {
          "status": "generated",
          "div": "<div xmlns=\"http://www.w3.org/1999/xhtml\"><table class=\"hl7__ips first25\"><tr><th>Active Planned Care / Goals</th><th>Start Date</th><th>Reason</th></tr><tr><td>Diabetes self management plan</td><td><span class=\"nb\">10-May-1994</span></td><td>Prediabetes</td></tr><tr><td><ul><li>Achieve and maintain Hemoglobin A1c below 6.5% through diabetes self-management.</li><li>Achieve and maintain a healthy body weight as part of diabetes self-management.</li><li>Maintain blood pressure below 130/80 mmHg through lifestyle modifications.</li><li>Achieve and maintain LDL cholesterol below 2.6 mmol/L as part of diabetes self-management.</li></ul></td><td></td><td></td></tr></table></div>"
        },
        "status": "active",
        "intent": "plan",
        "subject": {
          "reference": "urn:uuid:62480d3b-bc3e-44b2-b530-29d3c4027acb",
          "display": "Meaghan Neary"
        }
      }
    },
    {
      "fullUrl": "urn:uuid:a383ab84-d92d-4815-9b8f-415e73f08cb9",
      "resource": {
        "resourceType": "CarePlan",
        "id": "a383ab84-d92d-4815-9b8f-415e73f08cb9",
        "category": [
          {
            "coding": [
              {
                "code": "assess-plan",
                "system": "http://terminology.hl7.org/CodeSystem/care-plan-category",
                "display": "Assessment and Plan"
              }
            ]
          }
        ],
        "activity": [
          {
            "detail": {
              "code": {
                "coding": [
                  {
                    "code": "443402002",
                    "system": "http://snomed.info/sct",
                    "display": "Lifestyle education regarding hypertension (procedure)"
                  }
                ]
              },
              "reasonCode": [
                {
                  "coding": [
                    {
                      "code": "59621000",
                      "system": "http://snomed.info/sct",
                      "display": "Essential hypertension (disorder)"
                    }
                  ]
                }
              ],
              "status": "unknown",
              "description": "Lifestyle education regarding hypertension",
              "kind": "Appointment"
            }
          }
        ],
        "period": {
          "start": "1991-04-16"
        },
        "goal": [
          {
            "reference": "urn:uuid:71799598-f0ef-4af3-9e3b-31195ec7e5bf"
          },
          {
            "reference": "urn:uuid:403bf4fa-fe9c-4139-a2f8-b102283c27d1"
          }
        ],
        "text": {
          "status": "generated",
          "div": "<div xmlns=\"http://www.w3.org/1999/xhtml\"><table class=\"hl7__ips first25\"><tr><th>Active Planned Care / Goals</th><th>Start Date</th><th>Reason</th></tr><tr><td>Lifestyle education regarding hypertension</td><td><span class=\"nb\">16-Apr-1991</span></td><td>Essential hypertension (disorder)</td></tr><tr><td><ul><li>Maintain blood pressure below 130/80 mmHg to reduce cardiovascular and renal risk.</li><li>Adopt dietary changes, increase physical activity, and reduce sodium intake to support blood pressure control.</li></ul></td><td></td><td></td></tr></table></div>"
        },
        "status": "active",
        "intent": "plan",
        "subject": {
          "reference": "urn:uuid:62480d3b-bc3e-44b2-b530-29d3c4027acb",
          "display": "Meaghan Neary"
        }
      }
    },
    {
      "fullUrl": "urn:uuid:de30efcd-3993-4ff3-97c1-7598b4de94c7",
      "resource": {
        "resourceType": "ImmunizationRecommendation",
        "id": "de30efcd-3993-4ff3-97c1-7598b4de94c7",
        "recommendation": [
          {
            "vaccineCode": [
              {
                "coding": [
                  {
                    "code": "1181000221105",
                    "system": "http://snomed.info/sct",
                    "display": "Vaccine product containing only Influenza virus antigen (medicinal product)"
                  }
                ]
              }
            ],
            "dateCriterion": [
              {
                "code": {
                  "coding": [
                    {
                      "code": "30980-7",
                      "system": "http://loinc.org",
                      "display": "Date vaccine due"
                    }
                  ]
                },
                "value": "2025-10-01"
              }
            ],
            "targetDisease": {
              "coding": [
                {
                  "code": "6142004",
                  "system": "http://snomed.info/sct",
                  "display": "Influenza (disorder)"
                }
              ]
            },
            "series": "Annual seasonal influenza vaccination",
            "forecastStatus": {
              "coding": [
                {
                  "code": "due",
                  "system": "http://terminology.hl7.org/CodeSystem/immunization-recommendation-status",
                  "display": "Due"
                }
              ]
            }
          }
        ],
        "text": {
          "status": "generated",
          "div": "<div xmlns=\"http://www.w3.org/1999/xhtml\"><table class=\"hl7__ips\"><tr><td>Vaccine product containing only Influenza virus antigen (medicinal product)</td><td><span class=\"nb\">01-Oct-2025</span></td><td>Annual seasonal influenza vaccination</td></tr></table></div>"
        },
        "date": "2025-10-22",
        "patient": {
          "reference": "urn:uuid:62480d3b-bc3e-44b2-b530-29d3c4027acb",
          "display": "Meaghan Neary"
        }
      }
    },
    {
      "fullUrl": "urn:uuid:4ae546db-baef-4085-b9c8-70837c0ad6af",
      "resource": {
        "resourceType": "Observation",
        "id": "4ae546db-baef-4085-b9c8-70837c0ad6af",
        "meta": {
          "profile": [
            "http://hl7.org/fhir/StructureDefinition/vitalsigns"
          ]
        },
        "category": [
          {
            "coding": [
              {
                "system": "http://terminology.hl7.org/CodeSystem/observation-category",
                "code": "vital-signs",
                "display": "Vital Signs"
              }
            ]
          }
        ],
        "valueQuantity": {
          "value": 169.5,
          "code": "cm",
          "unit": "cm"
        },
        "text": {
          "status": "generated",
          "div": "<div xmlns=\"http://www.w3.org/1999/xhtml\"><table class=\"hl7__ips\"><tr><th>Vital Sign</th><th>Date</th><th>Measurement</th></tr><tr><td>Body Height</td><td>16-Jun-2025</td><td>169.5 cm</td></tr></table></div>"
        },
        "status": "final",
        "code": {
          "coding": [
            {
              "code": "$8302-2",
              "system": "http://loinc.org",
              "display": "Body Height"
            }
          ]
        },
        "subject": {
          "reference": "urn:uuid:62480d3b-bc3e-44b2-b530-29d3c4027acb",
          "display": "Meaghan Neary"
        },
        "effectiveDateTime": "2025-06-16"
      }
    },
    {
      "fullUrl": "urn:uuid:60db4dd2-2971-4bc0-b176-0dba7c49b621",
      "resource": {
        "resourceType": "Observation",
        "id": "60db4dd2-2971-4bc0-b176-0dba7c49b621",
        "meta": {
          "profile": [
            "http://hl7.org/fhir/StructureDefinition/vitalsigns"
          ]
        },
        "category": [
          {
            "coding": [
              {
                "system": "http://terminology.hl7.org/CodeSystem/observation-category",
                "code": "vital-signs",
                "display": "Vital Signs"
              }
            ]
          }
        ],
        "valueQuantity": {
          "value": 1,
          "code": "{score}",
          "unit": "{score}"
        },
        "text": {
          "status": "generated",
          "div": "<div xmlns=\"http://www.w3.org/1999/xhtml\"><table class=\"hl7__ips\"><tr><th>Vital Sign</th><th>Date</th><th>Measurement</th></tr><tr><td>Pain severity - 0-10 verbal numeric rating [Score] - Reported</td><td>16-Jun-2025</td><td>1 {score}</td></tr></table></div>"
        },
        "status": "final",
        "code": {
          "coding": [
            {
              "code": "$72514-3",
              "system": "http://loinc.org",
              "display": "Pain severity - 0-10 verbal numeric rating [Score] - Reported"
            }
          ]
        },
        "subject": {
          "reference": "urn:uuid:62480d3b-bc3e-44b2-b530-29d3c4027acb",
          "display": "Meaghan Neary"
        },
        "effectiveDateTime": "2025-06-16"
      }
    },
    {
      "fullUrl": "urn:uuid:24c3c298-7864-48f1-a90f-550f049b5bd0",
      "resource": {
        "resourceType": "Observation",
        "id": "24c3c298-7864-48f1-a90f-550f049b5bd0",
        "meta": {
          "profile": [
            "http://hl7.org/fhir/StructureDefinition/vitalsigns"
          ]
        },
        "category": [
          {
            "coding": [
              {
                "system": "http://terminology.hl7.org/CodeSystem/observation-category",
                "code": "vital-signs",
                "display": "Vital Signs"
              }
            ]
          }
        ],
        "valueQuantity": {
          "value": 80.6,
          "code": "kg",
          "unit": "kg"
        },
        "text": {
          "status": "generated",
          "div": "<div xmlns=\"http://www.w3.org/1999/xhtml\"><table class=\"hl7__ips\"><tr><th>Vital Sign</th><th>Date</th><th>Measurement</th></tr><tr><td>Body Weight</td><td>16-Jun-2025</td><td>80.6 kg</td></tr></table></div>"
        },
        "status": "final",
        "code": {
          "coding": [
            {
              "code": "$29463-7",
              "system": "http://loinc.org",
              "display": "Body Weight"
            }
          ]
        },
        "subject": {
          "reference": "urn:uuid:62480d3b-bc3e-44b2-b530-29d3c4027acb",
          "display": "Meaghan Neary"
        },
        "effectiveDateTime": "2025-06-16"
      }
    },
    {
      "fullUrl": "urn:uuid:b3dc33f3-e456-4b8e-bea1-7e3a2ff490fa",
      "resource": {
        "resourceType": "Observation",
        "id": "b3dc33f3-e456-4b8e-bea1-7e3a2ff490fa",
        "meta": {
          "profile": [
            "http://hl7.org/fhir/StructureDefinition/vitalsigns"
          ]
        },
        "category": [
          {
            "coding": [
              {
                "system": "http://terminology.hl7.org/CodeSystem/observation-category",
                "code": "vital-signs",
                "display": "Vital Signs"
              }
            ]
          }
        ],
        "valueQuantity": {
          "value": 28.1,
          "code": "kg/m2",
          "unit": "kg/m2"
        },
        "text": {
          "status": "generated",
          "div": "<div xmlns=\"http://www.w3.org/1999/xhtml\"><table class=\"hl7__ips\"><tr><th>Vital Sign</th><th>Date</th><th>Measurement</th></tr><tr><td>Body mass index (BMI) [Ratio]</td><td>16-Jun-2025</td><td>28.1 kg/m2</td></tr></table></div>"
        },
        "status": "final",
        "code": {
          "coding": [
            {
              "code": "$39156-5",
              "system": "http://loinc.org",
              "display": "Body mass index (BMI) [Ratio]"
            }
          ]
        },
        "subject": {
          "reference": "urn:uuid:62480d3b-bc3e-44b2-b530-29d3c4027acb",
          "display": "Meaghan Neary"
        },
        "effectiveDateTime": "2025-06-16"
      }
    },
    {
      "fullUrl": "urn:uuid:3273a658-7eb1-479c-8721-6411ea0f4fa8",
      "resource": {
        "resourceType": "Observation",
        "id": "3273a658-7eb1-479c-8721-6411ea0f4fa8",
        "meta": {
          "profile": [
            "http://hl7.org/fhir/StructureDefinition/vitalsigns"
          ]
        },
        "category": [
          {
            "coding": [
              {
                "system": "http://terminology.hl7.org/CodeSystem/observation-category",
                "code": "vital-signs",
                "display": "Vital Signs"
              }
            ]
          }
        ],
        "valueQuantity": {
          "value": 91,
          "code": "mm[Hg]",
          "unit": "mm[Hg]"
        },
        "text": {
          "status": "generated",
          "div": "<div xmlns=\"http://www.w3.org/1999/xhtml\"><table class=\"hl7__ips\"><tr><th>Vital Sign</th><th>Date</th><th>Measurement</th></tr><tr><td>Diastolic Blood Pressure</td><td>16-Jun-2025</td><td>91 mm[Hg]</td></tr></table></div>"
        },
        "status": "final",
        "code": {
          "coding": [
            {
              "code": "$8462-4",
              "system": "http://loinc.org",
              "display": "Diastolic Blood Pressure"
            }
          ]
        },
        "subject": {
          "reference": "urn:uuid:62480d3b-bc3e-44b2-b530-29d3c4027acb",
          "display": "Meaghan Neary"
        },
        "effectiveDateTime": "2025-06-16"
      }
    },
    {
      "fullUrl": "urn:uuid:baa57112-8286-4852-ad9d-e7f89d6a0861",
      "resource": {
        "resourceType": "Observation",
        "id": "baa57112-8286-4852-ad9d-e7f89d6a0861",
        "meta": {
          "profile": [
            "http://hl7.org/fhir/StructureDefinition/vitalsigns"
          ]
        },
        "category": [
          {
            "coding": [
              {
                "system": "http://terminology.hl7.org/CodeSystem/observation-category",
                "code": "vital-signs",
                "display": "Vital Signs"
              }
            ]
          }
        ],
        "valueQuantity": {
          "value": 111,
          "code": "mm[Hg]",
          "unit": "mm[Hg]"
        },
        "text": {
          "status": "generated",
          "div": "<div xmlns=\"http://www.w3.org/1999/xhtml\"><table class=\"hl7__ips\"><tr><th>Vital Sign</th><th>Date</th><th>Measurement</th></tr><tr><td>Systolic Blood Pressure</td><td>16-Jun-2025</td><td>111 mm[Hg]</td></tr></table></div>"
        },
        "status": "final",
        "code": {
          "coding": [
            {
              "code": "$8480-6",
              "system": "http://loinc.org",
              "display": "Systolic Blood Pressure"
            }
          ]
        },
        "subject": {
          "reference": "urn:uuid:62480d3b-bc3e-44b2-b530-29d3c4027acb",
          "display": "Meaghan Neary"
        },
        "effectiveDateTime": "2025-06-16"
      }
    },
    {
      "fullUrl": "urn:uuid:ee8f17ee-558e-4ccb-bd70-5bec899cc976",
      "resource": {
        "resourceType": "Observation",
        "id": "ee8f17ee-558e-4ccb-bd70-5bec899cc976",
        "meta": {
          "profile": [
            "http://hl7.org/fhir/StructureDefinition/vitalsigns"
          ]
        },
        "category": [
          {
            "coding": [
              {
                "system": "http://terminology.hl7.org/CodeSystem/observation-category",
                "code": "vital-signs",
                "display": "Vital Signs"
              }
            ]
          }
        ],
        "valueQuantity": {
          "value": 79,
          "code": "/min",
          "unit": "/min"
        },
        "text": {
          "status": "generated",
          "div": "<div xmlns=\"http://www.w3.org/1999/xhtml\"><table class=\"hl7__ips\"><tr><th>Vital Sign</th><th>Date</th><th>Measurement</th></tr><tr><td>Heart rate</td><td>16-Jun-2025</td><td>79 /min</td></tr></table></div>"
        },
        "status": "final",
        "code": {
          "coding": [
            {
              "code": "$8867-4",
              "system": "http://loinc.org",
              "display": "Heart rate"
            }
          ]
        },
        "subject": {
          "reference": "urn:uuid:62480d3b-bc3e-44b2-b530-29d3c4027acb",
          "display": "Meaghan Neary"
        },
        "effectiveDateTime": "2025-06-16"
      }
    },
    {
      "fullUrl": "urn:uuid:0d3c3534-339e-4cc2-809b-693141acbbc4",
      "resource": {
        "resourceType": "Observation",
        "id": "0d3c3534-339e-4cc2-809b-693141acbbc4",
        "meta": {
          "profile": [
            "http://hl7.org/fhir/StructureDefinition/vitalsigns"
          ]
        },
        "category": [
          {
            "coding": [
              {
                "system": "http://terminology.hl7.org/CodeSystem/observation-category",
                "code": "vital-signs",
                "display": "Vital Signs"
              }
            ]
          }
        ],
        "valueQuantity": {
          "value": 14,
          "code": "/min",
          "unit": "/min"
        },
        "text": {
          "status": "generated",
          "div": "<div xmlns=\"http://www.w3.org/1999/xhtml\"><table class=\"hl7__ips\"><tr><th>Vital Sign</th><th>Date</th><th>Measurement</th></tr><tr><td>Respiratory rate</td><td>16-Jun-2025</td><td>14 /min</td></tr></table></div>"
        },
        "status": "final",
        "code": {
          "coding": [
            {
              "code": "$9279-1",
              "system": "http://loinc.org",
              "display": "Respiratory rate"
            }
          ]
        },
        "subject": {
          "reference": "urn:uuid:62480d3b-bc3e-44b2-b530-29d3c4027acb",
          "display": "Meaghan Neary"
        },
        "effectiveDateTime": "2025-06-16"
      }
    },
    {
      "fullUrl": "urn:uuid:2d222e56-da97-467b-8345-3cc7aa422923",
      "resource": {
        "resourceType": "Observation",
        "id": "2d222e56-da97-467b-8345-3cc7aa422923",
        "meta": {
          "profile": [
            "http://hl7.org/fhir/StructureDefinition/vitalsigns"
          ]
        },
        "category": [
          {
            "coding": [
              {
                "system": "http://terminology.hl7.org/CodeSystem/observation-category",
                "code": "vital-signs",
                "display": "Vital Signs"
              }
            ]
          }
        ],
        "valueQuantity": {
          "value": 169.5,
          "code": "cm",
          "unit": "cm"
        },
        "text": {
          "status": "generated",
          "div": "<div xmlns=\"http://www.w3.org/1999/xhtml\"><table class=\"hl7__ips\"><tr><th>Vital Sign</th><th>Date</th><th>Measurement</th></tr><tr><td>Body Height</td><td>19-May-2025</td><td>169.5 cm</td></tr></table></div>"
        },
        "status": "final",
        "code": {
          "coding": [
            {
              "code": "$8302-2",
              "system": "http://loinc.org",
              "display": "Body Height"
            }
          ]
        },
        "subject": {
          "reference": "urn:uuid:62480d3b-bc3e-44b2-b530-29d3c4027acb",
          "display": "Meaghan Neary"
        },
        "effectiveDateTime": "2025-05-19"
      }
    },
    {
      "fullUrl": "urn:uuid:d14a0f72-3bd8-47d0-badc-e39652eec919",
      "resource": {
        "resourceType": "Observation",
        "id": "d14a0f72-3bd8-47d0-badc-e39652eec919",
        "meta": {
          "profile": [
            "http://hl7.org/fhir/StructureDefinition/vitalsigns"
          ]
        },
        "category": [
          {
            "coding": [
              {
                "system": "http://terminology.hl7.org/CodeSystem/observation-category",
                "code": "vital-signs",
                "display": "Vital Signs"
              }
            ]
          }
        ],
        "valueQuantity": {
          "value": 2,
          "code": "{score}",
          "unit": "{score}"
        },
        "text": {
          "status": "generated",
          "div": "<div xmlns=\"http://www.w3.org/1999/xhtml\"><table class=\"hl7__ips\"><tr><th>Vital Sign</th><th>Date</th><th>Measurement</th></tr><tr><td>Pain severity - 0-10 verbal numeric rating [Score] - Reported</td><td>19-May-2025</td><td>2 {score}</td></tr></table></div>"
        },
        "status": "final",
        "code": {
          "coding": [
            {
              "code": "$72514-3",
              "system": "http://loinc.org",
              "display": "Pain severity - 0-10 verbal numeric rating [Score] - Reported"
            }
          ]
        },
        "subject": {
          "reference": "urn:uuid:62480d3b-bc3e-44b2-b530-29d3c4027acb",
          "display": "Meaghan Neary"
        },
        "effectiveDateTime": "2025-05-19"
      }
    },
    {
      "fullUrl": "urn:uuid:d3f062fc-eba9-4d53-885e-ab9ee2023b48",
      "resource": {
        "resourceType": "Observation",
        "id": "d3f062fc-eba9-4d53-885e-ab9ee2023b48",
        "meta": {
          "profile": [
            "http://hl7.org/fhir/StructureDefinition/vitalsigns"
          ]
        },
        "category": [
          {
            "coding": [
              {
                "system": "http://terminology.hl7.org/CodeSystem/observation-category",
                "code": "vital-signs",
                "display": "Vital Signs"
              }
            ]
          }
        ],
        "valueQuantity": {
          "value": 80.6,
          "code": "kg",
          "unit": "kg"
        },
        "text": {
          "status": "generated",
          "div": "<div xmlns=\"http://www.w3.org/1999/xhtml\"><table class=\"hl7__ips\"><tr><th>Vital Sign</th><th>Date</th><th>Measurement</th></tr><tr><td>Body Weight</td><td>19-May-2025</td><td>80.6 kg</td></tr></table></div>"
        },
        "status": "final",
        "code": {
          "coding": [
            {
              "code": "$29463-7",
              "system": "http://loinc.org",
              "display": "Body Weight"
            }
          ]
        },
        "subject": {
          "reference": "urn:uuid:62480d3b-bc3e-44b2-b530-29d3c4027acb",
          "display": "Meaghan Neary"
        },
        "effectiveDateTime": "2025-05-19"
      }
    },
    {
      "fullUrl": "urn:uuid:fa55a61b-25da-4cc3-ac49-98c71a77a4f1",
      "resource": {
        "resourceType": "Observation",
        "id": "fa55a61b-25da-4cc3-ac49-98c71a77a4f1",
        "meta": {
          "profile": [
            "http://hl7.org/fhir/StructureDefinition/vitalsigns"
          ]
        },
        "category": [
          {
            "coding": [
              {
                "system": "http://terminology.hl7.org/CodeSystem/observation-category",
                "code": "vital-signs",
                "display": "Vital Signs"
              }
            ]
          }
        ],
        "valueQuantity": {
          "value": 28.1,
          "code": "kg/m2",
          "unit": "kg/m2"
        },
        "text": {
          "status": "generated",
          "div": "<div xmlns=\"http://www.w3.org/1999/xhtml\"><table class=\"hl7__ips\"><tr><th>Vital Sign</th><th>Date</th><th>Measurement</th></tr><tr><td>Body mass index (BMI) [Ratio]</td><td>19-May-2025</td><td>28.1 kg/m2</td></tr></table></div>"
        },
        "status": "final",
        "code": {
          "coding": [
            {
              "code": "$39156-5",
              "system": "http://loinc.org",
              "display": "Body mass index (BMI) [Ratio]"
            }
          ]
        },
        "subject": {
          "reference": "urn:uuid:62480d3b-bc3e-44b2-b530-29d3c4027acb",
          "display": "Meaghan Neary"
        },
        "effectiveDateTime": "2025-05-19"
      }
    },
    {
      "fullUrl": "urn:uuid:f81347c6-73de-4ce1-ad3e-dc48d02e2c31",
      "resource": {
        "resourceType": "Observation",
        "id": "f81347c6-73de-4ce1-ad3e-dc48d02e2c31",
        "meta": {
          "profile": [
            "http://hl7.org/fhir/StructureDefinition/vitalsigns"
          ]
        },
        "category": [
          {
            "coding": [
              {
                "system": "http://terminology.hl7.org/CodeSystem/observation-category",
                "code": "vital-signs",
                "display": "Vital Signs"
              }
            ]
          }
        ],
        "valueQuantity": {
          "value": 89,
          "code": "mm[Hg]",
          "unit": "mm[Hg]"
        },
        "text": {
          "status": "generated",
          "div": "<div xmlns=\"http://www.w3.org/1999/xhtml\"><table class=\"hl7__ips\"><tr><th>Vital Sign</th><th>Date</th><th>Measurement</th></tr><tr><td>Diastolic Blood Pressure</td><td>19-May-2025</td><td>89 mm[Hg]</td></tr></table></div>"
        },
        "status": "final",
        "code": {
          "coding": [
            {
              "code": "$8462-4",
              "system": "http://loinc.org",
              "display": "Diastolic Blood Pressure"
            }
          ]
        },
        "subject": {
          "reference": "urn:uuid:62480d3b-bc3e-44b2-b530-29d3c4027acb",
          "display": "Meaghan Neary"
        },
        "effectiveDateTime": "2025-05-19"
      }
    },
    {
      "fullUrl": "urn:uuid:ce13097c-f2bb-4397-85de-0edd03241850",
      "resource": {
        "resourceType": "Observation",
        "id": "ce13097c-f2bb-4397-85de-0edd03241850",
        "meta": {
          "profile": [
            "http://hl7.org/fhir/StructureDefinition/vitalsigns"
          ]
        },
        "category": [
          {
            "coding": [
              {
                "system": "http://terminology.hl7.org/CodeSystem/observation-category",
                "code": "vital-signs",
                "display": "Vital Signs"
              }
            ]
          }
        ],
        "valueQuantity": {
          "value": 110,
          "code": "mm[Hg]",
          "unit": "mm[Hg]"
        },
        "text": {
          "status": "generated",
          "div": "<div xmlns=\"http://www.w3.org/1999/xhtml\"><table class=\"hl7__ips\"><tr><th>Vital Sign</th><th>Date</th><th>Measurement</th></tr><tr><td>Systolic Blood Pressure</td><td>19-May-2025</td><td>110 mm[Hg]</td></tr></table></div>"
        },
        "status": "final",
        "code": {
          "coding": [
            {
              "code": "$8480-6",
              "system": "http://loinc.org",
              "display": "Systolic Blood Pressure"
            }
          ]
        },
        "subject": {
          "reference": "urn:uuid:62480d3b-bc3e-44b2-b530-29d3c4027acb",
          "display": "Meaghan Neary"
        },
        "effectiveDateTime": "2025-05-19"
      }
    },
    {
      "fullUrl": "urn:uuid:d718152b-6c05-4b50-87e7-9a9250736ba8",
      "resource": {
        "resourceType": "Observation",
        "id": "d718152b-6c05-4b50-87e7-9a9250736ba8",
        "meta": {
          "profile": [
            "http://hl7.org/fhir/StructureDefinition/vitalsigns"
          ]
        },
        "category": [
          {
            "coding": [
              {
                "system": "http://terminology.hl7.org/CodeSystem/observation-category",
                "code": "vital-signs",
                "display": "Vital Signs"
              }
            ]
          }
        ],
        "valueQuantity": {
          "value": 65,
          "code": "/min",
          "unit": "/min"
        },
        "text": {
          "status": "generated",
          "div": "<div xmlns=\"http://www.w3.org/1999/xhtml\"><table class=\"hl7__ips\"><tr><th>Vital Sign</th><th>Date</th><th>Measurement</th></tr><tr><td>Heart rate</td><td>19-May-2025</td><td>65 /min</td></tr></table></div>"
        },
        "status": "final",
        "code": {
          "coding": [
            {
              "code": "$8867-4",
              "system": "http://loinc.org",
              "display": "Heart rate"
            }
          ]
        },
        "subject": {
          "reference": "urn:uuid:62480d3b-bc3e-44b2-b530-29d3c4027acb",
          "display": "Meaghan Neary"
        },
        "effectiveDateTime": "2025-05-19"
      }
    },
    {
      "fullUrl": "urn:uuid:7ab56c1a-3272-4715-8da3-87860de51b54",
      "resource": {
        "resourceType": "Observation",
        "id": "7ab56c1a-3272-4715-8da3-87860de51b54",
        "meta": {
          "profile": [
            "http://hl7.org/fhir/StructureDefinition/vitalsigns"
          ]
        },
        "category": [
          {
            "coding": [
              {
                "system": "http://terminology.hl7.org/CodeSystem/observation-category",
                "code": "vital-signs",
                "display": "Vital Signs"
              }
            ]
          }
        ],
        "valueQuantity": {
          "value": 14,
          "code": "/min",
          "unit": "/min"
        },
        "text": {
          "status": "generated",
          "div": "<div xmlns=\"http://www.w3.org/1999/xhtml\"><table class=\"hl7__ips\"><tr><th>Vital Sign</th><th>Date</th><th>Measurement</th></tr><tr><td>Respiratory rate</td><td>19-May-2025</td><td>14 /min</td></tr></table></div>"
        },
        "status": "final",
        "code": {
          "coding": [
            {
              "code": "$9279-1",
              "system": "http://loinc.org",
              "display": "Respiratory rate"
            }
          ]
        },
        "subject": {
          "reference": "urn:uuid:62480d3b-bc3e-44b2-b530-29d3c4027acb",
          "display": "Meaghan Neary"
        },
        "effectiveDateTime": "2025-05-19"
      }
    },
    {
      "fullUrl": "urn:uuid:6dd671d2-7432-44f8-bbb1-56f922f3f5db",
      "resource": {
        "resourceType": "Observation",
        "id": "6dd671d2-7432-44f8-bbb1-56f922f3f5db",
        "meta": {
          "profile": [
            "http://hl7.eu/fhir/laboratory/StructureDefinition/Observation-resultslab-eu-lab"
          ]
        },
        "performer": [
          {
            "display": "The Central European Lab"
          }
        ],
        "category": [
          {
            "coding": [
              {
                "system": "http://terminology.hl7.org/CodeSystem/observation-category",
                "code": "laboratory"
              }
            ]
          }
        ],
        "code": {
          "coding": [
            {
              "code": "2339-0",
              "system": "http://loinc.org",
              "display": "Glucose [Mass/volume] in Blood"
            }
          ],
          "text": "Glucose [Mass/volume] in Blood"
        },
        "valueQuantity": {
          "system": "http://unitsofmeasure.org",
          "value": 75.1,
          "unit": "mg/dL",
          "code": "mg/dL"
        },
        "referenceRange": [
          {
            "low": {
              "value": 70,
              "code": "mg/dL",
              "system": "http://unitsofmeasure.org"
            }
          },
          {
            "high": {
              "value": 100,
              "code": "mg/dL",
              "system": "http://unitsofmeasure.org"
            }
          }
        ],
        "text": {
          "status": "generated",
          "div": "<div xmlns=\"http://www.w3.org/1999/xhtml\"><table class=\"hl7__eu__lab__report\"><tr><th>Test</th><th>16-Jul-2025</th><th>Reference&#xA0;Range</th><th>Unit</th></tr><tr><td>Glucose [Mass/volume] in Blood</td><td>75.1</td><td>70 - 100</td><td></td><td>mg/dL</td></tr></table></div>"
        },
        "status": "final",
        "subject": {
          "reference": "urn:uuid:62480d3b-bc3e-44b2-b530-29d3c4027acb",
          "display": "Meaghan Neary"
        },
        "effectiveDateTime": "2025-07-15T22:11:04Z"
      }
    },
    {
      "fullUrl": "urn:uuid:990cd759-f00e-48de-92e8-b044095c16a6",
      "resource": {
        "resourceType": "Observation",
        "id": "990cd759-f00e-48de-92e8-b044095c16a6",
        "meta": {
          "profile": [
            "http://hl7.eu/fhir/laboratory/StructureDefinition/Observation-resultslab-eu-lab"
          ]
        },
        "performer": [
          {
            "display": "The Central European Lab"
          }
        ],
        "category": [
          {
            "coding": [
              {
                "system": "http://terminology.hl7.org/CodeSystem/observation-category",
                "code": "laboratory"
              }
            ]
          }
        ],
        "code": {
          "coding": [
            {
              "code": "6299-2",
              "system": "http://loinc.org",
              "display": "Urea nitrogen [Mass/volume] in Blood"
            }
          ],
          "text": "Urea nitrogen [Mass/volume] in Blood"
        },
        "valueQuantity": {
          "system": "http://unitsofmeasure.org",
          "value": 18,
          "unit": "mg/dL",
          "code": "mg/dL"
        },
        "referenceRange": [
          {
            "low": {
              "value": 7,
              "code": "mg/dL",
              "system": "http://unitsofmeasure.org"
            }
          },
          {
            "high": {
              "value": 43,
              "code": "mg/dL",
              "system": "http://unitsofmeasure.org"
            }
          }
        ],
        "text": {
          "status": "generated",
          "div": "<div xmlns=\"http://www.w3.org/1999/xhtml\"><table class=\"hl7__eu__lab__report\"><tr><th>Test</th><th>16-Jul-2025</th><th>Reference&#xA0;Range</th><th>Unit</th></tr><tr><td>Urea nitrogen [Mass/volume] in Blood</td><td>18.0</td><td>7 - 43</td><td></td><td>mg/dL</td></tr></table></div>"
        },
        "status": "final",
        "subject": {
          "reference": "urn:uuid:62480d3b-bc3e-44b2-b530-29d3c4027acb",
          "display": "Meaghan Neary"
        },
        "effectiveDateTime": "2025-07-15T22:11:04Z"
      }
    },
    {
      "fullUrl": "urn:uuid:2ef252e6-6437-4ed0-a287-40b702e94392",
      "resource": {
        "resourceType": "Observation",
        "id": "2ef252e6-6437-4ed0-a287-40b702e94392",
        "meta": {
          "profile": [
            "http://hl7.eu/fhir/laboratory/StructureDefinition/Observation-resultslab-eu-lab"
          ]
        },
        "performer": [
          {
            "display": "The Central European Lab"
          }
        ],
        "category": [
          {
            "coding": [
              {
                "system": "http://terminology.hl7.org/CodeSystem/observation-category",
                "code": "laboratory"
              }
            ]
          }
        ],
        "code": {
          "coding": [
            {
              "code": "38483-4",
              "system": "http://loinc.org",
              "display": "Creatinine [Mass/volume] in Blood"
            }
          ],
          "text": "Creatinine [Mass/volume] in Blood"
        },
        "valueQuantity": {
          "system": "http://unitsofmeasure.org",
          "value": 2.9,
          "unit": "mg/dL",
          "code": "mg/dL"
        },
        "referenceRange": [
          {
            "low": {
              "value": 0.6,
              "code": "mg/dL",
              "system": "http://unitsofmeasure.org"
            }
          },
          {
            "high": {
              "value": 1.1,
              "code": "mg/dL",
              "system": "http://unitsofmeasure.org"
            }
          }
        ],
        "interpretation": [
          {
            "coding": [
              {
                "code": "H",
                "system": "http://terminology.hl7.org/CodeSystem/v3-ObservationInterpretation",
                "display": "High"
              }
            ]
          }
        ],
        "text": {
          "status": "generated",
          "div": "<div xmlns=\"http://www.w3.org/1999/xhtml\"><table class=\"hl7__eu__lab__report\"><tr><th>Test</th><th>16-Jul-2025</th><th>Reference&#xA0;Range</th><th>Unit</th></tr><tr><td>Creatinine [Mass/volume] in Blood</td><td>2.9</td><td>0.6 - 1.1</td><td>H</td><td>mg/dL</td></tr></table></div>"
        },
        "status": "final",
        "subject": {
          "reference": "urn:uuid:62480d3b-bc3e-44b2-b530-29d3c4027acb",
          "display": "Meaghan Neary"
        },
        "effectiveDateTime": "2025-07-15T22:11:04Z"
      }
    },
    {
      "fullUrl": "urn:uuid:02088bcc-80d5-4657-b7cd-f663d05c4bac",
      "resource": {
        "resourceType": "Observation",
        "id": "02088bcc-80d5-4657-b7cd-f663d05c4bac",
        "meta": {
          "profile": [
            "http://hl7.eu/fhir/laboratory/StructureDefinition/Observation-resultslab-eu-lab"
          ]
        },
        "performer": [
          {
            "display": "The Central European Lab"
          }
        ],
        "category": [
          {
            "coding": [
              {
                "system": "http://terminology.hl7.org/CodeSystem/observation-category",
                "code": "laboratory"
              }
            ]
          }
        ],
        "code": {
          "coding": [
            {
              "code": "49765-1",
              "system": "http://loinc.org",
              "display": "Calcium [Mass/volume] in Blood"
            }
          ],
          "text": "Calcium [Mass/volume] in Blood"
        },
        "valueQuantity": {
          "system": "http://unitsofmeasure.org",
          "value": 9.8,
          "unit": "mg/dL",
          "code": "mg/dL"
        },
        "referenceRange": [
          {
            "low": {
              "value": 8.5,
              "code": "mg/dL",
              "system": "http://unitsofmeasure.org"
            }
          },
          {
            "high": {
              "value": 10.5,
              "code": "mg/dL",
              "system": "http://unitsofmeasure.org"
            }
          }
        ],
        "text": {
          "status": "generated",
          "div": "<div xmlns=\"http://www.w3.org/1999/xhtml\"><table class=\"hl7__eu__lab__report\"><tr><th>Test</th><th>16-Jul-2025</th><th>Reference&#xA0;Range</th><th>Unit</th></tr><tr><td>Calcium [Mass/volume] in Blood</td><td>9.8</td><td>8.5 - 10.5</td><td></td><td>mg/dL</td></tr></table></div>"
        },
        "status": "final",
        "subject": {
          "reference": "urn:uuid:62480d3b-bc3e-44b2-b530-29d3c4027acb",
          "display": "Meaghan Neary"
        },
        "effectiveDateTime": "2025-07-15T22:11:04Z"
      }
    },
    {
      "fullUrl": "urn:uuid:13c9572b-f0ff-47ef-bdb1-0af5a6c1d676",
      "resource": {
        "resourceType": "Observation",
        "id": "13c9572b-f0ff-47ef-bdb1-0af5a6c1d676",
        "meta": {
          "profile": [
            "http://hl7.eu/fhir/laboratory/StructureDefinition/Observation-resultslab-eu-lab"
          ]
        },
        "performer": [
          {
            "display": "The Central European Lab"
          }
        ],
        "category": [
          {
            "coding": [
              {
                "system": "http://terminology.hl7.org/CodeSystem/observation-category",
                "code": "laboratory"
              }
            ]
          }
        ],
        "code": {
          "coding": [
            {
              "code": "2947-0",
              "system": "http://loinc.org",
              "display": "Sodium [Moles/volume] in Blood"
            }
          ],
          "text": "Sodium [Moles/volume] in Blood"
        },
        "valueQuantity": {
          "system": "http://unitsofmeasure.org",
          "value": 137.5,
          "unit": "mmol/L",
          "code": "mmol/L"
        },
        "referenceRange": [
          {
            "low": {
              "value": 135,
              "code": "mmol/L",
              "system": "http://unitsofmeasure.org"
            }
          },
          {
            "high": {
              "value": 145,
              "code": "mmol/L",
              "system": "http://unitsofmeasure.org"
            }
          }
        ],
        "text": {
          "status": "generated",
          "div": "<div xmlns=\"http://www.w3.org/1999/xhtml\"><table class=\"hl7__eu__lab__report\"><tr><th>Test</th><th>16-Jul-2025</th><th>Reference&#xA0;Range</th><th>Unit</th></tr><tr><td>Sodium [Moles/volume] in Blood</td><td>137.5</td><td>135 - 145</td><td></td><td>mmol/L</td></tr></table></div>"
        },
        "status": "final",
        "subject": {
          "reference": "urn:uuid:62480d3b-bc3e-44b2-b530-29d3c4027acb",
          "display": "Meaghan Neary"
        },
        "effectiveDateTime": "2025-07-15T22:11:04Z"
      }
    },
    {
      "fullUrl": "urn:uuid:4430985e-8124-454f-be77-368d95e2835d",
      "resource": {
        "resourceType": "Observation",
        "id": "4430985e-8124-454f-be77-368d95e2835d",
        "meta": {
          "profile": [
            "http://hl7.eu/fhir/laboratory/StructureDefinition/Observation-resultslab-eu-lab"
          ]
        },
        "performer": [
          {
            "display": "The Central European Lab"
          }
        ],
        "category": [
          {
            "coding": [
              {
                "system": "http://terminology.hl7.org/CodeSystem/observation-category",
                "code": "laboratory"
              }
            ]
          }
        ],
        "code": {
          "coding": [
            {
              "code": "6298-4",
              "system": "http://loinc.org",
              "display": "Potassium [Moles/volume] in Blood"
            }
          ],
          "text": "Potassium [Moles/volume] in Blood"
        },
        "valueQuantity": {
          "system": "http://unitsofmeasure.org",
          "value": 4.6,
          "unit": "mmol/L",
          "code": "mmol/L"
        },
        "referenceRange": [
          {
            "low": {
              "value": 3.5,
              "code": "mmol/L",
              "system": "http://unitsofmeasure.org"
            }
          },
          {
            "high": {
              "value": 5.1,
              "code": "mmol/L",
              "system": "http://unitsofmeasure.org"
            }
          }
        ],
        "text": {
          "status": "generated",
          "div": "<div xmlns=\"http://www.w3.org/1999/xhtml\"><table class=\"hl7__eu__lab__report\"><tr><th>Test</th><th>16-Jul-2025</th><th>Reference&#xA0;Range</th><th>Unit</th></tr><tr><td>Potassium [Moles/volume] in Blood</td><td>4.6</td><td>3.5 - 5.1</td><td></td><td>mmol/L</td></tr></table></div>"
        },
        "status": "final",
        "subject": {
          "reference": "urn:uuid:62480d3b-bc3e-44b2-b530-29d3c4027acb",
          "display": "Meaghan Neary"
        },
        "effectiveDateTime": "2025-07-15T22:11:04Z"
      }
    },
    {
      "fullUrl": "urn:uuid:a92c2b35-53e2-46fb-9e9e-1c655a3d19c0",
      "resource": {
        "resourceType": "Observation",
        "id": "a92c2b35-53e2-46fb-9e9e-1c655a3d19c0",
        "meta": {
          "profile": [
            "http://hl7.eu/fhir/laboratory/StructureDefinition/Observation-resultslab-eu-lab"
          ]
        },
        "performer": [
          {
            "display": "The Central European Lab"
          }
        ],
        "category": [
          {
            "coding": [
              {
                "system": "http://terminology.hl7.org/CodeSystem/observation-category",
                "code": "laboratory"
              }
            ]
          }
        ],
        "code": {
          "coding": [
            {
              "code": "2069-3",
              "system": "http://loinc.org",
              "display": "Chloride [Moles/volume] in Blood"
            }
          ],
          "text": "Chloride [Moles/volume] in Blood"
        },
        "valueQuantity": {
          "system": "http://unitsofmeasure.org",
          "value": 105.3,
          "unit": "mmol/L",
          "code": "mmol/L"
        },
        "referenceRange": [
          {
            "low": {
              "value": 98,
              "code": "mmol/L",
              "system": "http://unitsofmeasure.org"
            }
          },
          {
            "high": {
              "value": 108,
              "code": "mmol/L",
              "system": "http://unitsofmeasure.org"
            }
          }
        ],
        "text": {
          "status": "generated",
          "div": "<div xmlns=\"http://www.w3.org/1999/xhtml\"><table class=\"hl7__eu__lab__report\"><tr><th>Test</th><th>16-Jul-2025</th><th>Reference&#xA0;Range</th><th>Unit</th></tr><tr><td>Chloride [Moles/volume] in Blood</td><td>105.3</td><td>98 - 108</td><td></td><td>mmol/L</td></tr></table></div>"
        },
        "status": "final",
        "subject": {
          "reference": "urn:uuid:62480d3b-bc3e-44b2-b530-29d3c4027acb",
          "display": "Meaghan Neary"
        },
        "effectiveDateTime": "2025-07-15T22:11:04Z"
      }
    },
    {
      "fullUrl": "urn:uuid:f8d29d4f-290a-4258-9fdd-9c6291cf38df",
      "resource": {
        "resourceType": "Observation",
        "id": "f8d29d4f-290a-4258-9fdd-9c6291cf38df",
        "meta": {
          "profile": [
            "http://hl7.eu/fhir/laboratory/StructureDefinition/Observation-resultslab-eu-lab"
          ]
        },
        "performer": [
          {
            "display": "The Central European Lab"
          }
        ],
        "category": [
          {
            "coding": [
              {
                "system": "http://terminology.hl7.org/CodeSystem/observation-category",
                "code": "laboratory"
              }
            ]
          }
        ],
        "code": {
          "coding": [
            {
              "code": "20565-8",
              "system": "http://loinc.org",
              "display": "Carbon dioxide, total [Moles/volume] in Blood"
            }
          ],
          "text": "Carbon dioxide, total [Moles/volume] in Blood"
        },
        "valueQuantity": {
          "system": "http://unitsofmeasure.org",
          "value": 25.3,
          "unit": "mmol/L",
          "code": "mmol/L"
        },
        "referenceRange": [
          {
            "low": {
              "value": 22,
              "code": "mmol/L",
              "system": "http://unitsofmeasure.org"
            }
          },
          {
            "high": {
              "value": 29,
              "code": "mmol/L",
              "system": "http://unitsofmeasure.org"
            }
          }
        ],
        "text": {
          "status": "generated",
          "div": "<div xmlns=\"http://www.w3.org/1999/xhtml\"><table class=\"hl7__eu__lab__report\"><tr><th>Test</th><th>16-Jul-2025</th><th>Reference&#xA0;Range</th><th>Unit</th></tr><tr><td>Carbon dioxide, total [Moles/volume] in Blood</td><td>25.3</td><td>22 - 29</td><td></td><td>mmol/L</td></tr></table></div>"
        },
        "status": "final",
        "subject": {
          "reference": "urn:uuid:62480d3b-bc3e-44b2-b530-29d3c4027acb",
          "display": "Meaghan Neary"
        },
        "effectiveDateTime": "2025-07-15T22:11:04Z"
      }
    },
    {
      "fullUrl": "urn:uuid:9dc369e2-a704-47e9-9d7b-5163e7a952a5",
      "resource": {
        "resourceType": "Observation",
        "id": "9dc369e2-a704-47e9-9d7b-5163e7a952a5",
        "meta": {
          "profile": [
            "http://hl7.eu/fhir/laboratory/StructureDefinition/Observation-resultslab-eu-lab"
          ]
        },
        "performer": [
          {
            "display": "The Central European Lab"
          }
        ],
        "category": [
          {
            "coding": [
              {
                "system": "http://terminology.hl7.org/CodeSystem/observation-category",
                "code": "laboratory"
              }
            ]
          }
        ],
        "code": {
          "coding": [
            {
              "code": "2885-2",
              "system": "http://loinc.org",
              "display": "Protein [Mass/volume] in Serum or Plasma"
            }
          ],
          "text": "Protein [Mass/volume] in Serum or Plasma"
        },
        "valueQuantity": {
          "system": "http://unitsofmeasure.org",
          "value": 6.7,
          "unit": "g/dL",
          "code": "g/dL"
        },
        "referenceRange": [
          {
            "low": {
              "value": 6,
              "code": "g/dL",
              "system": "http://unitsofmeasure.org"
            }
          },
          {
            "high": {
              "value": 8.3,
              "code": "g/dL",
              "system": "http://unitsofmeasure.org"
            }
          }
        ],
        "text": {
          "status": "generated",
          "div": "<div xmlns=\"http://www.w3.org/1999/xhtml\"><table class=\"hl7__eu__lab__report\"><tr><th>Test</th><th>16-Jul-2025</th><th>Reference&#xA0;Range</th><th>Unit</th></tr><tr><td>Protein [Mass/volume] in Serum or Plasma</td><td>6.7</td><td>6 - 8.3</td><td></td><td>g/dL</td></tr></table></div>"
        },
        "status": "final",
        "subject": {
          "reference": "urn:uuid:62480d3b-bc3e-44b2-b530-29d3c4027acb",
          "display": "Meaghan Neary"
        },
        "effectiveDateTime": "2025-07-15T22:11:04Z"
      }
    },
    {
      "fullUrl": "urn:uuid:5016659a-1e30-4320-bdc2-59fe5abbbea3",
      "resource": {
        "resourceType": "Observation",
        "id": "5016659a-1e30-4320-bdc2-59fe5abbbea3",
        "meta": {
          "profile": [
            "http://hl7.eu/fhir/laboratory/StructureDefinition/Observation-resultslab-eu-lab"
          ]
        },
        "performer": [
          {
            "display": "The Central European Lab"
          }
        ],
        "category": [
          {
            "coding": [
              {
                "system": "http://terminology.hl7.org/CodeSystem/observation-category",
                "code": "laboratory"
              }
            ]
          }
        ],
        "code": {
          "coding": [
            {
              "code": "1751-7",
              "system": "http://loinc.org",
              "display": "Albumin [Mass/volume] in Serum or Plasma"
            }
          ],
          "text": "Albumin [Mass/volume] in Serum or Plasma"
        },
        "valueQuantity": {
          "system": "http://unitsofmeasure.org",
          "value": 5.2,
          "unit": "g/dL",
          "code": "g/dL"
        },
        "referenceRange": [
          {
            "low": {
              "value": 3.5,
              "code": "g/dL",
              "system": "http://unitsofmeasure.org"
            }
          },
          {
            "high": {
              "value": 5.5,
              "code": "g/dL",
              "system": "http://unitsofmeasure.org"
            }
          }
        ],
        "text": {
          "status": "generated",
          "div": "<div xmlns=\"http://www.w3.org/1999/xhtml\"><table class=\"hl7__eu__lab__report\"><tr><th>Test</th><th>16-Jul-2025</th><th>Reference&#xA0;Range</th><th>Unit</th></tr><tr><td>Albumin [Mass/volume] in Serum or Plasma</td><td>5.2</td><td>3.5 - 5.5</td><td></td><td>g/dL</td></tr></table></div>"
        },
        "status": "final",
        "subject": {
          "reference": "urn:uuid:62480d3b-bc3e-44b2-b530-29d3c4027acb",
          "display": "Meaghan Neary"
        },
        "effectiveDateTime": "2025-07-15T22:11:04Z"
      }
    },
    {
      "fullUrl": "urn:uuid:3506b0dc-269e-41f6-a566-c21812b2c1d6",
      "resource": {
        "resourceType": "Observation",
        "id": "3506b0dc-269e-41f6-a566-c21812b2c1d6",
        "meta": {
          "profile": [
            "http://hl7.eu/fhir/laboratory/StructureDefinition/Observation-resultslab-eu-lab"
          ]
        },
        "performer": [
          {
            "display": "The Central European Lab"
          }
        ],
        "category": [
          {
            "coding": [
              {
                "system": "http://terminology.hl7.org/CodeSystem/observation-category",
                "code": "laboratory"
              }
            ]
          }
        ],
        "code": {
          "coding": [
            {
              "code": "10834-0",
              "system": "http://loinc.org",
              "display": "Globulin [Mass/volume] in Serum by calculation"
            }
          ],
          "text": "Globulin [Mass/volume] in Serum by calculation"
        },
        "valueQuantity": {
          "system": "http://unitsofmeasure.org",
          "value": 3.2,
          "unit": "g/L",
          "code": "g/L"
        },
        "referenceRange": [
          {
            "low": {
              "value": 2,
              "code": "g/L",
              "system": "http://unitsofmeasure.org"
            }
          },
          {
            "high": {
              "value": 3.5,
              "code": "g/L",
              "system": "http://unitsofmeasure.org"
            }
          }
        ],
        "text": {
          "status": "generated",
          "div": "<div xmlns=\"http://www.w3.org/1999/xhtml\"><table class=\"hl7__eu__lab__report\"><tr><th>Test</th><th>16-Jul-2025</th><th>Reference&#xA0;Range</th><th>Unit</th></tr><tr><td>Globulin [Mass/volume] in Serum by calculation</td><td>3.2</td><td>2 - 3.5</td><td></td><td>g/L</td></tr></table></div>"
        },
        "status": "final",
        "subject": {
          "reference": "urn:uuid:62480d3b-bc3e-44b2-b530-29d3c4027acb",
          "display": "Meaghan Neary"
        },
        "effectiveDateTime": "2025-07-15T22:11:04Z"
      }
    },
    {
      "fullUrl": "urn:uuid:fbdd6c19-6840-425f-9df4-d4828f31fe52",
      "resource": {
        "resourceType": "Observation",
        "id": "fbdd6c19-6840-425f-9df4-d4828f31fe52",
        "meta": {
          "profile": [
            "http://hl7.eu/fhir/laboratory/StructureDefinition/Observation-resultslab-eu-lab"
          ]
        },
        "performer": [
          {
            "display": "The Central European Lab"
          }
        ],
        "category": [
          {
            "coding": [
              {
                "system": "http://terminology.hl7.org/CodeSystem/observation-category",
                "code": "laboratory"
              }
            ]
          }
        ],
        "code": {
          "coding": [
            {
              "code": "1975-2",
              "system": "http://loinc.org",
              "display": "Bilirubin.total [Mass/volume] in Serum or Plasma"
            }
          ],
          "text": "Bilirubin.total [Mass/volume] in Serum or Plasma"
        },
        "valueQuantity": {
          "system": "http://unitsofmeasure.org",
          "value": 0.1,
          "unit": "mg/dL",
          "code": "mg/dL"
        },
        "referenceRange": [
          {
            "low": {
              "value": 0.3,
              "code": "mg/dL",
              "system": "http://unitsofmeasure.org"
            }
          },
          {
            "high": {
              "value": 1.2,
              "code": "mg/dL",
              "system": "http://unitsofmeasure.org"
            }
          }
        ],
        "interpretation": [
          {
            "coding": [
              {
                "code": "L",
                "system": "http://terminology.hl7.org/CodeSystem/v3-ObservationInterpretation",
                "display": "Low"
              }
            ]
          }
        ],
        "text": {
          "status": "generated",
          "div": "<div xmlns=\"http://www.w3.org/1999/xhtml\"><table class=\"hl7__eu__lab__report\"><tr><th>Test</th><th>16-Jul-2025</th><th>Reference&#xA0;Range</th><th>Unit</th></tr><tr><td>Bilirubin.total [Mass/volume] in Serum or Plasma</td><td>0.1</td><td>0.3 - 1.2</td><td>L</td><td>mg/dL</td></tr></table></div>"
        },
        "status": "final",
        "subject": {
          "reference": "urn:uuid:62480d3b-bc3e-44b2-b530-29d3c4027acb",
          "display": "Meaghan Neary"
        },
        "effectiveDateTime": "2025-07-15T22:11:04Z"
      }
    },
    {
      "fullUrl": "urn:uuid:3e7408ee-8fb6-463d-ba6e-e37aedaf4020",
      "resource": {
        "resourceType": "Observation",
        "id": "3e7408ee-8fb6-463d-ba6e-e37aedaf4020",
        "meta": {
          "profile": [
            "http://hl7.eu/fhir/laboratory/StructureDefinition/Observation-resultslab-eu-lab"
          ]
        },
        "performer": [
          {
            "display": "The Central European Lab"
          }
        ],
        "category": [
          {
            "coding": [
              {
                "system": "http://terminology.hl7.org/CodeSystem/observation-category",
                "code": "laboratory"
              }
            ]
          }
        ],
        "code": {
          "coding": [
            {
              "code": "6768-6",
              "system": "http://loinc.org",
              "display": "Alkaline phosphatase [Enzymatic activity/volume] in Serum or Plasma"
            }
          ],
          "text": "Alkaline phosphatase [Enzymatic activity/volume] in Serum or Plasma"
        },
        "valueQuantity": {
          "system": "http://unitsofmeasure.org",
          "value": 80.2,
          "unit": "U/L",
          "code": "U/L"
        },
        "referenceRange": [
          {
            "low": {
              "value": 44,
              "code": "U/L",
              "system": "http://unitsofmeasure.org"
            }
          },
          {
            "high": {
              "value": 130,
              "code": "U/L",
              "system": "http://unitsofmeasure.org"
            }
          }
        ],
        "text": {
          "status": "generated",
          "div": "<div xmlns=\"http://www.w3.org/1999/xhtml\"><table class=\"hl7__eu__lab__report\"><tr><th>Test</th><th>16-Jul-2025</th><th>Reference&#xA0;Range</th><th>Unit</th></tr><tr><td>Alkaline phosphatase [Enzymatic activity/volume] in Serum or Plasma</td><td>80.2</td><td>44 - 130</td><td></td><td>U/L</td></tr></table></div>"
        },
        "status": "final",
        "subject": {
          "reference": "urn:uuid:62480d3b-bc3e-44b2-b530-29d3c4027acb",
          "display": "Meaghan Neary"
        },
        "effectiveDateTime": "2025-07-15T22:11:04Z"
      }
    },
    {
      "fullUrl": "urn:uuid:4f1d9078-98f2-4dfd-8b98-e5269c1e531a",
      "resource": {
        "resourceType": "Observation",
        "id": "4f1d9078-98f2-4dfd-8b98-e5269c1e531a",
        "meta": {
          "profile": [
            "http://hl7.eu/fhir/laboratory/StructureDefinition/Observation-resultslab-eu-lab"
          ]
        },
        "performer": [
          {
            "display": "The Central European Lab"
          }
        ],
        "category": [
          {
            "coding": [
              {
                "system": "http://terminology.hl7.org/CodeSystem/observation-category",
                "code": "laboratory"
              }
            ]
          }
        ],
        "code": {
          "coding": [
            {
              "code": "1742-6",
              "system": "http://loinc.org",
              "display": "Alanine aminotransferase [Enzymatic activity/volume] in Serum or Plasma"
            }
          ],
          "text": "Alanine aminotransferase [Enzymatic activity/volume] in Serum or Plasma"
        },
        "valueQuantity": {
          "system": "http://unitsofmeasure.org",
          "value": 53.4,
          "unit": "U/L",
          "code": "U/L"
        },
        "referenceRange": [
          {
            "low": {
              "value": 0,
              "code": "U/L",
              "system": "http://unitsofmeasure.org"
            }
          },
          {
            "high": {
              "value": 55,
              "code": "U/L",
              "system": "http://unitsofmeasure.org"
            }
          }
        ],
        "text": {
          "status": "generated",
          "div": "<div xmlns=\"http://www.w3.org/1999/xhtml\"><table class=\"hl7__eu__lab__report\"><tr><th>Test</th><th>16-Jul-2025</th><th>Reference&#xA0;Range</th><th>Unit</th></tr><tr><td>Alanine aminotransferase [Enzymatic activity/volume] in Serum or Plasma</td><td>53.4</td><td>0 - 55</td><td></td><td>U/L</td></tr></table></div>"
        },
        "status": "final",
        "subject": {
          "reference": "urn:uuid:62480d3b-bc3e-44b2-b530-29d3c4027acb",
          "display": "Meaghan Neary"
        },
        "effectiveDateTime": "2025-07-15T22:11:04Z"
      }
    },
    {
      "fullUrl": "urn:uuid:b855fca9-702d-463c-94bd-6b9c0b0c2b31",
      "resource": {
        "resourceType": "Observation",
        "id": "b855fca9-702d-463c-94bd-6b9c0b0c2b31",
        "meta": {
          "profile": [
            "http://hl7.eu/fhir/laboratory/StructureDefinition/Observation-resultslab-eu-lab"
          ]
        },
        "performer": [
          {
            "display": "The Central European Lab"
          }
        ],
        "category": [
          {
            "coding": [
              {
                "system": "http://terminology.hl7.org/CodeSystem/observation-category",
                "code": "laboratory"
              }
            ]
          }
        ],
        "code": {
          "coding": [
            {
              "code": "1920-8",
              "system": "http://loinc.org",
              "display": "Aspartate aminotransferase [Enzymatic activity/volume] in Serum or Plasma"
            }
          ],
          "text": "Aspartate aminotransferase [Enzymatic activity/volume] in Serum or Plasma"
        },
        "valueQuantity": {
          "system": "http://unitsofmeasure.org",
          "value": 10.6,
          "unit": "U/L",
          "code": "U/L"
        },
        "referenceRange": [
          {
            "low": {
              "value": 10,
              "code": "U/L",
              "system": "http://unitsofmeasure.org"
            }
          },
          {
            "high": {
              "value": 40,
              "code": "U/L",
              "system": "http://unitsofmeasure.org"
            }
          }
        ],
        "text": {
          "status": "generated",
          "div": "<div xmlns=\"http://www.w3.org/1999/xhtml\"><table class=\"hl7__eu__lab__report\"><tr><th>Test</th><th>16-Jul-2025</th><th>Reference&#xA0;Range</th><th>Unit</th></tr><tr><td>Aspartate aminotransferase [Enzymatic activity/volume] in Serum or Plasma</td><td>10.6</td><td>10 - 40</td><td></td><td>U/L</td></tr></table></div>"
        },
        "status": "final",
        "subject": {
          "reference": "urn:uuid:62480d3b-bc3e-44b2-b530-29d3c4027acb",
          "display": "Meaghan Neary"
        },
        "effectiveDateTime": "2025-07-15T22:11:04Z"
      }
    },
    {
      "fullUrl": "urn:uuid:8aa94eb0-e771-49a9-b0a9-e67d87048b48",
      "resource": {
        "resourceType": "Observation",
        "id": "8aa94eb0-e771-49a9-b0a9-e67d87048b48",
        "meta": {
          "profile": [
            "http://hl7.eu/fhir/laboratory/StructureDefinition/Observation-resultslab-eu-lab"
          ]
        },
        "performer": [
          {
            "display": "The Central European Lab"
          }
        ],
        "category": [
          {
            "coding": [
              {
                "system": "http://terminology.hl7.org/CodeSystem/observation-category",
                "code": "laboratory"
              }
            ]
          }
        ],
        "code": {
          "coding": [
            {
              "code": "2093-3",
              "system": "http://loinc.org",
              "display": "Cholesterol [Mass/volume] in Serum or Plasma"
            }
          ],
          "text": "Cholesterol [Mass/volume] in Serum or Plasma"
        },
        "valueQuantity": {
          "system": "http://unitsofmeasure.org",
          "value": 199.1,
          "unit": "mg/dL",
          "code": "mg/dL"
        },
        "referenceRange": [
          {
            "low": {
              "value": 125,
              "code": "mg/dL",
              "system": "http://unitsofmeasure.org"
            }
          },
          {
            "high": {
              "value": 239,
              "code": "mg/dL",
              "system": "http://unitsofmeasure.org"
            }
          }
        ],
        "text": {
          "status": "generated",
          "div": "<div xmlns=\"http://www.w3.org/1999/xhtml\"><table class=\"hl7__eu__lab__report\"><tr><th>Test</th><th>16-Jul-2025</th><th>Reference&#xA0;Range</th><th>Unit</th></tr><tr><td>Cholesterol [Mass/volume] in Serum or Plasma</td><td>199.1</td><td>125 - 239</td><td></td><td>mg/dL</td></tr></table></div>"
        },
        "status": "final",
        "subject": {
          "reference": "urn:uuid:62480d3b-bc3e-44b2-b530-29d3c4027acb",
          "display": "Meaghan Neary"
        },
        "effectiveDateTime": "2025-07-15T22:11:04Z"
      }
    },
    {
      "fullUrl": "urn:uuid:37cb845d-7b5f-493b-a09a-04f2b423c8c5",
      "resource": {
        "resourceType": "Observation",
        "id": "37cb845d-7b5f-493b-a09a-04f2b423c8c5",
        "meta": {
          "profile": [
            "http://hl7.eu/fhir/laboratory/StructureDefinition/Observation-resultslab-eu-lab"
          ]
        },
        "performer": [
          {
            "display": "The Central European Lab"
          }
        ],
        "category": [
          {
            "coding": [
              {
                "system": "http://terminology.hl7.org/CodeSystem/observation-category",
                "code": "laboratory"
              }
            ]
          }
        ],
        "code": {
          "coding": [
            {
              "code": "2571-8",
              "system": "http://loinc.org",
              "display": "Triglyceride [Mass/volume] in Serum or Plasma"
            }
          ],
          "text": "Triglyceride [Mass/volume] in Serum or Plasma"
        },
        "valueQuantity": {
          "system": "http://unitsofmeasure.org",
          "value": 113.4,
          "unit": "mg/dL",
          "code": "mg/dL"
        },
        "text": {
          "status": "generated",
          "div": "<div xmlns=\"http://www.w3.org/1999/xhtml\"><table class=\"hl7__eu__lab__report\"><tr><th>Test</th><th>16-Jul-2025</th><th>Reference&#xA0;Range</th><th>Unit</th></tr><tr><td>Triglyceride [Mass/volume] in Serum or Plasma</td><td>113.4</td><td>mg/dL</td></tr></table></div>"
        },
        "status": "final",
        "subject": {
          "reference": "urn:uuid:62480d3b-bc3e-44b2-b530-29d3c4027acb",
          "display": "Meaghan Neary"
        },
        "effectiveDateTime": "2025-07-15T22:11:04Z"
      }
    },
    {
      "fullUrl": "urn:uuid:8830ea51-77f3-43e7-9673-b740bdcbb509",
      "resource": {
        "resourceType": "Observation",
        "id": "8830ea51-77f3-43e7-9673-b740bdcbb509",
        "meta": {
          "profile": [
            "http://hl7.eu/fhir/laboratory/StructureDefinition/Observation-resultslab-eu-lab"
          ]
        },
        "performer": [
          {
            "display": "The Central European Lab"
          }
        ],
        "category": [
          {
            "coding": [
              {
                "system": "http://terminology.hl7.org/CodeSystem/observation-category",
                "code": "laboratory"
              }
            ]
          }
        ],
        "code": {
          "coding": [
            {
              "code": "18262-6",
              "system": "http://loinc.org",
              "display": "Cholesterol in LDL [Mass/volume] in Serum or Plasma by Direct assay"
            }
          ],
          "text": "Cholesterol in LDL [Mass/volume] in Serum or Plasma by Direct assay"
        },
        "valueQuantity": {
          "system": "http://unitsofmeasure.org",
          "value": 142.4,
          "unit": "mg/dL",
          "code": "mg/dL"
        },
        "referenceRange": [
          {
            "low": {
              "value": 0,
              "code": "mg/dL",
              "system": "http://unitsofmeasure.org"
            }
          },
          {
            "high": {
              "value": 130,
              "code": "mg/dL",
              "system": "http://unitsofmeasure.org"
            }
          }
        ],
        "interpretation": [
          {
            "coding": [
              {
                "code": "H",
                "system": "http://terminology.hl7.org/CodeSystem/v3-ObservationInterpretation",
                "display": "High"
              }
            ]
          }
        ],
        "text": {
          "status": "generated",
          "div": "<div xmlns=\"http://www.w3.org/1999/xhtml\"><table class=\"hl7__eu__lab__report\"><tr><th>Test</th><th>16-Jul-2025</th><th>Reference&#xA0;Range</th><th>Unit</th></tr><tr><td>Cholesterol in LDL [Mass/volume] in Serum or Plasma by Direct assay</td><td>142.4</td><td>0 - 130</td><td>H</td><td>mg/dL</td></tr></table></div>"
        },
        "status": "final",
        "subject": {
          "reference": "urn:uuid:62480d3b-bc3e-44b2-b530-29d3c4027acb",
          "display": "Meaghan Neary"
        },
        "effectiveDateTime": "2025-07-15T22:11:04Z"
      }
    },
    {
      "fullUrl": "urn:uuid:4cd1af7e-8d83-4790-b69a-3a5b75bde724",
      "resource": {
        "resourceType": "Observation",
        "id": "4cd1af7e-8d83-4790-b69a-3a5b75bde724",
        "meta": {
          "profile": [
            "http://hl7.eu/fhir/laboratory/StructureDefinition/Observation-resultslab-eu-lab"
          ]
        },
        "performer": [
          {
            "display": "The Central European Lab"
          }
        ],
        "category": [
          {
            "coding": [
              {
                "system": "http://terminology.hl7.org/CodeSystem/observation-category",
                "code": "laboratory"
              }
            ]
          }
        ],
        "code": {
          "coding": [
            {
              "code": "2085-9",
              "system": "http://loinc.org",
              "display": "Cholesterol in HDL [Mass/volume] in Serum or Plasma"
            }
          ],
          "text": "Cholesterol in HDL [Mass/volume] in Serum or Plasma"
        },
        "valueQuantity": {
          "system": "http://unitsofmeasure.org",
          "value": 74.2,
          "unit": "mg/dL",
          "code": "mg/dL"
        },
        "referenceRange": [
          {
            "low": {
              "value": 50,
              "code": "mg/dL",
              "system": "http://unitsofmeasure.org"
            }
          },
          {
            "high": {
              "value": 100,
              "code": "mg/dL",
              "system": "http://unitsofmeasure.org"
            }
          }
        ],
        "text": {
          "status": "generated",
          "div": "<div xmlns=\"http://www.w3.org/1999/xhtml\"><table class=\"hl7__eu__lab__report\"><tr><th>Test</th><th>16-Jul-2025</th><th>Reference&#xA0;Range</th><th>Unit</th></tr><tr><td>Cholesterol in HDL [Mass/volume] in Serum or Plasma</td><td>74.2</td><td>50 - 100</td><td></td><td>mg/dL</td></tr></table></div>"
        },
        "status": "final",
        "subject": {
          "reference": "urn:uuid:62480d3b-bc3e-44b2-b530-29d3c4027acb",
          "display": "Meaghan Neary"
        },
        "effectiveDateTime": "2025-07-15T22:11:04Z"
      }
    },
    {
      "fullUrl": "urn:uuid:99865356-3147-4c79-8fbf-7f7488bc81de",
      "resource": {
        "resourceType": "DeviceUseStatement",
        "id": "99865356-3147-4c79-8fbf-7f7488bc81de",
        "meta": {
          "profile": [
            "http://hl7.eu/fhir/eps/StructureDefinition/deviceUseStatement-eu-eps"
          ]
        },
        "timingPeriod": {
          "start": "1994-05-09"
        },
        "text": {
          "status": "generated",
          "div": "<div xmlns=\"http://www.w3.org/1999/xhtml\"><table class=\"hl7__ips\"><tr><td>Blood glucose meter (physical object)</td><td><span class=\"nb\">09-May-1994</span></td></tr></table></div>"
        },
        "status": "active",
        "device": {
          "reference": "urn:uuid:95f88dbc-f11a-4585-99b6-af83fc03b649",
          "display": "Blood glucose meter (physical object)"
        },
        "subject": {
          "reference": "urn:uuid:62480d3b-bc3e-44b2-b530-29d3c4027acb",
          "display": "Meaghan Neary"
        }
      }
    },
    {
      "fullUrl": "urn:uuid:95f88dbc-f11a-4585-99b6-af83fc03b649",
      "resource": {
        "resourceType": "Device",
        "id": "95f88dbc-f11a-4585-99b6-af83fc03b649",
        "meta": {
          "profile": [
            "http://hl7.eu/fhir/eps/StructureDefinition/device-eu-eps"
          ]
        },
        "udiCarrier": [
          {
            "id": "(01)85449348988650(11)940419(17)190504(10)235887680234(21)8357"
          }
        ],
        "status": "active",
        "patient": {
          "reference": "urn:uuid:62480d3b-bc3e-44b2-b530-29d3c4027acb",
          "display": "Meaghan Neary"
        },
        "type": {
          "coding": [
            {
              "code": "337414009",
              "system": "http://snomed.info/sct",
              "display": "Blood glucose meter (physical object)"
            }
          ]
        }
      }
    },
    {
      "fullUrl": "urn:uuid:e1e167ce-0769-4e4e-85b4-3f8d55541214",
      "resource": {
        "resourceType": "Device",
        "id": "e1e167ce-0769-4e4e-85b4-3f8d55541214",
        "deviceName": [
          {
            "name": "SYNDERAI Synthetic Generator",
            "type": "manufacturer-name"
          }
        ],
        "version": [
          {
            "value": "5.0"
          }
        ],
        "text": {
          "status": "generated",
          "div": "<div xmlns=\"http://www.w3.org/1999/xhtml\">SYNDERAI Synthetic Generator v5.0</div>"
        },
        "status": "active\"",
        "distinctIdentifier": "synderai-generator-50",
        "manufacturer": "SYNDERAI Project"
      }
    },
    {
      "fullUrl": "urn:uuid:409e480d-696a-4f1d-8279-8827d85e56cd",
      "resource": {
        "resourceType": "Provenance",
        "id": "409e480d-696a-4f1d-8279-8827d85e56cd",
        "target": [
          {
            "reference": "Patient/62480d3b-bc3e-44b2-b530-29d3c4027acb"
          },
          {
            "reference": "Bundle/9f427350-800e-4665-b479-54c3dc978dbd"
          },
          {
            "reference": "Composition/f54ed6ec-b66f-4a19-a457-7dc41db27d52"
          },
          {
            "reference": "PractitionerRole/8c473960-0099-46ab-a4e1-71bb0fc52514"
          },
          {
            "reference": "Organization/62088d92-b336-44eb-b1dc-a30b8080d6e6"
          },
          {
            "reference": "Practitioner/4777f485-22c6-469a-b68d-07ac062b9878"
          }
        ],
        "activity": {
          "text": "Synthetic Example Data Generation"
        },
        "policy": [
          "https://synderai.net/synderai-synthetic-data-policy"
        ],
        "agent": [
          {
            "type": {
              "text": "author"
            },
            "who": {
              "reference": "Device/e1e167ce-0769-4e4e-85b4-3f8d55541214"
            }
          }
        ],
        "reason": [
          {
            "text": "Interoperability Testing and Training (non-clinical use)"
          }
        ],
        "text": {
          "status": "generated",
          "div": "<div xmlns=\"http://www.w3.org/1999/xhtml\">Provenance for SYNDERAI Synthetic Example Data Resource</div>"
        },
        "recorded": "2025-07-15T22:11:04Z"
      }
    }
  ],
  "type": "document",
  "timestamp": "2025-07-15T22:11:04Z"
}
