{
  "resourceType": "Bundle",
  "id": "0831eb9c-d798-437e-bd0c-79864d633419",
  "meta": {
    "profile": [
      "http://hl7.eu/fhir/eps/StructureDefinition/bundle-eu-eps"
    ]
  },
  "identifier": {
    "assigner": {
      "display": "HL7 Europe"
    },
    "system": "urn:oid:2.16.840.1.113883.2.51.999",
    "value": "f4daa8aa-60e7-4aaf-8ee3-97c332504dce"
  },
  "entry": [
    {
      "fullUrl": "urn:uuid:471cfbda-0358-433c-8ea6-9323959595f2",
      "resource": {
        "resourceType": "Composition",
        "id": "471cfbda-0358-433c-8ea6-9323959595f2",
        "meta": {
          "security": [
            {
              "system": "http://terminology.hl7.org/CodeSystem/v3-ActReason",
              "code": "HTEST"
            },
            {
              "system": "http://terminology.hl7.org/CodeSystem/v3-ActReason",
              "code": "TRAIN"
            }
          ],
          "tag": [
            {
              "system": "https://synderai.net/fhir/CodeSystem/tags",
              "code": "synthetic",
              "display": "SYNDERAI Synthetic data"
            }
          ],
          "profile": [
            "http://hl7.eu/fhir/eps/StructureDefinition/composition-eu-eps"
          ]
        },
        "identifier": {
          "assigner": {
            "display": "HL7 Europe"
          },
          "system": "urn:oid:2.16.840.1.113883.2.51.999",
          "value": "1e8b3cb6-fd1d-461e-96f4-05318501c5e2"
        },
        "type": {
          "coding": [
            {
              "system": "http://loinc.org",
              "code": "60591-5",
              "display": "Patient summary Document"
            }
          ],
          "text": "Patient summary Document"
        },
        "author": [
          {
            "reference": "urn:uuid:37998c51-a508-4b6b-9017-1a17d177e970"
          }
        ],
        "section": [
          {
            "text": {
              "status": "generated",
              "div": "<div xmlns=\"http://www.w3.org/1999/xhtml\"><table class=\"hl7__ips\"><tr><th>Condition</th><th>Onset Date</th><th>Status</th></tr><tr><td>Fibromyalgia</td><td><span class=\"nb\">05-Feb-2014</span></td><td>active</td></tr><tr><td>Osteoarthritis of knee</td><td><span class=\"nb\">19-Mar-2008</span></td><td>active</td></tr><tr><td>Hyperlipidemia</td><td><span class=\"nb\">23-Dec-1996</span></td><td>active</td></tr><tr><td>Malignant neoplasm of breast</td><td><span class=\"nb\">05-May-1988</span></td><td>active</td></tr><tr><td>Recurrent urinary tract infection</td><td><span class=\"nb\">14-May-1973</span></td><td>active</td></tr></table></div>"
            },
            "entry": [
              {
                "reference": "urn:uuid:8818cbe5-be76-4c55-b95f-04d8aaa21e14"
              },
              {
                "reference": "urn:uuid:5782ea9d-e914-4766-8ea7-6fff51a71fbc"
              },
              {
                "reference": "urn:uuid:e6403148-dd6d-4de0-886c-1332b7b57604"
              },
              {
                "reference": "urn:uuid:4ee3ae0a-0e1a-4edb-b497-64f8cbc1e9e9"
              },
              {
                "reference": "urn:uuid:4776e2ff-860f-4b93-b90b-be34cc92e798"
              }
            ],
            "code": {
              "coding": [
                {
                  "system": "http://loinc.org",
                  "code": "11450-4",
                  "display": "Problem list - Reported"
                }
              ]
            },
            "title": "Problem list"
          },
          {
            "text": {
              "status": "generated",
              "div": "<div xmlns=\"http://www.w3.org/1999/xhtml\"><table class=\"hl7__ips\"><tr><th>Medication</th><th>Since</th><th>Form</th><th>Dosage</th><th>Reason</th></tr><tr><td>Simvastatin 10 mg oral tablet</td><td><span class=\"nb\">2025-05-05</span></td><td>-</td><td>1 tablet (10 mg) by mouth once daily</td><td>Hyperlipidemia</td></tr><tr><td>Naproxen sodium 220 mg oral capsule</td><td><span class=\"nb\">2008-03-19</span></td><td>-</td><td>1 capsule (220 mg) by mouth every 12 hours as needed</td><td>Osteoarthritis of knee</td></tr></table></div>"
            },
            "entry": [
              {
                "reference": "urn:uuid:ebd47b2e-2e6c-411a-899e-8974146b8e45"
              },
              {
                "reference": "urn:uuid:5239ddff-58ef-4504-b900-9032067b9f06"
              }
            ],
            "code": {
              "coding": [
                {
                  "system": "http://loinc.org",
                  "code": "10160-0",
                  "display": "History of Medication use Narrative"
                }
              ]
            },
            "title": "Medication list"
          },
          {
            "text": {
              "status": "generated",
              "div": "<div xmlns=\"http://www.w3.org/1999/xhtml\"><table class=\"hl7__ips\"><tr><th>Vaccine</th><th>Date</th></tr><tr><td>Influenza virus antigen only vaccine product</td><td><span class=\"nb\">28-Apr-2025</span></td></tr><tr><td>SARS-CoV-2 mRNA vaccine</td><td><span class=\"nb\">22-Feb-2021</span></td></tr><tr><td>Clostridium tetani toxoid antigen adsorbed only vaccine product</td><td><span class=\"nb\">30-Mar-2020</span></td></tr></table></div>"
            },
            "entry": [
              {
                "reference": "urn:uuid:65160444-dbeb-46f2-9c03-f6738c0c0d3e"
              },
              {
                "reference": "urn:uuid:9cd9cb81-1c6b-4a91-824b-b50c2de3663b"
              },
              {
                "reference": "urn:uuid:38e31493-bcd7-449d-bdd8-dd12a17ecdd7"
              }
            ],
            "code": {
              "coding": [
                {
                  "system": "http://loinc.org",
                  "code": "11369-6",
                  "display": "History of Immunization note"
                }
              ]
            },
            "title": "Immunizations list"
          },
          {
            "text": {
              "status": "generated",
              "div": "<div xmlns=\"http://www.w3.org/1999/xhtml\"><table class=\"hl7__ips\"><tr><th>Procedure</th><th>Date</th><th>Reason</th></tr><tr><td>Suture open wound</td><td><span class=\"nb\">20-Jun-2024</span></td><td>Facial laceration</td></tr><tr><td>Injection of tetanus antitoxin</td><td><span class=\"nb\">20-Jun-2024</span></td><td>Facial laceration</td></tr><tr><td>Patient discharge</td><td><span class=\"nb\">17-Dec-2023</span></td><td>-</td></tr><tr><td>Hospice care</td><td><span class=\"nb\">16-Dec-2023</span></td><td>-</td></tr><tr><td>Notifications</td><td><span class=\"nb\">04-Dec-2023</span></td><td>-</td></tr><tr><td>Certification procedure</td><td><span class=\"nb\">04-Dec-2023</span></td><td>-</td></tr><tr><td>Initial patient assessment</td><td><span class=\"nb\">04-Dec-2023</span></td><td>-</td></tr><tr><td>Development of individualized plan of care</td><td><span class=\"nb\">04-Dec-2023</span></td><td>-</td></tr></table></div>"
            },
            "entry": [
              {
                "reference": "urn:uuid:31ead8fb-1b70-4f46-959c-1c5080cc7980"
              },
              {
                "reference": "urn:uuid:c41ec52e-cab2-4c26-bdbb-ee3120886746"
              },
              {
                "reference": "urn:uuid:97cbd080-ebbb-4d75-8337-2700736b7889"
              },
              {
                "reference": "urn:uuid:9e99d5d8-ad9b-4624-aefc-7d5a71bc1dda"
              },
              {
                "reference": "urn:uuid:3565e72f-ab1d-43c0-b5f4-a40aabc8d747"
              },
              {
                "reference": "urn:uuid:507c1317-6f40-4ce8-8ddd-93c4a415f493"
              },
              {
                "reference": "urn:uuid:33ee085d-1ae5-4a13-bdc0-1a939000fe8f"
              },
              {
                "reference": "urn:uuid:4324f130-2cf0-4bdc-b005-fe44c9a75de4"
              }
            ],
            "code": {
              "coding": [
                {
                  "system": "http://loinc.org",
                  "code": "47519-4",
                  "display": "History of Procedures Document"
                }
              ]
            },
            "title": "Procedure History list"
          },
          {
            "text": {
              "status": "generated",
              "div": "<div xmlns=\"http://www.w3.org/1999/xhtml\"><table class=\"hl7__ips\"><tr><th>Allergy/Intolerance</th><th>Onset Date</th><th>Status</th><th>Type</th><th>Reaction</th></tr><tr><td></td><td>?</td><td>active</td><td>?</td><td></td></tr></table></div>"
            },
            "entry": [
              {
                "reference": "urn:uuid:ce83c051-0794-4805-bdb3-9d9bc100ec76"
              }
            ],
            "code": {
              "coding": [
                {
                  "system": "http://loinc.org",
                  "code": "48765-2",
                  "display": "Allergies and adverse reactions Document"
                }
              ]
            },
            "title": "Allergies and Intolerances"
          },
          {
            "text": {
              "status": "generated",
              "div": "<div xmlns=\"http://www.w3.org/1999/xhtml\"><table class=\"hl7__ips\"><tr><th>Active Planned Care / Goals</th><th>Start Date</th><th>Reason</th></tr><tr><td>Musculoskeletal care</td><td><span class=\"nb\">19-Mar-2008</span></td><td>Osteoarthritis of knee</td></tr><tr><td><ul><li>Reduce knee pain severity to a tolerable level to improve mobility and quality of life</li><li>Increase ability to walk and perform daily activities without significant limitation from knee osteoarthritis</li><li>Engage in at least 30 minutes of moderate physical activity most days of the week as tolerated</li></ul></td><td></td><td></td></tr><tr><td>Hyperlipidemia clinical management plan</td><td><span class=\"nb\">13-Jan-1997</span></td><td>Hyperlipidemia</td></tr><tr><td><ul><li>Achieve and maintain LDL cholesterol below 2.6 mmol/L</li><li>Achieve and maintain total cholesterol below 5.2 mmol/L</li><li>Maintain HDL cholesterol above 1.3 mmol/L</li><li>Achieve and maintain triglycerides below 1.7 mmol/L</li></ul></td><td></td><td></td></tr><tr><th>Immunization Recommendation</th><th>Due Date</th><th>Reason</th></tr><tr><td>Vaccine product containing only Influenza virus antigen (medicinal product)</td><td><span class=\"nb\">01-Oct-2025</span></td><td>Annual seasonal influenza vaccination</td></tr></table></div>"
            },
            "entry": [
              {
                "reference": "urn:uuid:851606b1-b469-4846-8b50-3d268ec80c0b"
              },
              {
                "reference": "urn:uuid:035554c7-cd6e-4c6a-9f85-0676f763bf86"
              },
              {
                "reference": "urn:uuid:7f90c03c-7c45-4198-86b5-12e886ac99a9"
              }
            ],
            "code": {
              "coding": [
                {
                  "system": "http://loinc.org",
                  "code": "18776-5",
                  "display": "Plan of care note"
                }
              ]
            },
            "title": "Care Plan"
          },
          {
            "text": {
              "status": "generated",
              "div": "<div xmlns=\"http://www.w3.org/1999/xhtml\"><table class=\"hl7__ips\"><tr><th>Vital Signs</th><th>2025-04-28</th><th>2024-04-22</th></tr><tr><td>Body Height</td><td>155 cm</td><td>155 cm</td></tr><tr><td>Pain severity - 0-10 verbal numeric rating [Score] - Reported</td><td>3 {score}</td><td>2 {score}</td></tr><tr><td>Body Weight</td><td>67.1 kg</td><td>67.1 kg</td></tr><tr><td>Body mass index (BMI) [Ratio]</td><td>27.9 kg/m2</td><td>27.9 kg/m2</td></tr><tr><td>Diastolic Blood Pressure</td><td>82 mm[Hg]</td><td>82 mm[Hg]</td></tr><tr><td>Systolic Blood Pressure</td><td>125 mm[Hg]</td><td>123 mm[Hg]</td></tr><tr><td>Heart rate</td><td>86 /min</td><td>67 /min</td></tr><tr><td>Respiratory rate</td><td>16 /min</td><td>12 /min</td></tr></table></div>"
            },
            "entry": [
              {
                "reference": "urn:uuid:a1fc813b-b885-4973-b665-a5f8b283e036"
              },
              {
                "reference": "urn:uuid:4b6d7718-0849-4951-abff-c8652542c5fc"
              },
              {
                "reference": "urn:uuid:723e079f-4c34-41cb-81a7-69d10f0e461f"
              },
              {
                "reference": "urn:uuid:394ba868-08ed-4ccf-b75e-22725383c444"
              },
              {
                "reference": "urn:uuid:c05cb5a8-f91d-4208-8963-00b92ed28594"
              },
              {
                "reference": "urn:uuid:77b153b2-0a29-40d9-abee-9f1c6251dd31"
              },
              {
                "reference": "urn:uuid:63c5ad81-7f7f-4071-b234-215bf22a784d"
              },
              {
                "reference": "urn:uuid:8b6d6606-b14f-41a4-a1a3-5c571e4fe129"
              },
              {
                "reference": "urn:uuid:87f78372-ddd8-4d17-89bb-296f0b01268e"
              },
              {
                "reference": "urn:uuid:8953ec34-fd09-4198-975a-519a9eafd3fd"
              },
              {
                "reference": "urn:uuid:7bfd7677-038d-4819-b595-8851c25446f6"
              },
              {
                "reference": "urn:uuid:bacc2e41-e20a-43aa-8732-dae163e2d295"
              },
              {
                "reference": "urn:uuid:009d7830-a007-4213-8cad-7583c2bee277"
              },
              {
                "reference": "urn:uuid:0d6fb8ab-4574-498d-a747-50ec6b9a215f"
              },
              {
                "reference": "urn:uuid:bd3a7b44-d8cb-4694-85f4-d86c491d8dfa"
              },
              {
                "reference": "urn:uuid:a09e6361-c17c-4e97-9522-18fc46d458dd"
              }
            ],
            "code": {
              "coding": [
                {
                  "system": "http://loinc.org",
                  "code": "8716-3",
                  "display": "Vital signs note"
                }
              ]
            },
            "title": "Vital Signs"
          },
          {
            "text": {
              "status": "generated",
              "div": "<div xmlns=\"http://www.w3.org/1999/xhtml\"><table class=\"hl7__ips\"><table class=\"hl7__ips\"><thead><tr><th>Recent Lab Observations</th><th>05-MAY-2025</th><th>Reference&#xA0;Range</th><th>Unit</th></tr></thead><tbody><tr><td>Glucose [Mass/volume] in Blood</td><td>99.4</td><td>70 - 140</td><td>mg/dL</td></tr><tr><td>Urea nitrogen [Mass/volume] in Blood</td><td>15.8</td><td>7 - 20</td><td>mg/dL</td></tr><tr><td>Creatinine [Mass/volume] in Blood</td><td><strong>3.1 H</strong></td><td>0.6 - 1.1</td><td>mg/dL</td></tr><tr><td>Calcium [Mass/volume] in Blood</td><td>9.7</td><td>8.5 - 10.4</td><td>mg/dL</td></tr><tr><td>Sodium [Moles/volume] in Blood</td><td>136.4</td><td>135 - 145</td><td>mmol/L</td></tr><tr><td>Potassium [Moles/volume] in Blood</td><td>4.5</td><td>3.5 - 5.1</td><td>mmol/L</td></tr><tr><td>Chloride [Moles/volume] in Blood</td><td>105.1</td><td>98 - 108</td><td>mmol/L</td></tr><tr><td>Carbon dioxide, total [Moles/volume] in Blood</td><td>26.1</td><td>22 - 29</td><td>mmol/L</td></tr><tr><td>Protein [Mass/volume] in Serum or Plasma</td><td>6.8</td><td>6 - 8.3</td><td>g/dL</td></tr><tr><td>Albumin [Mass/volume] in Serum or Plasma</td><td><strong>5.2 H</strong></td><td>3.4 - 5</td><td>g/dL</td></tr><tr><td>Globulin [Mass/volume] in Serum by calculation</td><td>2.1</td><td>2 - 3.5</td><td>g/L</td></tr><tr><td>Bilirubin.total [Mass/volume] in Serum or Plasma</td><td>0.7</td><td>0.2 - 1.2</td><td>mg/dL</td></tr><tr><td>Alkaline phosphatase [Enzymatic activity/volume] in Serum or Plasma</td><td><strong>127.5 H</strong></td><td>44 - 104</td><td>U/L</td></tr><tr><td>Alanine aminotransferase [Enzymatic activity/volume] in Serum or Plasma</td><td><strong>46.3 H</strong></td><td>13 - 36</td><td>U/L</td></tr><tr><td>Aspartate aminotransferase [Enzymatic activity/volume] in Serum or Plasma</td><td>36.8</td><td>10 - 40</td><td>U/L</td></tr><tr><td>Cholesterol [Mass/volume] in Serum or Plasma</td><td>181.1</td><td>130 - 200</td><td>mg/dL</td></tr><tr><td>Triglyceride [Mass/volume] in Serum or Plasma</td><td>101.8</td><td>35 - 175</td><td>mg/dL</td></tr><tr><td>Cholesterol in LDL [Mass/volume] in Serum or Plasma by Direct assay</td><td>94.0</td><td>0 - 190</td><td>mg/dL</td></tr><tr><td>Cholesterol in HDL [Mass/volume] in Serum or Plasma</td><td>54.9</td><td>50 - 100</td><td>mg/dL</td></tr></tbody></table></table></div>"
            },
            "entry": [
              {
                "reference": "urn:uuid:295a128f-b535-4ab3-888b-340fcfb80c86"
              },
              {
                "reference": "urn:uuid:cee4091b-14c3-433a-a7e7-cc6df7f54141"
              },
              {
                "reference": "urn:uuid:dff75ab0-9509-473c-9550-3c3c543c73c7"
              },
              {
                "reference": "urn:uuid:70be9026-bebf-4e79-98c4-4cff3d12c32f"
              },
              {
                "reference": "urn:uuid:a2f22325-086f-45d0-9641-92322ad56ec4"
              },
              {
                "reference": "urn:uuid:d0305f6f-dcd3-49bb-882a-d7654bf0c1e1"
              },
              {
                "reference": "urn:uuid:2571f6b3-616a-4009-837b-734af83a9fa8"
              },
              {
                "reference": "urn:uuid:b6b9e716-8dfa-46bb-8cbb-ad1b3a35cac8"
              },
              {
                "reference": "urn:uuid:8354cdf9-f4a2-4df6-9be7-863b189cb65a"
              },
              {
                "reference": "urn:uuid:7bc93415-2151-41de-926a-be2cef93f8b0"
              },
              {
                "reference": "urn:uuid:8e43396b-a690-46ef-92c6-9061f620ab9f"
              },
              {
                "reference": "urn:uuid:a50b761c-a5c8-488c-b92a-761d8dc6708f"
              },
              {
                "reference": "urn:uuid:efc07344-2994-40be-95d7-f553c0eed6f3"
              },
              {
                "reference": "urn:uuid:d3128d67-284f-439a-8faf-21cac4738e16"
              },
              {
                "reference": "urn:uuid:ee9d82fb-d574-4658-8e21-6ee8e2cb81a2"
              },
              {
                "reference": "urn:uuid:a7b8064a-a5c5-4660-bffb-30814f739965"
              },
              {
                "reference": "urn:uuid:f2ca2787-ea33-4eea-b9c1-17ce9ade01d3"
              },
              {
                "reference": "urn:uuid:3879417f-737f-4b6a-b4b1-9d10221ff7c8"
              },
              {
                "reference": "urn:uuid:77019f9a-a208-4a30-be7e-e2f0272e9d9d"
              }
            ],
            "code": {
              "coding": [
                {
                  "system": "http://loinc.org",
                  "code": "30954-2",
                  "display": "Relevant diagnostic tests/laboratory data note"
                }
              ]
            },
            "title": "Relevant diagnostic tests/laboratory data"
          },
          {
            "text": {
              "status": "generated",
              "div": "<div xmlns=\"http://www.w3.org/1999/xhtml\"><table class=\"hl7__ips\"><tr><th>Device</th><th>Date (since)</th></tr><tr><td>Wheelchair accessory (physical object)</td><td><span class=\"nb\">19-Mar-2008</span></td></tr><tr><td>Power-assisted wheelchair (physical object)</td><td><span class=\"nb\">19-Mar-2008</span></td></tr></table></div>"
            },
            "entry": [
              {
                "reference": "urn:uuid:0b6d2b11-6dfa-4527-b251-ad455fd48b7c"
              },
              {
                "reference": "urn:uuid:2f130ad6-5a83-4972-9398-5c12e50738b8"
              }
            ],
            "code": {
              "coding": [
                {
                  "system": "http://loinc.org",
                  "code": "46264-8",
                  "display": "History of medical device use"
                }
              ]
            },
            "title": "Device Use"
          }
        ],
        "title": "European Patient Summary",
        "status": "final",
        "subject": {
          "reference": "urn:uuid:e51a5d0c-0e99-41cf-aa6f-9c70d3b634f0",
          "display": "Eileen Taylor"
        },
        "custodian": {
          "reference": "urn:uuid:b5257e66-df5c-478b-8354-bda0e813b848"
        },
        "date": "2025-05-05",
        "confidentiality": "N"
      }
    },
    {
      "fullUrl": "urn:uuid:e51a5d0c-0e99-41cf-aa6f-9c70d3b634f0",
      "resource": {
        "resourceType": "Patient",
        "id": "e51a5d0c-0e99-41cf-aa6f-9c70d3b634f0",
        "meta": {
          "security": [
            {
              "system": "http://terminology.hl7.org/CodeSystem/v3-ActReason",
              "code": "HTEST"
            },
            {
              "system": "http://terminology.hl7.org/CodeSystem/v3-ActReason",
              "code": "TRAIN"
            }
          ],
          "tag": [
            {
              "system": "https://synderai.net/fhir/CodeSystem/tags",
              "code": "synthetic",
              "display": "SYNDERAI Synthetic data"
            }
          ],
          "profile": [
            "http://hl7.eu/fhir/eps/StructureDefinition/patient-eu-eps"
          ]
        },
        "identifier": [
          {
            "type": {
              "coding": [
                {
                  "code": "PT",
                  "system": "http://terminology.hl7.org/CodeSystem/v2-0203"
                }
              ]
            },
            "system": "http://ec.europa.eu/identifier/eci",
            "value": "6172-576075-7"
          },
          {
            "type": {
              "coding": [
                {
                  "code": "MR",
                  "system": "http://terminology.hl7.org/CodeSystem/v2-0203"
                }
              ]
            },
            "system": "http://local.setting.eu/identifier",
            "value": "f7f175da-cf0d-5686-8800-840d9ab7b47b"
          }
        ],
        "name": [
          {
            "family": "Taylor"
          },
          {
            "given": [
              "Eileen"
            ]
          },
          {
            "text": "Eileen Taylor"
          }
        ],
        "address": [
          {
            "line": [
              "39 Slater harbors"
            ],
            "use": "home",
            "type": "physical",
            "postalCode": "LE17",
            "city": "Smithtown",
            "country": "United Kingdom"
          }
        ],
        "telecom": [
          {
            "system": "phone",
            "value": "+44(0)1614960460"
          }
        ],
        "extension": [
          {
            "url": "http://hl7.org/fhir/StructureDefinition/patient-nationality",
            "valueCodeableConcept": {
              "coding": [
                {
                  "code": "GB",
                  "system": "http://hl7.org/fhir/ValueSet/country"
                }
              ]
            }
          }
        ],
        "text": {
          "status": "generated",
          "div": "<div xmlns=\"http://www.w3.org/1999/xhtml\"><table class=\"hl7__ips\"><tr><td>Eileen Taylor</td><td>female</td><td>11-Dec-1951</td></tr></table></div>"
        },
        "gender": "female",
        "birthDate": "1951-12-11"
      }
    },
    {
      "fullUrl": "urn:uuid:37998c51-a508-4b6b-9017-1a17d177e970",
      "resource": {
        "resourceType": "PractitionerRole",
        "id": "37998c51-a508-4b6b-9017-1a17d177e970",
        "meta": {
          "profile": [
            "http://hl7.eu/fhir/base/StructureDefinition/practitionerRole-eu"
          ]
        },
        "text": {
          "status": "generated",
          "div": "<div xmlns=\"http://www.w3.org/1999/xhtml\"><table class=\"hl7__ips\">Provider Role Id 37998c51-a508-4b6b-9017-1a17d177e970</table></div>"
        },
        "practitioner": {
          "reference": "urn:uuid:7807b397-6c48-462e-9fb2-f73c4819342f"
        },
        "organization": {
          "reference": "urn:uuid:b5257e66-df5c-478b-8354-bda0e813b848"
        }
      }
    },
    {
      "fullUrl": "urn:uuid:7807b397-6c48-462e-9fb2-f73c4819342f",
      "resource": {
        "resourceType": "Practitioner",
        "id": "7807b397-6c48-462e-9fb2-f73c4819342f",
        "meta": {
          "profile": [
            "http://hl7.eu/fhir/base/StructureDefinition/practitioner-eu"
          ]
        },
        "name": [
          {
            "prefix": [
              "Dr."
            ],
            "given": [
              "Hel"
            ],
            "family": "Ping"
          }
        ],
        "text": {
          "status": "generated",
          "div": "<div xmlns=\"http://www.w3.org/1999/xhtml\"><table class=\"hl7__ips\">Dr. Hel Ping</table></div>"
        }
      }
    },
    {
      "fullUrl": "urn:uuid:b5257e66-df5c-478b-8354-bda0e813b848",
      "resource": {
        "resourceType": "Organization",
        "id": "b5257e66-df5c-478b-8354-bda0e813b848",
        "meta": {
          "profile": [
            "http://hl7.eu/fhir/base/StructureDefinition/organization-eu"
          ]
        },
        "identifier": [
          {
            "assigner": {
              "display": "HL7 Europe"
            },
            "system": "urn:oid:2.16.840.1.113883.2.51.999",
            "value": "05531740-6469-496a-81e5-36c126bd076d"
          }
        ],
        "address": [
          {
            "city": "Leicester",
            "postalCode": "LE2 7",
            "country": "United Kingdom"
          }
        ],
        "text": {
          "status": "generated",
          "div": "<div xmlns=\"http://www.w3.org/1999/xhtml\"><table class=\"hl7__ips\">Leicester Royal Infirmary</table></div>"
        },
        "name": "Leicester Royal Infirmary"
      }
    },
    {
      "fullUrl": "urn:uuid:8818cbe5-be76-4c55-b95f-04d8aaa21e14",
      "resource": {
        "resourceType": "Condition",
        "id": "8818cbe5-be76-4c55-b95f-04d8aaa21e14",
        "meta": {
          "profile": [
            "http://hl7.org/fhir/uv/ips/StructureDefinition/Condition-uv-ips"
          ]
        },
        "category": [
          {
            "coding": [
              {
                "code": "problem-list-item",
                "system": "http://terminology.hl7.org/CodeSystem/condition-category",
                "display": "Problem List Item"
              }
            ]
          }
        ],
        "code": {
          "coding": [
            {
              "code": "203082005",
              "system": "http://snomed.info/sct",
              "display": "Fibromyalgia (disorder)"
            }
          ],
          "text": "Fibromyalgia"
        },
        "text": {
          "status": "generated",
          "div": "<div xmlns=\"http://www.w3.org/1999/xhtml\"><table class=\"hl7__ips\"><tr><td>Fibromyalgia</td><td><span class=\"nb\">05-Feb-2014</span></td><td>active</td></tr></table></div>"
        },
        "onsetDateTime": "2014-02-05",
        "subject": {
          "reference": "urn:uuid:",
          "display": "Eileen Taylor"
        },
        "asserter": {
          "reference": "urn:uuid:",
          "display": "Leicester Royal Infirmary"
        }
      }
    },
    {
      "fullUrl": "urn:uuid:5782ea9d-e914-4766-8ea7-6fff51a71fbc",
      "resource": {
        "resourceType": "Condition",
        "id": "5782ea9d-e914-4766-8ea7-6fff51a71fbc",
        "meta": {
          "profile": [
            "http://hl7.org/fhir/uv/ips/StructureDefinition/Condition-uv-ips"
          ]
        },
        "category": [
          {
            "coding": [
              {
                "code": "problem-list-item",
                "system": "http://terminology.hl7.org/CodeSystem/condition-category",
                "display": "Problem List Item"
              }
            ]
          }
        ],
        "code": {
          "coding": [
            {
              "code": "239873007",
              "system": "http://snomed.info/sct",
              "display": "Osteoarthritis of knee (disorder)"
            }
          ],
          "text": "Osteoarthritis of knee"
        },
        "text": {
          "status": "generated",
          "div": "<div xmlns=\"http://www.w3.org/1999/xhtml\"><table class=\"hl7__ips\"><tr><td>Osteoarthritis of knee</td><td><span class=\"nb\">19-Mar-2008</span></td><td>active</td></tr></table></div>"
        },
        "onsetDateTime": "2008-03-19",
        "subject": {
          "reference": "urn:uuid:",
          "display": "Eileen Taylor"
        },
        "asserter": {
          "reference": "urn:uuid:",
          "display": "Leicester Royal Infirmary"
        }
      }
    },
    {
      "fullUrl": "urn:uuid:e6403148-dd6d-4de0-886c-1332b7b57604",
      "resource": {
        "resourceType": "Condition",
        "id": "e6403148-dd6d-4de0-886c-1332b7b57604",
        "meta": {
          "profile": [
            "http://hl7.org/fhir/uv/ips/StructureDefinition/Condition-uv-ips"
          ]
        },
        "category": [
          {
            "coding": [
              {
                "code": "problem-list-item",
                "system": "http://terminology.hl7.org/CodeSystem/condition-category",
                "display": "Problem List Item"
              }
            ]
          }
        ],
        "code": {
          "coding": [
            {
              "code": "55822004",
              "system": "http://snomed.info/sct",
              "display": "Hyperlipidemia (disorder)"
            }
          ],
          "text": "Hyperlipidemia"
        },
        "text": {
          "status": "generated",
          "div": "<div xmlns=\"http://www.w3.org/1999/xhtml\"><table class=\"hl7__ips\"><tr><td>Hyperlipidemia</td><td><span class=\"nb\">23-Dec-1996</span></td><td>active</td></tr></table></div>"
        },
        "onsetDateTime": "1996-12-23",
        "subject": {
          "reference": "urn:uuid:",
          "display": "Eileen Taylor"
        },
        "asserter": {
          "reference": "urn:uuid:",
          "display": "Leicester Royal Infirmary"
        }
      }
    },
    {
      "fullUrl": "urn:uuid:4ee3ae0a-0e1a-4edb-b497-64f8cbc1e9e9",
      "resource": {
        "resourceType": "Condition",
        "id": "4ee3ae0a-0e1a-4edb-b497-64f8cbc1e9e9",
        "meta": {
          "profile": [
            "http://hl7.org/fhir/uv/ips/StructureDefinition/Condition-uv-ips"
          ]
        },
        "category": [
          {
            "coding": [
              {
                "code": "problem-list-item",
                "system": "http://terminology.hl7.org/CodeSystem/condition-category",
                "display": "Problem List Item"
              }
            ]
          }
        ],
        "code": {
          "coding": [
            {
              "code": "254837009",
              "system": "http://snomed.info/sct",
              "display": "Malignant neoplasm of breast (disorder)"
            }
          ],
          "text": "Malignant neoplasm of breast"
        },
        "text": {
          "status": "generated",
          "div": "<div xmlns=\"http://www.w3.org/1999/xhtml\"><table class=\"hl7__ips\"><tr><td>Malignant neoplasm of breast</td><td><span class=\"nb\">05-May-1988</span></td><td>active</td></tr></table></div>"
        },
        "onsetDateTime": "1988-05-05",
        "subject": {
          "reference": "urn:uuid:",
          "display": "Eileen Taylor"
        },
        "asserter": {
          "reference": "urn:uuid:",
          "display": "Leicester Royal Infirmary"
        }
      }
    },
    {
      "fullUrl": "urn:uuid:4776e2ff-860f-4b93-b90b-be34cc92e798",
      "resource": {
        "resourceType": "Condition",
        "id": "4776e2ff-860f-4b93-b90b-be34cc92e798",
        "meta": {
          "profile": [
            "http://hl7.org/fhir/uv/ips/StructureDefinition/Condition-uv-ips"
          ]
        },
        "category": [
          {
            "coding": [
              {
                "code": "problem-list-item",
                "system": "http://terminology.hl7.org/CodeSystem/condition-category",
                "display": "Problem List Item"
              }
            ]
          }
        ],
        "code": {
          "coding": [
            {
              "code": "197927001",
              "system": "http://snomed.info/sct",
              "display": "Recurrent urinary tract infection (disorder)"
            }
          ],
          "text": "Recurrent urinary tract infection"
        },
        "text": {
          "status": "generated",
          "div": "<div xmlns=\"http://www.w3.org/1999/xhtml\"><table class=\"hl7__ips\"><tr><td>Recurrent urinary tract infection</td><td><span class=\"nb\">14-May-1973</span></td><td>active</td></tr></table></div>"
        },
        "onsetDateTime": "1973-05-14",
        "subject": {
          "reference": "urn:uuid:",
          "display": "Eileen Taylor"
        },
        "asserter": {
          "reference": "urn:uuid:",
          "display": "Leicester Royal Infirmary"
        }
      }
    },
    {
      "fullUrl": "urn:uuid:944f01bb-b627-4c3c-9189-f328dc55146e",
      "resource": {
        "resourceType": "Condition",
        "id": "944f01bb-b627-4c3c-9189-f328dc55146e",
        "meta": {
          "profile": [
            "http://hl7.org/fhir/uv/ips/StructureDefinition/Condition-uv-ips"
          ]
        },
        "category": [
          {
            "coding": [
              {
                "code": "problem-list-item",
                "system": "http://terminology.hl7.org/CodeSystem/condition-category",
                "display": "Problem List Item"
              }
            ]
          }
        ],
        "code": {
          "coding": [
            {
              "code": "312608009",
              "system": "http://snomed.info/sct",
              "display": "Laceration - injury (disorder)"
            }
          ],
          "text": "Laceration - injury"
        },
        "text": {
          "status": "generated",
          "div": "<div xmlns=\"http://www.w3.org/1999/xhtml\"><table class=\"hl7__ips\"><tr><td><span class=\"grayedout\">Laceration - injury</span></td><td><span class=\"nb\">20-Jun-2024 - 14-Jul-2024</span></td><td><span class=\"grayedout\">inactive</span></td></tr></table></div>"
        },
        "onsetDateTime": "2024-06-20",
        "abatementDateTime": "2024-07-14",
        "subject": {
          "reference": "urn:uuid:",
          "display": "Eileen Taylor"
        },
        "asserter": {
          "reference": "urn:uuid:",
          "display": "Leicester Royal Infirmary"
        }
      }
    },
    {
      "fullUrl": "urn:uuid:affb7231-a85b-44a0-aae5-922b56328c2c",
      "resource": {
        "resourceType": "Condition",
        "id": "affb7231-a85b-44a0-aae5-922b56328c2c",
        "meta": {
          "profile": [
            "http://hl7.org/fhir/uv/ips/StructureDefinition/Condition-uv-ips"
          ]
        },
        "category": [
          {
            "coding": [
              {
                "code": "problem-list-item",
                "system": "http://terminology.hl7.org/CodeSystem/condition-category",
                "display": "Problem List Item"
              }
            ]
          }
        ],
        "code": {
          "coding": [
            {
              "code": "370247008",
              "system": "http://snomed.info/sct",
              "display": "Facial laceration (disorder)"
            }
          ],
          "text": "Facial laceration"
        },
        "text": {
          "status": "generated",
          "div": "<div xmlns=\"http://www.w3.org/1999/xhtml\"><table class=\"hl7__ips\"><tr><td><span class=\"grayedout\">Facial laceration</span></td><td><span class=\"nb\">20-Jun-2024 - 14-Jul-2024</span></td><td><span class=\"grayedout\">inactive</span></td></tr></table></div>"
        },
        "onsetDateTime": "2024-06-20",
        "abatementDateTime": "2024-07-14",
        "subject": {
          "reference": "urn:uuid:",
          "display": "Eileen Taylor"
        },
        "asserter": {
          "reference": "urn:uuid:",
          "display": "Leicester Royal Infirmary"
        }
      }
    },
    {
      "fullUrl": "urn:uuid:09d684ef-668b-48ed-8a76-a53f50ab95be",
      "resource": {
        "resourceType": "Medication",
        "id": "09d684ef-668b-48ed-8a76-a53f50ab95be",
        "meta": {
          "profile": [
            "http://hl7.eu/fhir/eps/StructureDefinition/Medication-eu-eps"
          ]
        },
        "code": {
          "coding": [
            {
              "code": "319996000",
              "system": "http://snomed.info/sct",
              "display": "Simvastatin 10 mg oral tablet"
            }
          ],
          "text": "Simvastatin 10 mg oral tablet"
        },
        "text": {
          "status": "generated",
          "div": "<div xmlns=\"http://www.w3.org/1999/xhtml\">Simvastatin 10 mg oral tablet</div>"
        }
      }
    },
    {
      "fullUrl": "urn:uuid:ebd47b2e-2e6c-411a-899e-8974146b8e45",
      "resource": {
        "resourceType": "MedicationStatement",
        "id": "ebd47b2e-2e6c-411a-899e-8974146b8e45",
        "meta": {
          "profile": [
            "http://hl7.eu/fhir/eps/StructureDefinition/MedicationStatement-eu-eps"
          ]
        },
        "effectivePeriod": {
          "start": "2025-05-05"
        },
        "dosage": [
          {
            "doseAndRate": [
              {
                "doseQuantity": {
                  "value": 1,
                  "unit": "{tbl}",
                  "code": "{tbl}"
                }
              }
            ],
            "timing": {
              "repeat": {
                "frequency": 1,
                "period": 1,
                "periodUnit": "d"
              }
            },
            "text": "1 tablet (10 mg) by mouth once daily",
            "asNeededBoolean": false
          }
        ],
        "reasonCode": [
          {
            "coding": [
              {
                "code": "55822004",
                "system": "http://snomed.info/sct",
                "display": "Hyperlipidemia"
              }
            ]
          }
        ],
        "text": {
          "status": "generated",
          "div": "<div xmlns=\"http://www.w3.org/1999/xhtml\"><table class=\"hl7__ips first25\"><tr><th>Medication</th><th>Since</th><th>Form</th><th>Dosage</th><th>Reason</th></tr><tr><td>Simvastatin 10 mg oral tablet</td><td><span class=\"nb\">2025-05-05</span></td><td>-</td><td>1 tablet (10 mg) by mouth once daily</td><td>Hyperlipidemia</td></tr></table></div>"
        },
        "status": "active",
        "medicationReference": {
          "reference": "urn:uuid:09d684ef-668b-48ed-8a76-a53f50ab95be",
          "display": "Simvastatin 10 mg oral tablet"
        },
        "subject": {
          "reference": "urn:uuid:e51a5d0c-0e99-41cf-aa6f-9c70d3b634f0",
          "display": "Eileen Taylor"
        }
      }
    },
    {
      "fullUrl": "urn:uuid:56f9a0b2-4294-4edb-b55d-9c9eb660324a",
      "resource": {
        "resourceType": "Medication",
        "id": "56f9a0b2-4294-4edb-b55d-9c9eb660324a",
        "meta": {
          "profile": [
            "http://hl7.eu/fhir/eps/StructureDefinition/Medication-eu-eps"
          ]
        },
        "code": {
          "coding": [
            {
              "code": "420276008",
              "system": "http://snomed.info/sct",
              "display": "Naproxen sodium 220 mg oral capsule"
            }
          ],
          "text": "Naproxen sodium 220 mg oral capsule"
        },
        "text": {
          "status": "generated",
          "div": "<div xmlns=\"http://www.w3.org/1999/xhtml\">Naproxen sodium 220 mg oral capsule</div>"
        }
      }
    },
    {
      "fullUrl": "urn:uuid:5239ddff-58ef-4504-b900-9032067b9f06",
      "resource": {
        "resourceType": "MedicationStatement",
        "id": "5239ddff-58ef-4504-b900-9032067b9f06",
        "meta": {
          "profile": [
            "http://hl7.eu/fhir/eps/StructureDefinition/MedicationStatement-eu-eps"
          ]
        },
        "effectivePeriod": {
          "start": "2008-03-19"
        },
        "dosage": [
          {
            "doseAndRate": [
              {
                "doseQuantity": {
                  "value": 1,
                  "unit": "{cap}",
                  "system": "$ucum",
                  "code": "{cap}"
                }
              }
            ],
            "timing": {
              "repeat": {
                "frequency": 2,
                "period": 1,
                "periodUnit": "d"
              }
            },
            "text": "1 capsule (220 mg) by mouth every 12 hours as needed",
            "asNeededBoolean": true
          }
        ],
        "reasonCode": [
          {
            "coding": [
              {
                "code": "239873007",
                "system": "http://snomed.info/sct",
                "display": "Osteoarthritis of knee"
              }
            ]
          }
        ],
        "text": {
          "status": "generated",
          "div": "<div xmlns=\"http://www.w3.org/1999/xhtml\"><table class=\"hl7__ips first25\"><tr><th>Medication</th><th>Since</th><th>Form</th><th>Dosage</th><th>Reason</th></tr><tr><td>Naproxen sodium 220 mg oral capsule</td><td><span class=\"nb\">2008-03-19</span></td><td>-</td><td>1 capsule (220 mg) by mouth every 12 hours as needed</td><td>Osteoarthritis of knee</td></tr></table></div>"
        },
        "status": "active",
        "medicationReference": {
          "reference": "urn:uuid:56f9a0b2-4294-4edb-b55d-9c9eb660324a",
          "display": "Naproxen sodium 220 mg oral capsule"
        },
        "subject": {
          "reference": "urn:uuid:e51a5d0c-0e99-41cf-aa6f-9c70d3b634f0",
          "display": "Eileen Taylor"
        }
      }
    },
    {
      "fullUrl": "urn:uuid:65160444-dbeb-46f2-9c03-f6738c0c0d3e",
      "resource": {
        "resourceType": "Immunization",
        "id": "65160444-dbeb-46f2-9c03-f6738c0c0d3e",
        "meta": {
          "profile": [
            "http://hl7.org/fhir/uv/ips/StructureDefinition/Immunization-uv-ips"
          ]
        },
        "vaccineCode": {
          "coding": [
            {
              "code": "1181000221105",
              "system": "http://snomed.info/sct",
              "display": "Vaccine product containing Influenza virus antigen"
            },
            {
              "code": "J07BB02",
              "system": "http://www.whocc.no/atc",
              "display": "Influenza, inactivated, split virus"
            }
          ],
          "text": "Influenza virus antigen only vaccine product"
        },
        "site": {
          "coding": [
            {
              "code": "244979005",
              "system": "http://snomed.info/sct",
              "display": "Entire muscle of upper arm"
            }
          ],
          "text": "Entire muscle of upper arm"
        },
        "route": {
          "coding": [
            {
              "code": "78421000",
              "system": "http://snomed.info/sct",
              "display": "Intramuscular route"
            }
          ],
          "text": "Intramuscular route"
        },
        "text": {
          "status": "generated",
          "div": "<div xmlns=\"http://www.w3.org/1999/xhtml\"><table class=\"hl7__ips\"><tr><td>Influenza virus antigen only vaccine product</td><td><span class=\"nb\">28-Apr-2025</span></td></tr></table></div>"
        },
        "status": "completed",
        "patient": {
          "reference": "urn:uuid:e51a5d0c-0e99-41cf-aa6f-9c70d3b634f0",
          "display": "Eileen Taylor"
        },
        "occurrenceDateTime": "2025-04-28",
        "lotNumber": "XU-yAYA58",
        "expirationDate": "2025-08-24"
      }
    },
    {
      "fullUrl": "urn:uuid:9cd9cb81-1c6b-4a91-824b-b50c2de3663b",
      "resource": {
        "resourceType": "Immunization",
        "id": "9cd9cb81-1c6b-4a91-824b-b50c2de3663b",
        "meta": {
          "profile": [
            "http://hl7.org/fhir/uv/ips/StructureDefinition/Immunization-uv-ips"
          ]
        },
        "vaccineCode": {
          "coding": [
            {
              "code": "1119349007",
              "system": "http://snomed.info/sct",
              "display": "Vaccine product containing SARS-CoV-2 mRNA"
            },
            {
              "code": "J07BX03",
              "system": "http://www.whocc.no/atc",
              "display": "COVID-19 mRNA vaccines"
            }
          ],
          "text": "SARS-CoV-2 mRNA vaccine"
        },
        "site": {
          "coding": [
            {
              "code": "244979005",
              "system": "http://snomed.info/sct",
              "display": "Entire muscle of upper arm"
            }
          ],
          "text": "Entire muscle of upper arm"
        },
        "route": {
          "coding": [
            {
              "code": "78421000",
              "system": "http://snomed.info/sct",
              "display": "Intramuscular route"
            }
          ],
          "text": "Intramuscular route"
        },
        "text": {
          "status": "generated",
          "div": "<div xmlns=\"http://www.w3.org/1999/xhtml\"><table class=\"hl7__ips\"><tr><td>SARS-CoV-2 mRNA vaccine</td><td><span class=\"nb\">22-Feb-2021</span></td></tr></table></div>"
        },
        "status": "completed",
        "patient": {
          "reference": "urn:uuid:e51a5d0c-0e99-41cf-aa6f-9c70d3b634f0",
          "display": "Eileen Taylor"
        },
        "occurrenceDateTime": "2021-02-22",
        "lotNumber": "AO-kIUZOuf",
        "expirationDate": "2021-05-07"
      }
    },
    {
      "fullUrl": "urn:uuid:38e31493-bcd7-449d-bdd8-dd12a17ecdd7",
      "resource": {
        "resourceType": "Immunization",
        "id": "38e31493-bcd7-449d-bdd8-dd12a17ecdd7",
        "meta": {
          "profile": [
            "http://hl7.org/fhir/uv/ips/StructureDefinition/Immunization-uv-ips"
          ]
        },
        "vaccineCode": {
          "coding": [
            {
              "code": "777725002",
              "system": "http://snomed.info/sct",
              "display": "Vaccine product containing only Clostridium tetani toxoid antigen adsorbed"
            },
            {
              "code": "J07AM51",
              "system": "http://www.whocc.no/atc",
              "display": "Diphtheria-tetanus vaccines, adult type"
            }
          ],
          "text": "Clostridium tetani toxoid antigen adsorbed only vaccine product"
        },
        "site": {
          "coding": [
            {
              "code": "244979005",
              "system": "http://snomed.info/sct",
              "display": "Entire muscle of upper arm"
            }
          ],
          "text": "Entire muscle of upper arm"
        },
        "route": {
          "coding": [
            {
              "code": "78421000",
              "system": "http://snomed.info/sct",
              "display": "Intramuscular route"
            }
          ],
          "text": "Intramuscular route"
        },
        "text": {
          "status": "generated",
          "div": "<div xmlns=\"http://www.w3.org/1999/xhtml\"><table class=\"hl7__ips\"><tr><td>Clostridium tetani toxoid antigen adsorbed only vaccine product</td><td><span class=\"nb\">30-Mar-2020</span></td></tr></table></div>"
        },
        "status": "completed",
        "patient": {
          "reference": "urn:uuid:e51a5d0c-0e99-41cf-aa6f-9c70d3b634f0",
          "display": "Eileen Taylor"
        },
        "occurrenceDateTime": "2020-03-30",
        "lotNumber": "AS-Fldl",
        "expirationDate": "2020-08-18"
      }
    },
    {
      "fullUrl": "urn:uuid:31ead8fb-1b70-4f46-959c-1c5080cc7980",
      "resource": {
        "resourceType": "Procedure",
        "id": "31ead8fb-1b70-4f46-959c-1c5080cc7980",
        "meta": {
          "profile": [
            "http://hl7.org/fhir/uv/ips/StructureDefinition/Procedure-uv-ips"
          ]
        },
        "code": {
          "coding": [
            {
              "code": "288086009",
              "system": "http://snomed.info/sct",
              "display": "Suture open wound"
            }
          ],
          "text": "Suture open wound"
        },
        "reasonCode": [
          {
            "coding": [
              {
                "code": "370247008",
                "system": "http://snomed.info/sct",
                "display": "Facial laceration"
              }
            ]
          }
        ],
        "text": {
          "status": "generated",
          "div": "<div xmlns=\"http://www.w3.org/1999/xhtml\"><table class=\"hl7__ips\"><tr><td>Suture open wound</td><td><span class=\"nb\">20-Jun-2024</span></td><td>Facial laceration</td></tr></table></div>"
        },
        "status": "completed",
        "performedDateTime": "2024-06-20",
        "subject": {
          "reference": "urn:uuid:",
          "display": "Eileen Taylor"
        }
      }
    },
    {
      "fullUrl": "urn:uuid:c41ec52e-cab2-4c26-bdbb-ee3120886746",
      "resource": {
        "resourceType": "Procedure",
        "id": "c41ec52e-cab2-4c26-bdbb-ee3120886746",
        "meta": {
          "profile": [
            "http://hl7.org/fhir/uv/ips/StructureDefinition/Procedure-uv-ips"
          ]
        },
        "code": {
          "coding": [
            {
              "code": "384700001",
              "system": "http://snomed.info/sct",
              "display": "Injection of tetanus antitoxin"
            }
          ],
          "text": "Injection of tetanus antitoxin"
        },
        "reasonCode": [
          {
            "coding": [
              {
                "code": "370247008",
                "system": "http://snomed.info/sct",
                "display": "Facial laceration"
              }
            ]
          }
        ],
        "text": {
          "status": "generated",
          "div": "<div xmlns=\"http://www.w3.org/1999/xhtml\"><table class=\"hl7__ips\"><tr><td>Injection of tetanus antitoxin</td><td><span class=\"nb\">20-Jun-2024</span></td><td>Facial laceration</td></tr></table></div>"
        },
        "status": "completed",
        "performedDateTime": "2024-06-20",
        "subject": {
          "reference": "urn:uuid:",
          "display": "Eileen Taylor"
        }
      }
    },
    {
      "fullUrl": "urn:uuid:97cbd080-ebbb-4d75-8337-2700736b7889",
      "resource": {
        "resourceType": "Procedure",
        "id": "97cbd080-ebbb-4d75-8337-2700736b7889",
        "meta": {
          "profile": [
            "http://hl7.org/fhir/uv/ips/StructureDefinition/Procedure-uv-ips"
          ]
        },
        "code": {
          "coding": [
            {
              "code": "58000006",
              "system": "http://snomed.info/sct",
              "display": "Patient discharge (procedure)"
            }
          ],
          "text": "Patient discharge"
        },
        "text": {
          "status": "generated",
          "div": "<div xmlns=\"http://www.w3.org/1999/xhtml\"><table class=\"hl7__ips\"><tr><td>Patient discharge</td><td><span class=\"nb\">17-Dec-2023</span></td><td>-</td></tr></table></div>"
        },
        "status": "completed",
        "performedDateTime": "2023-12-17",
        "subject": {
          "reference": "urn:uuid:",
          "display": "Eileen Taylor"
        }
      }
    },
    {
      "fullUrl": "urn:uuid:9e99d5d8-ad9b-4624-aefc-7d5a71bc1dda",
      "resource": {
        "resourceType": "Procedure",
        "id": "9e99d5d8-ad9b-4624-aefc-7d5a71bc1dda",
        "meta": {
          "profile": [
            "http://hl7.org/fhir/uv/ips/StructureDefinition/Procedure-uv-ips"
          ]
        },
        "code": {
          "coding": [
            {
              "code": "385763009",
              "system": "http://snomed.info/sct",
              "display": "Hospice care (regime/therapy)"
            }
          ],
          "text": "Hospice care"
        },
        "text": {
          "status": "generated",
          "div": "<div xmlns=\"http://www.w3.org/1999/xhtml\"><table class=\"hl7__ips\"><tr><td>Hospice care</td><td><span class=\"nb\">16-Dec-2023</span></td><td>-</td></tr></table></div>"
        },
        "status": "completed",
        "performedDateTime": "2023-12-16",
        "subject": {
          "reference": "urn:uuid:",
          "display": "Eileen Taylor"
        }
      }
    },
    {
      "fullUrl": "urn:uuid:3565e72f-ab1d-43c0-b5f4-a40aabc8d747",
      "resource": {
        "resourceType": "Procedure",
        "id": "3565e72f-ab1d-43c0-b5f4-a40aabc8d747",
        "meta": {
          "profile": [
            "http://hl7.org/fhir/uv/ips/StructureDefinition/Procedure-uv-ips"
          ]
        },
        "code": {
          "coding": [
            {
              "code": "185087000",
              "system": "http://snomed.info/sct",
              "display": "Notifications (procedure)"
            }
          ],
          "text": "Notifications"
        },
        "text": {
          "status": "generated",
          "div": "<div xmlns=\"http://www.w3.org/1999/xhtml\"><table class=\"hl7__ips\"><tr><td>Notifications</td><td><span class=\"nb\">04-Dec-2023</span></td><td>-</td></tr></table></div>"
        },
        "status": "completed",
        "performedDateTime": "2023-12-04",
        "subject": {
          "reference": "urn:uuid:",
          "display": "Eileen Taylor"
        }
      }
    },
    {
      "fullUrl": "urn:uuid:507c1317-6f40-4ce8-8ddd-93c4a415f493",
      "resource": {
        "resourceType": "Procedure",
        "id": "507c1317-6f40-4ce8-8ddd-93c4a415f493",
        "meta": {
          "profile": [
            "http://hl7.org/fhir/uv/ips/StructureDefinition/Procedure-uv-ips"
          ]
        },
        "code": {
          "coding": [
            {
              "code": "310417005",
              "system": "http://snomed.info/sct",
              "display": "Certification procedure (procedure)"
            }
          ],
          "text": "Certification procedure"
        },
        "text": {
          "status": "generated",
          "div": "<div xmlns=\"http://www.w3.org/1999/xhtml\"><table class=\"hl7__ips\"><tr><td>Certification procedure</td><td><span class=\"nb\">04-Dec-2023</span></td><td>-</td></tr></table></div>"
        },
        "status": "completed",
        "performedDateTime": "2023-12-04",
        "subject": {
          "reference": "urn:uuid:",
          "display": "Eileen Taylor"
        }
      }
    },
    {
      "fullUrl": "urn:uuid:33ee085d-1ae5-4a13-bdc0-1a939000fe8f",
      "resource": {
        "resourceType": "Procedure",
        "id": "33ee085d-1ae5-4a13-bdc0-1a939000fe8f",
        "meta": {
          "profile": [
            "http://hl7.org/fhir/uv/ips/StructureDefinition/Procedure-uv-ips"
          ]
        },
        "code": {
          "coding": [
            {
              "code": "315639002",
              "system": "http://snomed.info/sct",
              "display": "Initial patient assessment (procedure)"
            }
          ],
          "text": "Initial patient assessment"
        },
        "text": {
          "status": "generated",
          "div": "<div xmlns=\"http://www.w3.org/1999/xhtml\"><table class=\"hl7__ips\"><tr><td>Initial patient assessment</td><td><span class=\"nb\">04-Dec-2023</span></td><td>-</td></tr></table></div>"
        },
        "status": "completed",
        "performedDateTime": "2023-12-04",
        "subject": {
          "reference": "urn:uuid:",
          "display": "Eileen Taylor"
        }
      }
    },
    {
      "fullUrl": "urn:uuid:4324f130-2cf0-4bdc-b005-fe44c9a75de4",
      "resource": {
        "resourceType": "Procedure",
        "id": "4324f130-2cf0-4bdc-b005-fe44c9a75de4",
        "meta": {
          "profile": [
            "http://hl7.org/fhir/uv/ips/StructureDefinition/Procedure-uv-ips"
          ]
        },
        "code": {
          "coding": [
            {
              "code": "370789001",
              "system": "http://snomed.info/sct",
              "display": "Development of individualized plan of care (procedure)"
            }
          ],
          "text": "Development of individualized plan of care"
        },
        "text": {
          "status": "generated",
          "div": "<div xmlns=\"http://www.w3.org/1999/xhtml\"><table class=\"hl7__ips\"><tr><td>Development of individualized plan of care</td><td><span class=\"nb\">04-Dec-2023</span></td><td>-</td></tr></table></div>"
        },
        "status": "completed",
        "performedDateTime": "2023-12-04",
        "subject": {
          "reference": "urn:uuid:",
          "display": "Eileen Taylor"
        }
      }
    },
    {
      "fullUrl": "urn:uuid:ce83c051-0794-4805-bdb3-9d9bc100ec76",
      "resource": {
        "resourceType": "AllergyIntolerance",
        "id": "ce83c051-0794-4805-bdb3-9d9bc100ec76",
        "meta": {
          "profile": [
            "http://hl7.eu/fhir/eps/StructureDefinition/allergyIntolerance-eu-eps"
          ]
        },
        "code": {
          "text": ""
        },
        "clinicalStatus": {
          "coding": [
            {
              "code": "active",
              "system": "http://terminology.hl7.org/CodeSystem/allergyintolerance-clinical"
            }
          ]
        },
        "text": {
          "status": "generated",
          "div": "<div xmlns=\"http://www.w3.org/1999/xhtml\"><table class=\"hl7__ips\"><tr><th>Allergy/Intolerance</th><th>Onset Date</th><th>Status</th><th>Type</th><th>Reaction</th></tr><tr><td></td><td>?</td><td>active</td><td>?</td><td></td></tr></table></div>"
        },
        "verificationStatus": {
          "coding": [
            {
              "code": "confirmed",
              "system": "http://terminology.hl7.org/CodeSystem/allergyintolerance-verification"
            }
          ]
        },
        "patient": {
          "reference": "urn:uuid:e51a5d0c-0e99-41cf-aa6f-9c70d3b634f0",
          "display": "Eileen Taylor"
        },
        "_onsetDateTime": {
          "extension": [
            {
              "url": "http://hl7.org/fhir/StructureDefinition/data-absent-reason",
              "valueCode": "unknown"
            }
          ]
        }
      }
    },
    {
      "fullUrl": "urn:uuid:851606b1-b469-4846-8b50-3d268ec80c0b",
      "resource": {
        "resourceType": "CarePlan",
        "id": "851606b1-b469-4846-8b50-3d268ec80c0b",
        "category": [
          {
            "coding": [
              {
                "code": "assess-plan",
                "system": "http://terminology.hl7.org/CodeSystem/care-plan-category",
                "display": "Assessment and Plan"
              }
            ]
          }
        ],
        "activity": [
          {
            "detail": {
              "code": {
                "coding": [
                  {
                    "code": "408869004",
                    "system": "http://snomed.info/sct",
                    "display": "Musculoskeletal care (regime/therapy)"
                  }
                ]
              },
              "reasonCode": [
                {
                  "coding": [
                    {
                      "code": "239873007",
                      "system": "http://snomed.info/sct",
                      "display": "Osteoarthritis of knee"
                    }
                  ]
                }
              ],
              "status": "unknown",
              "description": "Musculoskeletal care",
              "kind": "Appointment"
            }
          }
        ],
        "period": {
          "start": "2008-03-19"
        },
        "goal": [
          {
            "reference": "urn:uuid:de92f618-454d-486f-ad31-43a720d76be2"
          },
          {
            "reference": "urn:uuid:aa454840-3802-4af7-a4f3-79153df68ee3"
          },
          {
            "reference": "urn:uuid:0ce651e0-088e-4ed3-b6ad-f3ba6a1e4aab"
          }
        ],
        "text": {
          "status": "generated",
          "div": "<div xmlns=\"http://www.w3.org/1999/xhtml\"><table class=\"hl7__ips first25\"><tr><th>Active Planned Care / Goals</th><th>Start Date</th><th>Reason</th></tr><tr><td>Musculoskeletal care</td><td><span class=\"nb\">19-Mar-2008</span></td><td>Osteoarthritis of knee</td></tr><tr><td><ul><li>Reduce knee pain severity to a tolerable level to improve mobility and quality of life</li><li>Increase ability to walk and perform daily activities without significant limitation from knee osteoarthritis</li><li>Engage in at least 30 minutes of moderate physical activity most days of the week as tolerated</li></ul></td><td></td><td></td></tr></table></div>"
        },
        "status": "active",
        "intent": "plan",
        "subject": {
          "reference": "urn:uuid:e51a5d0c-0e99-41cf-aa6f-9c70d3b634f0",
          "display": "Eileen Taylor"
        }
      }
    },
    {
      "fullUrl": "urn:uuid:035554c7-cd6e-4c6a-9f85-0676f763bf86",
      "resource": {
        "resourceType": "CarePlan",
        "id": "035554c7-cd6e-4c6a-9f85-0676f763bf86",
        "category": [
          {
            "coding": [
              {
                "code": "assess-plan",
                "system": "http://terminology.hl7.org/CodeSystem/care-plan-category",
                "display": "Assessment and Plan"
              }
            ]
          }
        ],
        "activity": [
          {
            "detail": {
              "code": {
                "coding": [
                  {
                    "code": "736285004",
                    "system": "http://snomed.info/sct",
                    "display": "Hyperlipidemia clinical management plan (record artifact)"
                  }
                ]
              },
              "reasonCode": [
                {
                  "coding": [
                    {
                      "code": "55822004",
                      "system": "http://snomed.info/sct",
                      "display": "Hyperlipidemia"
                    }
                  ]
                }
              ],
              "status": "unknown",
              "description": "Hyperlipidemia clinical management plan",
              "kind": "Appointment"
            }
          }
        ],
        "period": {
          "start": "1997-01-13"
        },
        "goal": [
          {
            "reference": "urn:uuid:a53cc6f8-be33-4d11-bc71-ecc95c80203a"
          },
          {
            "reference": "urn:uuid:59a03bfd-e2cf-42a3-a3e7-5ba8c7abbedb"
          },
          {
            "reference": "urn:uuid:9bf60af9-ba01-4dbf-a557-a8dd15cdd8ab"
          },
          {
            "reference": "urn:uuid:f947d0d4-ffdf-4407-a6da-1fc9be0c58c8"
          }
        ],
        "text": {
          "status": "generated",
          "div": "<div xmlns=\"http://www.w3.org/1999/xhtml\"><table class=\"hl7__ips first25\"><tr><th>Active Planned Care / Goals</th><th>Start Date</th><th>Reason</th></tr><tr><td>Hyperlipidemia clinical management plan</td><td><span class=\"nb\">13-Jan-1997</span></td><td>Hyperlipidemia</td></tr><tr><td><ul><li>Achieve and maintain LDL cholesterol below 2.6 mmol/L</li><li>Achieve and maintain total cholesterol below 5.2 mmol/L</li><li>Maintain HDL cholesterol above 1.3 mmol/L</li><li>Achieve and maintain triglycerides below 1.7 mmol/L</li></ul></td><td></td><td></td></tr></table></div>"
        },
        "status": "active",
        "intent": "plan",
        "subject": {
          "reference": "urn:uuid:e51a5d0c-0e99-41cf-aa6f-9c70d3b634f0",
          "display": "Eileen Taylor"
        }
      }
    },
    {
      "fullUrl": "urn:uuid:7f90c03c-7c45-4198-86b5-12e886ac99a9",
      "resource": {
        "resourceType": "ImmunizationRecommendation",
        "id": "7f90c03c-7c45-4198-86b5-12e886ac99a9",
        "recommendation": [
          {
            "vaccineCode": [
              {
                "coding": [
                  {
                    "code": "1181000221105",
                    "system": "http://snomed.info/sct",
                    "display": "Vaccine product containing only Influenza virus antigen (medicinal product)"
                  }
                ]
              }
            ],
            "dateCriterion": [
              {
                "code": {
                  "coding": [
                    {
                      "code": "30980-7",
                      "system": "http://loinc.org",
                      "display": "Date vaccine due"
                    }
                  ]
                },
                "value": "2025-10-01"
              }
            ],
            "targetDisease": {
              "coding": [
                {
                  "code": "6142004",
                  "system": "http://snomed.info/sct",
                  "display": "Influenza (disorder)"
                }
              ]
            },
            "series": "Annual seasonal influenza vaccination",
            "forecastStatus": {
              "coding": [
                {
                  "code": "due",
                  "system": "http://terminology.hl7.org/CodeSystem/immunization-recommendation-status",
                  "display": "Due"
                }
              ]
            }
          }
        ],
        "text": {
          "status": "generated",
          "div": "<div xmlns=\"http://www.w3.org/1999/xhtml\"><table class=\"hl7__ips\"><tr><td>Vaccine product containing only Influenza virus antigen (medicinal product)</td><td><span class=\"nb\">01-Oct-2025</span></td><td>Annual seasonal influenza vaccination</td></tr></table></div>"
        },
        "date": "2025-10-22",
        "patient": {
          "reference": "urn:uuid:e51a5d0c-0e99-41cf-aa6f-9c70d3b634f0",
          "display": "Eileen Taylor"
        }
      }
    },
    {
      "fullUrl": "urn:uuid:a1fc813b-b885-4973-b665-a5f8b283e036",
      "resource": {
        "resourceType": "Observation",
        "id": "a1fc813b-b885-4973-b665-a5f8b283e036",
        "meta": {
          "profile": [
            "http://hl7.org/fhir/StructureDefinition/vitalsigns"
          ]
        },
        "category": [
          {
            "coding": [
              {
                "system": "http://terminology.hl7.org/CodeSystem/observation-category",
                "code": "vital-signs",
                "display": "Vital Signs"
              }
            ]
          }
        ],
        "valueQuantity": {
          "value": 155,
          "code": "cm",
          "unit": "cm"
        },
        "text": {
          "status": "generated",
          "div": "<div xmlns=\"http://www.w3.org/1999/xhtml\"><table class=\"hl7__ips\"><tr><th>Vital Sign</th><th>Date</th><th>Measurement</th></tr><tr><td>Body Height</td><td>28-Apr-2025</td><td>155 cm</td></tr></table></div>"
        },
        "status": "final",
        "code": {
          "coding": [
            {
              "code": "$8302-2",
              "system": "http://loinc.org",
              "display": "Body Height"
            }
          ]
        },
        "subject": {
          "reference": "urn:uuid:e51a5d0c-0e99-41cf-aa6f-9c70d3b634f0",
          "display": "Eileen Taylor"
        },
        "effectiveDateTime": "2025-04-28"
      }
    },
    {
      "fullUrl": "urn:uuid:4b6d7718-0849-4951-abff-c8652542c5fc",
      "resource": {
        "resourceType": "Observation",
        "id": "4b6d7718-0849-4951-abff-c8652542c5fc",
        "meta": {
          "profile": [
            "http://hl7.org/fhir/StructureDefinition/vitalsigns"
          ]
        },
        "category": [
          {
            "coding": [
              {
                "system": "http://terminology.hl7.org/CodeSystem/observation-category",
                "code": "vital-signs",
                "display": "Vital Signs"
              }
            ]
          }
        ],
        "valueQuantity": {
          "value": 3,
          "code": "{score}",
          "unit": "{score}"
        },
        "text": {
          "status": "generated",
          "div": "<div xmlns=\"http://www.w3.org/1999/xhtml\"><table class=\"hl7__ips\"><tr><th>Vital Sign</th><th>Date</th><th>Measurement</th></tr><tr><td>Pain severity - 0-10 verbal numeric rating [Score] - Reported</td><td>28-Apr-2025</td><td>3 {score}</td></tr></table></div>"
        },
        "status": "final",
        "code": {
          "coding": [
            {
              "code": "$72514-3",
              "system": "http://loinc.org",
              "display": "Pain severity - 0-10 verbal numeric rating [Score] - Reported"
            }
          ]
        },
        "subject": {
          "reference": "urn:uuid:e51a5d0c-0e99-41cf-aa6f-9c70d3b634f0",
          "display": "Eileen Taylor"
        },
        "effectiveDateTime": "2025-04-28"
      }
    },
    {
      "fullUrl": "urn:uuid:723e079f-4c34-41cb-81a7-69d10f0e461f",
      "resource": {
        "resourceType": "Observation",
        "id": "723e079f-4c34-41cb-81a7-69d10f0e461f",
        "meta": {
          "profile": [
            "http://hl7.org/fhir/StructureDefinition/vitalsigns"
          ]
        },
        "category": [
          {
            "coding": [
              {
                "system": "http://terminology.hl7.org/CodeSystem/observation-category",
                "code": "vital-signs",
                "display": "Vital Signs"
              }
            ]
          }
        ],
        "valueQuantity": {
          "value": 67.1,
          "code": "kg",
          "unit": "kg"
        },
        "text": {
          "status": "generated",
          "div": "<div xmlns=\"http://www.w3.org/1999/xhtml\"><table class=\"hl7__ips\"><tr><th>Vital Sign</th><th>Date</th><th>Measurement</th></tr><tr><td>Body Weight</td><td>28-Apr-2025</td><td>67.1 kg</td></tr></table></div>"
        },
        "status": "final",
        "code": {
          "coding": [
            {
              "code": "$29463-7",
              "system": "http://loinc.org",
              "display": "Body Weight"
            }
          ]
        },
        "subject": {
          "reference": "urn:uuid:e51a5d0c-0e99-41cf-aa6f-9c70d3b634f0",
          "display": "Eileen Taylor"
        },
        "effectiveDateTime": "2025-04-28"
      }
    },
    {
      "fullUrl": "urn:uuid:394ba868-08ed-4ccf-b75e-22725383c444",
      "resource": {
        "resourceType": "Observation",
        "id": "394ba868-08ed-4ccf-b75e-22725383c444",
        "meta": {
          "profile": [
            "http://hl7.org/fhir/StructureDefinition/vitalsigns"
          ]
        },
        "category": [
          {
            "coding": [
              {
                "system": "http://terminology.hl7.org/CodeSystem/observation-category",
                "code": "vital-signs",
                "display": "Vital Signs"
              }
            ]
          }
        ],
        "valueQuantity": {
          "value": 27.9,
          "code": "kg/m2",
          "unit": "kg/m2"
        },
        "text": {
          "status": "generated",
          "div": "<div xmlns=\"http://www.w3.org/1999/xhtml\"><table class=\"hl7__ips\"><tr><th>Vital Sign</th><th>Date</th><th>Measurement</th></tr><tr><td>Body mass index (BMI) [Ratio]</td><td>28-Apr-2025</td><td>27.9 kg/m2</td></tr></table></div>"
        },
        "status": "final",
        "code": {
          "coding": [
            {
              "code": "$39156-5",
              "system": "http://loinc.org",
              "display": "Body mass index (BMI) [Ratio]"
            }
          ]
        },
        "subject": {
          "reference": "urn:uuid:e51a5d0c-0e99-41cf-aa6f-9c70d3b634f0",
          "display": "Eileen Taylor"
        },
        "effectiveDateTime": "2025-04-28"
      }
    },
    {
      "fullUrl": "urn:uuid:c05cb5a8-f91d-4208-8963-00b92ed28594",
      "resource": {
        "resourceType": "Observation",
        "id": "c05cb5a8-f91d-4208-8963-00b92ed28594",
        "meta": {
          "profile": [
            "http://hl7.org/fhir/StructureDefinition/vitalsigns"
          ]
        },
        "category": [
          {
            "coding": [
              {
                "system": "http://terminology.hl7.org/CodeSystem/observation-category",
                "code": "vital-signs",
                "display": "Vital Signs"
              }
            ]
          }
        ],
        "valueQuantity": {
          "value": 82,
          "code": "mm[Hg]",
          "unit": "mm[Hg]"
        },
        "text": {
          "status": "generated",
          "div": "<div xmlns=\"http://www.w3.org/1999/xhtml\"><table class=\"hl7__ips\"><tr><th>Vital Sign</th><th>Date</th><th>Measurement</th></tr><tr><td>Diastolic Blood Pressure</td><td>28-Apr-2025</td><td>82 mm[Hg]</td></tr></table></div>"
        },
        "status": "final",
        "code": {
          "coding": [
            {
              "code": "$8462-4",
              "system": "http://loinc.org",
              "display": "Diastolic Blood Pressure"
            }
          ]
        },
        "subject": {
          "reference": "urn:uuid:e51a5d0c-0e99-41cf-aa6f-9c70d3b634f0",
          "display": "Eileen Taylor"
        },
        "effectiveDateTime": "2025-04-28"
      }
    },
    {
      "fullUrl": "urn:uuid:77b153b2-0a29-40d9-abee-9f1c6251dd31",
      "resource": {
        "resourceType": "Observation",
        "id": "77b153b2-0a29-40d9-abee-9f1c6251dd31",
        "meta": {
          "profile": [
            "http://hl7.org/fhir/StructureDefinition/vitalsigns"
          ]
        },
        "category": [
          {
            "coding": [
              {
                "system": "http://terminology.hl7.org/CodeSystem/observation-category",
                "code": "vital-signs",
                "display": "Vital Signs"
              }
            ]
          }
        ],
        "valueQuantity": {
          "value": 125,
          "code": "mm[Hg]",
          "unit": "mm[Hg]"
        },
        "text": {
          "status": "generated",
          "div": "<div xmlns=\"http://www.w3.org/1999/xhtml\"><table class=\"hl7__ips\"><tr><th>Vital Sign</th><th>Date</th><th>Measurement</th></tr><tr><td>Systolic Blood Pressure</td><td>28-Apr-2025</td><td>125 mm[Hg]</td></tr></table></div>"
        },
        "status": "final",
        "code": {
          "coding": [
            {
              "code": "$8480-6",
              "system": "http://loinc.org",
              "display": "Systolic Blood Pressure"
            }
          ]
        },
        "subject": {
          "reference": "urn:uuid:e51a5d0c-0e99-41cf-aa6f-9c70d3b634f0",
          "display": "Eileen Taylor"
        },
        "effectiveDateTime": "2025-04-28"
      }
    },
    {
      "fullUrl": "urn:uuid:63c5ad81-7f7f-4071-b234-215bf22a784d",
      "resource": {
        "resourceType": "Observation",
        "id": "63c5ad81-7f7f-4071-b234-215bf22a784d",
        "meta": {
          "profile": [
            "http://hl7.org/fhir/StructureDefinition/vitalsigns"
          ]
        },
        "category": [
          {
            "coding": [
              {
                "system": "http://terminology.hl7.org/CodeSystem/observation-category",
                "code": "vital-signs",
                "display": "Vital Signs"
              }
            ]
          }
        ],
        "valueQuantity": {
          "value": 86,
          "code": "/min",
          "unit": "/min"
        },
        "text": {
          "status": "generated",
          "div": "<div xmlns=\"http://www.w3.org/1999/xhtml\"><table class=\"hl7__ips\"><tr><th>Vital Sign</th><th>Date</th><th>Measurement</th></tr><tr><td>Heart rate</td><td>28-Apr-2025</td><td>86 /min</td></tr></table></div>"
        },
        "status": "final",
        "code": {
          "coding": [
            {
              "code": "$8867-4",
              "system": "http://loinc.org",
              "display": "Heart rate"
            }
          ]
        },
        "subject": {
          "reference": "urn:uuid:e51a5d0c-0e99-41cf-aa6f-9c70d3b634f0",
          "display": "Eileen Taylor"
        },
        "effectiveDateTime": "2025-04-28"
      }
    },
    {
      "fullUrl": "urn:uuid:8b6d6606-b14f-41a4-a1a3-5c571e4fe129",
      "resource": {
        "resourceType": "Observation",
        "id": "8b6d6606-b14f-41a4-a1a3-5c571e4fe129",
        "meta": {
          "profile": [
            "http://hl7.org/fhir/StructureDefinition/vitalsigns"
          ]
        },
        "category": [
          {
            "coding": [
              {
                "system": "http://terminology.hl7.org/CodeSystem/observation-category",
                "code": "vital-signs",
                "display": "Vital Signs"
              }
            ]
          }
        ],
        "valueQuantity": {
          "value": 16,
          "code": "/min",
          "unit": "/min"
        },
        "text": {
          "status": "generated",
          "div": "<div xmlns=\"http://www.w3.org/1999/xhtml\"><table class=\"hl7__ips\"><tr><th>Vital Sign</th><th>Date</th><th>Measurement</th></tr><tr><td>Respiratory rate</td><td>28-Apr-2025</td><td>16 /min</td></tr></table></div>"
        },
        "status": "final",
        "code": {
          "coding": [
            {
              "code": "$9279-1",
              "system": "http://loinc.org",
              "display": "Respiratory rate"
            }
          ]
        },
        "subject": {
          "reference": "urn:uuid:e51a5d0c-0e99-41cf-aa6f-9c70d3b634f0",
          "display": "Eileen Taylor"
        },
        "effectiveDateTime": "2025-04-28"
      }
    },
    {
      "fullUrl": "urn:uuid:87f78372-ddd8-4d17-89bb-296f0b01268e",
      "resource": {
        "resourceType": "Observation",
        "id": "87f78372-ddd8-4d17-89bb-296f0b01268e",
        "meta": {
          "profile": [
            "http://hl7.org/fhir/StructureDefinition/vitalsigns"
          ]
        },
        "category": [
          {
            "coding": [
              {
                "system": "http://terminology.hl7.org/CodeSystem/observation-category",
                "code": "vital-signs",
                "display": "Vital Signs"
              }
            ]
          }
        ],
        "valueQuantity": {
          "value": 155,
          "code": "cm",
          "unit": "cm"
        },
        "text": {
          "status": "generated",
          "div": "<div xmlns=\"http://www.w3.org/1999/xhtml\"><table class=\"hl7__ips\"><tr><th>Vital Sign</th><th>Date</th><th>Measurement</th></tr><tr><td>Body Height</td><td>22-Apr-2024</td><td>155 cm</td></tr></table></div>"
        },
        "status": "final",
        "code": {
          "coding": [
            {
              "code": "$8302-2",
              "system": "http://loinc.org",
              "display": "Body Height"
            }
          ]
        },
        "subject": {
          "reference": "urn:uuid:e51a5d0c-0e99-41cf-aa6f-9c70d3b634f0",
          "display": "Eileen Taylor"
        },
        "effectiveDateTime": "2024-04-22"
      }
    },
    {
      "fullUrl": "urn:uuid:8953ec34-fd09-4198-975a-519a9eafd3fd",
      "resource": {
        "resourceType": "Observation",
        "id": "8953ec34-fd09-4198-975a-519a9eafd3fd",
        "meta": {
          "profile": [
            "http://hl7.org/fhir/StructureDefinition/vitalsigns"
          ]
        },
        "category": [
          {
            "coding": [
              {
                "system": "http://terminology.hl7.org/CodeSystem/observation-category",
                "code": "vital-signs",
                "display": "Vital Signs"
              }
            ]
          }
        ],
        "valueQuantity": {
          "value": 2,
          "code": "{score}",
          "unit": "{score}"
        },
        "text": {
          "status": "generated",
          "div": "<div xmlns=\"http://www.w3.org/1999/xhtml\"><table class=\"hl7__ips\"><tr><th>Vital Sign</th><th>Date</th><th>Measurement</th></tr><tr><td>Pain severity - 0-10 verbal numeric rating [Score] - Reported</td><td>22-Apr-2024</td><td>2 {score}</td></tr></table></div>"
        },
        "status": "final",
        "code": {
          "coding": [
            {
              "code": "$72514-3",
              "system": "http://loinc.org",
              "display": "Pain severity - 0-10 verbal numeric rating [Score] - Reported"
            }
          ]
        },
        "subject": {
          "reference": "urn:uuid:e51a5d0c-0e99-41cf-aa6f-9c70d3b634f0",
          "display": "Eileen Taylor"
        },
        "effectiveDateTime": "2024-04-22"
      }
    },
    {
      "fullUrl": "urn:uuid:7bfd7677-038d-4819-b595-8851c25446f6",
      "resource": {
        "resourceType": "Observation",
        "id": "7bfd7677-038d-4819-b595-8851c25446f6",
        "meta": {
          "profile": [
            "http://hl7.org/fhir/StructureDefinition/vitalsigns"
          ]
        },
        "category": [
          {
            "coding": [
              {
                "system": "http://terminology.hl7.org/CodeSystem/observation-category",
                "code": "vital-signs",
                "display": "Vital Signs"
              }
            ]
          }
        ],
        "valueQuantity": {
          "value": 67.1,
          "code": "kg",
          "unit": "kg"
        },
        "text": {
          "status": "generated",
          "div": "<div xmlns=\"http://www.w3.org/1999/xhtml\"><table class=\"hl7__ips\"><tr><th>Vital Sign</th><th>Date</th><th>Measurement</th></tr><tr><td>Body Weight</td><td>22-Apr-2024</td><td>67.1 kg</td></tr></table></div>"
        },
        "status": "final",
        "code": {
          "coding": [
            {
              "code": "$29463-7",
              "system": "http://loinc.org",
              "display": "Body Weight"
            }
          ]
        },
        "subject": {
          "reference": "urn:uuid:e51a5d0c-0e99-41cf-aa6f-9c70d3b634f0",
          "display": "Eileen Taylor"
        },
        "effectiveDateTime": "2024-04-22"
      }
    },
    {
      "fullUrl": "urn:uuid:bacc2e41-e20a-43aa-8732-dae163e2d295",
      "resource": {
        "resourceType": "Observation",
        "id": "bacc2e41-e20a-43aa-8732-dae163e2d295",
        "meta": {
          "profile": [
            "http://hl7.org/fhir/StructureDefinition/vitalsigns"
          ]
        },
        "category": [
          {
            "coding": [
              {
                "system": "http://terminology.hl7.org/CodeSystem/observation-category",
                "code": "vital-signs",
                "display": "Vital Signs"
              }
            ]
          }
        ],
        "valueQuantity": {
          "value": 27.9,
          "code": "kg/m2",
          "unit": "kg/m2"
        },
        "text": {
          "status": "generated",
          "div": "<div xmlns=\"http://www.w3.org/1999/xhtml\"><table class=\"hl7__ips\"><tr><th>Vital Sign</th><th>Date</th><th>Measurement</th></tr><tr><td>Body mass index (BMI) [Ratio]</td><td>22-Apr-2024</td><td>27.9 kg/m2</td></tr></table></div>"
        },
        "status": "final",
        "code": {
          "coding": [
            {
              "code": "$39156-5",
              "system": "http://loinc.org",
              "display": "Body mass index (BMI) [Ratio]"
            }
          ]
        },
        "subject": {
          "reference": "urn:uuid:e51a5d0c-0e99-41cf-aa6f-9c70d3b634f0",
          "display": "Eileen Taylor"
        },
        "effectiveDateTime": "2024-04-22"
      }
    },
    {
      "fullUrl": "urn:uuid:009d7830-a007-4213-8cad-7583c2bee277",
      "resource": {
        "resourceType": "Observation",
        "id": "009d7830-a007-4213-8cad-7583c2bee277",
        "meta": {
          "profile": [
            "http://hl7.org/fhir/StructureDefinition/vitalsigns"
          ]
        },
        "category": [
          {
            "coding": [
              {
                "system": "http://terminology.hl7.org/CodeSystem/observation-category",
                "code": "vital-signs",
                "display": "Vital Signs"
              }
            ]
          }
        ],
        "valueQuantity": {
          "value": 82,
          "code": "mm[Hg]",
          "unit": "mm[Hg]"
        },
        "text": {
          "status": "generated",
          "div": "<div xmlns=\"http://www.w3.org/1999/xhtml\"><table class=\"hl7__ips\"><tr><th>Vital Sign</th><th>Date</th><th>Measurement</th></tr><tr><td>Diastolic Blood Pressure</td><td>22-Apr-2024</td><td>82 mm[Hg]</td></tr></table></div>"
        },
        "status": "final",
        "code": {
          "coding": [
            {
              "code": "$8462-4",
              "system": "http://loinc.org",
              "display": "Diastolic Blood Pressure"
            }
          ]
        },
        "subject": {
          "reference": "urn:uuid:e51a5d0c-0e99-41cf-aa6f-9c70d3b634f0",
          "display": "Eileen Taylor"
        },
        "effectiveDateTime": "2024-04-22"
      }
    },
    {
      "fullUrl": "urn:uuid:0d6fb8ab-4574-498d-a747-50ec6b9a215f",
      "resource": {
        "resourceType": "Observation",
        "id": "0d6fb8ab-4574-498d-a747-50ec6b9a215f",
        "meta": {
          "profile": [
            "http://hl7.org/fhir/StructureDefinition/vitalsigns"
          ]
        },
        "category": [
          {
            "coding": [
              {
                "system": "http://terminology.hl7.org/CodeSystem/observation-category",
                "code": "vital-signs",
                "display": "Vital Signs"
              }
            ]
          }
        ],
        "valueQuantity": {
          "value": 123,
          "code": "mm[Hg]",
          "unit": "mm[Hg]"
        },
        "text": {
          "status": "generated",
          "div": "<div xmlns=\"http://www.w3.org/1999/xhtml\"><table class=\"hl7__ips\"><tr><th>Vital Sign</th><th>Date</th><th>Measurement</th></tr><tr><td>Systolic Blood Pressure</td><td>22-Apr-2024</td><td>123 mm[Hg]</td></tr></table></div>"
        },
        "status": "final",
        "code": {
          "coding": [
            {
              "code": "$8480-6",
              "system": "http://loinc.org",
              "display": "Systolic Blood Pressure"
            }
          ]
        },
        "subject": {
          "reference": "urn:uuid:e51a5d0c-0e99-41cf-aa6f-9c70d3b634f0",
          "display": "Eileen Taylor"
        },
        "effectiveDateTime": "2024-04-22"
      }
    },
    {
      "fullUrl": "urn:uuid:bd3a7b44-d8cb-4694-85f4-d86c491d8dfa",
      "resource": {
        "resourceType": "Observation",
        "id": "bd3a7b44-d8cb-4694-85f4-d86c491d8dfa",
        "meta": {
          "profile": [
            "http://hl7.org/fhir/StructureDefinition/vitalsigns"
          ]
        },
        "category": [
          {
            "coding": [
              {
                "system": "http://terminology.hl7.org/CodeSystem/observation-category",
                "code": "vital-signs",
                "display": "Vital Signs"
              }
            ]
          }
        ],
        "valueQuantity": {
          "value": 67,
          "code": "/min",
          "unit": "/min"
        },
        "text": {
          "status": "generated",
          "div": "<div xmlns=\"http://www.w3.org/1999/xhtml\"><table class=\"hl7__ips\"><tr><th>Vital Sign</th><th>Date</th><th>Measurement</th></tr><tr><td>Heart rate</td><td>22-Apr-2024</td><td>67 /min</td></tr></table></div>"
        },
        "status": "final",
        "code": {
          "coding": [
            {
              "code": "$8867-4",
              "system": "http://loinc.org",
              "display": "Heart rate"
            }
          ]
        },
        "subject": {
          "reference": "urn:uuid:e51a5d0c-0e99-41cf-aa6f-9c70d3b634f0",
          "display": "Eileen Taylor"
        },
        "effectiveDateTime": "2024-04-22"
      }
    },
    {
      "fullUrl": "urn:uuid:a09e6361-c17c-4e97-9522-18fc46d458dd",
      "resource": {
        "resourceType": "Observation",
        "id": "a09e6361-c17c-4e97-9522-18fc46d458dd",
        "meta": {
          "profile": [
            "http://hl7.org/fhir/StructureDefinition/vitalsigns"
          ]
        },
        "category": [
          {
            "coding": [
              {
                "system": "http://terminology.hl7.org/CodeSystem/observation-category",
                "code": "vital-signs",
                "display": "Vital Signs"
              }
            ]
          }
        ],
        "valueQuantity": {
          "value": 12,
          "code": "/min",
          "unit": "/min"
        },
        "text": {
          "status": "generated",
          "div": "<div xmlns=\"http://www.w3.org/1999/xhtml\"><table class=\"hl7__ips\"><tr><th>Vital Sign</th><th>Date</th><th>Measurement</th></tr><tr><td>Respiratory rate</td><td>22-Apr-2024</td><td>12 /min</td></tr></table></div>"
        },
        "status": "final",
        "code": {
          "coding": [
            {
              "code": "$9279-1",
              "system": "http://loinc.org",
              "display": "Respiratory rate"
            }
          ]
        },
        "subject": {
          "reference": "urn:uuid:e51a5d0c-0e99-41cf-aa6f-9c70d3b634f0",
          "display": "Eileen Taylor"
        },
        "effectiveDateTime": "2024-04-22"
      }
    },
    {
      "fullUrl": "urn:uuid:295a128f-b535-4ab3-888b-340fcfb80c86",
      "resource": {
        "resourceType": "Observation",
        "id": "295a128f-b535-4ab3-888b-340fcfb80c86",
        "meta": {
          "profile": [
            "http://hl7.eu/fhir/laboratory/StructureDefinition/Observation-resultslab-eu-lab"
          ]
        },
        "performer": [
          {
            "display": "The Central European Lab"
          }
        ],
        "category": [
          {
            "coding": [
              {
                "system": "http://terminology.hl7.org/CodeSystem/observation-category",
                "code": "laboratory"
              }
            ]
          }
        ],
        "code": {
          "coding": [
            {
              "code": "2339-0",
              "system": "http://loinc.org",
              "display": "Glucose [Mass/volume] in Blood"
            }
          ],
          "text": "Glucose [Mass/volume] in Blood"
        },
        "valueQuantity": {
          "system": "http://unitsofmeasure.org",
          "value": 99.4,
          "unit": "mg/dL",
          "code": "mg/dL"
        },
        "referenceRange": [
          {
            "low": {
              "value": 70,
              "code": "mg/dL",
              "system": "http://unitsofmeasure.org"
            }
          },
          {
            "high": {
              "value": 140,
              "code": "mg/dL",
              "system": "http://unitsofmeasure.org"
            }
          }
        ],
        "text": {
          "status": "generated",
          "div": "<div xmlns=\"http://www.w3.org/1999/xhtml\"><table class=\"hl7__eu__lab__report\"><tr><th>Test</th><th>05-May-2025</th><th>Reference&#xA0;Range</th><th>Unit</th></tr><tr><td>Glucose [Mass/volume] in Blood</td><td>99.4</td><td>70 - 140</td><td></td><td>mg/dL</td></tr></table></div>"
        },
        "status": "final",
        "subject": {
          "reference": "urn:uuid:e51a5d0c-0e99-41cf-aa6f-9c70d3b634f0",
          "display": "Eileen Taylor"
        },
        "effectiveDateTime": "2025-05-05T05:47:02Z"
      }
    },
    {
      "fullUrl": "urn:uuid:cee4091b-14c3-433a-a7e7-cc6df7f54141",
      "resource": {
        "resourceType": "Observation",
        "id": "cee4091b-14c3-433a-a7e7-cc6df7f54141",
        "meta": {
          "profile": [
            "http://hl7.eu/fhir/laboratory/StructureDefinition/Observation-resultslab-eu-lab"
          ]
        },
        "performer": [
          {
            "display": "The Central European Lab"
          }
        ],
        "category": [
          {
            "coding": [
              {
                "system": "http://terminology.hl7.org/CodeSystem/observation-category",
                "code": "laboratory"
              }
            ]
          }
        ],
        "code": {
          "coding": [
            {
              "code": "6299-2",
              "system": "http://loinc.org",
              "display": "Urea nitrogen [Mass/volume] in Blood"
            }
          ],
          "text": "Urea nitrogen [Mass/volume] in Blood"
        },
        "valueQuantity": {
          "system": "http://unitsofmeasure.org",
          "value": 15.8,
          "unit": "mg/dL",
          "code": "mg/dL"
        },
        "referenceRange": [
          {
            "low": {
              "value": 7,
              "code": "mg/dL",
              "system": "http://unitsofmeasure.org"
            }
          },
          {
            "high": {
              "value": 20,
              "code": "mg/dL",
              "system": "http://unitsofmeasure.org"
            }
          }
        ],
        "text": {
          "status": "generated",
          "div": "<div xmlns=\"http://www.w3.org/1999/xhtml\"><table class=\"hl7__eu__lab__report\"><tr><th>Test</th><th>05-May-2025</th><th>Reference&#xA0;Range</th><th>Unit</th></tr><tr><td>Urea nitrogen [Mass/volume] in Blood</td><td>15.8</td><td>7 - 20</td><td></td><td>mg/dL</td></tr></table></div>"
        },
        "status": "final",
        "subject": {
          "reference": "urn:uuid:e51a5d0c-0e99-41cf-aa6f-9c70d3b634f0",
          "display": "Eileen Taylor"
        },
        "effectiveDateTime": "2025-05-05T05:47:02Z"
      }
    },
    {
      "fullUrl": "urn:uuid:dff75ab0-9509-473c-9550-3c3c543c73c7",
      "resource": {
        "resourceType": "Observation",
        "id": "dff75ab0-9509-473c-9550-3c3c543c73c7",
        "meta": {
          "profile": [
            "http://hl7.eu/fhir/laboratory/StructureDefinition/Observation-resultslab-eu-lab"
          ]
        },
        "performer": [
          {
            "display": "The Central European Lab"
          }
        ],
        "category": [
          {
            "coding": [
              {
                "system": "http://terminology.hl7.org/CodeSystem/observation-category",
                "code": "laboratory"
              }
            ]
          }
        ],
        "code": {
          "coding": [
            {
              "code": "38483-4",
              "system": "http://loinc.org",
              "display": "Creatinine [Mass/volume] in Blood"
            }
          ],
          "text": "Creatinine [Mass/volume] in Blood"
        },
        "valueQuantity": {
          "system": "http://unitsofmeasure.org",
          "value": 3.1,
          "unit": "mg/dL",
          "code": "mg/dL"
        },
        "referenceRange": [
          {
            "low": {
              "value": 0.6,
              "code": "mg/dL",
              "system": "http://unitsofmeasure.org"
            }
          },
          {
            "high": {
              "value": 1.1,
              "code": "mg/dL",
              "system": "http://unitsofmeasure.org"
            }
          }
        ],
        "interpretation": [
          {
            "coding": [
              {
                "code": "H",
                "system": "http://terminology.hl7.org/CodeSystem/v3-ObservationInterpretation",
                "display": "High"
              }
            ]
          }
        ],
        "text": {
          "status": "generated",
          "div": "<div xmlns=\"http://www.w3.org/1999/xhtml\"><table class=\"hl7__eu__lab__report\"><tr><th>Test</th><th>05-May-2025</th><th>Reference&#xA0;Range</th><th>Unit</th></tr><tr><td>Creatinine [Mass/volume] in Blood</td><td>3.1</td><td>0.6 - 1.1</td><td>H</td><td>mg/dL</td></tr></table></div>"
        },
        "status": "final",
        "subject": {
          "reference": "urn:uuid:e51a5d0c-0e99-41cf-aa6f-9c70d3b634f0",
          "display": "Eileen Taylor"
        },
        "effectiveDateTime": "2025-05-05T05:47:02Z"
      }
    },
    {
      "fullUrl": "urn:uuid:70be9026-bebf-4e79-98c4-4cff3d12c32f",
      "resource": {
        "resourceType": "Observation",
        "id": "70be9026-bebf-4e79-98c4-4cff3d12c32f",
        "meta": {
          "profile": [
            "http://hl7.eu/fhir/laboratory/StructureDefinition/Observation-resultslab-eu-lab"
          ]
        },
        "performer": [
          {
            "display": "The Central European Lab"
          }
        ],
        "category": [
          {
            "coding": [
              {
                "system": "http://terminology.hl7.org/CodeSystem/observation-category",
                "code": "laboratory"
              }
            ]
          }
        ],
        "code": {
          "coding": [
            {
              "code": "49765-1",
              "system": "http://loinc.org",
              "display": "Calcium [Mass/volume] in Blood"
            }
          ],
          "text": "Calcium [Mass/volume] in Blood"
        },
        "valueQuantity": {
          "system": "http://unitsofmeasure.org",
          "value": 9.7,
          "unit": "mg/dL",
          "code": "mg/dL"
        },
        "referenceRange": [
          {
            "low": {
              "value": 8.5,
              "code": "mg/dL",
              "system": "http://unitsofmeasure.org"
            }
          },
          {
            "high": {
              "value": 10.4,
              "code": "mg/dL",
              "system": "http://unitsofmeasure.org"
            }
          }
        ],
        "text": {
          "status": "generated",
          "div": "<div xmlns=\"http://www.w3.org/1999/xhtml\"><table class=\"hl7__eu__lab__report\"><tr><th>Test</th><th>05-May-2025</th><th>Reference&#xA0;Range</th><th>Unit</th></tr><tr><td>Calcium [Mass/volume] in Blood</td><td>9.7</td><td>8.5 - 10.4</td><td></td><td>mg/dL</td></tr></table></div>"
        },
        "status": "final",
        "subject": {
          "reference": "urn:uuid:e51a5d0c-0e99-41cf-aa6f-9c70d3b634f0",
          "display": "Eileen Taylor"
        },
        "effectiveDateTime": "2025-05-05T05:47:02Z"
      }
    },
    {
      "fullUrl": "urn:uuid:a2f22325-086f-45d0-9641-92322ad56ec4",
      "resource": {
        "resourceType": "Observation",
        "id": "a2f22325-086f-45d0-9641-92322ad56ec4",
        "meta": {
          "profile": [
            "http://hl7.eu/fhir/laboratory/StructureDefinition/Observation-resultslab-eu-lab"
          ]
        },
        "performer": [
          {
            "display": "The Central European Lab"
          }
        ],
        "category": [
          {
            "coding": [
              {
                "system": "http://terminology.hl7.org/CodeSystem/observation-category",
                "code": "laboratory"
              }
            ]
          }
        ],
        "code": {
          "coding": [
            {
              "code": "2947-0",
              "system": "http://loinc.org",
              "display": "Sodium [Moles/volume] in Blood"
            }
          ],
          "text": "Sodium [Moles/volume] in Blood"
        },
        "valueQuantity": {
          "system": "http://unitsofmeasure.org",
          "value": 136.4,
          "unit": "mmol/L",
          "code": "mmol/L"
        },
        "referenceRange": [
          {
            "low": {
              "value": 135,
              "code": "mmol/L",
              "system": "http://unitsofmeasure.org"
            }
          },
          {
            "high": {
              "value": 145,
              "code": "mmol/L",
              "system": "http://unitsofmeasure.org"
            }
          }
        ],
        "text": {
          "status": "generated",
          "div": "<div xmlns=\"http://www.w3.org/1999/xhtml\"><table class=\"hl7__eu__lab__report\"><tr><th>Test</th><th>05-May-2025</th><th>Reference&#xA0;Range</th><th>Unit</th></tr><tr><td>Sodium [Moles/volume] in Blood</td><td>136.4</td><td>135 - 145</td><td></td><td>mmol/L</td></tr></table></div>"
        },
        "status": "final",
        "subject": {
          "reference": "urn:uuid:e51a5d0c-0e99-41cf-aa6f-9c70d3b634f0",
          "display": "Eileen Taylor"
        },
        "effectiveDateTime": "2025-05-05T05:47:02Z"
      }
    },
    {
      "fullUrl": "urn:uuid:d0305f6f-dcd3-49bb-882a-d7654bf0c1e1",
      "resource": {
        "resourceType": "Observation",
        "id": "d0305f6f-dcd3-49bb-882a-d7654bf0c1e1",
        "meta": {
          "profile": [
            "http://hl7.eu/fhir/laboratory/StructureDefinition/Observation-resultslab-eu-lab"
          ]
        },
        "performer": [
          {
            "display": "The Central European Lab"
          }
        ],
        "category": [
          {
            "coding": [
              {
                "system": "http://terminology.hl7.org/CodeSystem/observation-category",
                "code": "laboratory"
              }
            ]
          }
        ],
        "code": {
          "coding": [
            {
              "code": "6298-4",
              "system": "http://loinc.org",
              "display": "Potassium [Moles/volume] in Blood"
            }
          ],
          "text": "Potassium [Moles/volume] in Blood"
        },
        "valueQuantity": {
          "system": "http://unitsofmeasure.org",
          "value": 4.5,
          "unit": "mmol/L",
          "code": "mmol/L"
        },
        "referenceRange": [
          {
            "low": {
              "value": 3.5,
              "code": "mmol/L",
              "system": "http://unitsofmeasure.org"
            }
          },
          {
            "high": {
              "value": 5.1,
              "code": "mmol/L",
              "system": "http://unitsofmeasure.org"
            }
          }
        ],
        "text": {
          "status": "generated",
          "div": "<div xmlns=\"http://www.w3.org/1999/xhtml\"><table class=\"hl7__eu__lab__report\"><tr><th>Test</th><th>05-May-2025</th><th>Reference&#xA0;Range</th><th>Unit</th></tr><tr><td>Potassium [Moles/volume] in Blood</td><td>4.5</td><td>3.5 - 5.1</td><td></td><td>mmol/L</td></tr></table></div>"
        },
        "status": "final",
        "subject": {
          "reference": "urn:uuid:e51a5d0c-0e99-41cf-aa6f-9c70d3b634f0",
          "display": "Eileen Taylor"
        },
        "effectiveDateTime": "2025-05-05T05:47:02Z"
      }
    },
    {
      "fullUrl": "urn:uuid:2571f6b3-616a-4009-837b-734af83a9fa8",
      "resource": {
        "resourceType": "Observation",
        "id": "2571f6b3-616a-4009-837b-734af83a9fa8",
        "meta": {
          "profile": [
            "http://hl7.eu/fhir/laboratory/StructureDefinition/Observation-resultslab-eu-lab"
          ]
        },
        "performer": [
          {
            "display": "The Central European Lab"
          }
        ],
        "category": [
          {
            "coding": [
              {
                "system": "http://terminology.hl7.org/CodeSystem/observation-category",
                "code": "laboratory"
              }
            ]
          }
        ],
        "code": {
          "coding": [
            {
              "code": "2069-3",
              "system": "http://loinc.org",
              "display": "Chloride [Moles/volume] in Blood"
            }
          ],
          "text": "Chloride [Moles/volume] in Blood"
        },
        "valueQuantity": {
          "system": "http://unitsofmeasure.org",
          "value": 105.1,
          "unit": "mmol/L",
          "code": "mmol/L"
        },
        "referenceRange": [
          {
            "low": {
              "value": 98,
              "code": "mmol/L",
              "system": "http://unitsofmeasure.org"
            }
          },
          {
            "high": {
              "value": 108,
              "code": "mmol/L",
              "system": "http://unitsofmeasure.org"
            }
          }
        ],
        "text": {
          "status": "generated",
          "div": "<div xmlns=\"http://www.w3.org/1999/xhtml\"><table class=\"hl7__eu__lab__report\"><tr><th>Test</th><th>05-May-2025</th><th>Reference&#xA0;Range</th><th>Unit</th></tr><tr><td>Chloride [Moles/volume] in Blood</td><td>105.1</td><td>98 - 108</td><td></td><td>mmol/L</td></tr></table></div>"
        },
        "status": "final",
        "subject": {
          "reference": "urn:uuid:e51a5d0c-0e99-41cf-aa6f-9c70d3b634f0",
          "display": "Eileen Taylor"
        },
        "effectiveDateTime": "2025-05-05T05:47:02Z"
      }
    },
    {
      "fullUrl": "urn:uuid:b6b9e716-8dfa-46bb-8cbb-ad1b3a35cac8",
      "resource": {
        "resourceType": "Observation",
        "id": "b6b9e716-8dfa-46bb-8cbb-ad1b3a35cac8",
        "meta": {
          "profile": [
            "http://hl7.eu/fhir/laboratory/StructureDefinition/Observation-resultslab-eu-lab"
          ]
        },
        "performer": [
          {
            "display": "The Central European Lab"
          }
        ],
        "category": [
          {
            "coding": [
              {
                "system": "http://terminology.hl7.org/CodeSystem/observation-category",
                "code": "laboratory"
              }
            ]
          }
        ],
        "code": {
          "coding": [
            {
              "code": "20565-8",
              "system": "http://loinc.org",
              "display": "Carbon dioxide, total [Moles/volume] in Blood"
            }
          ],
          "text": "Carbon dioxide, total [Moles/volume] in Blood"
        },
        "valueQuantity": {
          "system": "http://unitsofmeasure.org",
          "value": 26.1,
          "unit": "mmol/L",
          "code": "mmol/L"
        },
        "referenceRange": [
          {
            "low": {
              "value": 22,
              "code": "mmol/L",
              "system": "http://unitsofmeasure.org"
            }
          },
          {
            "high": {
              "value": 29,
              "code": "mmol/L",
              "system": "http://unitsofmeasure.org"
            }
          }
        ],
        "text": {
          "status": "generated",
          "div": "<div xmlns=\"http://www.w3.org/1999/xhtml\"><table class=\"hl7__eu__lab__report\"><tr><th>Test</th><th>05-May-2025</th><th>Reference&#xA0;Range</th><th>Unit</th></tr><tr><td>Carbon dioxide, total [Moles/volume] in Blood</td><td>26.1</td><td>22 - 29</td><td></td><td>mmol/L</td></tr></table></div>"
        },
        "status": "final",
        "subject": {
          "reference": "urn:uuid:e51a5d0c-0e99-41cf-aa6f-9c70d3b634f0",
          "display": "Eileen Taylor"
        },
        "effectiveDateTime": "2025-05-05T05:47:02Z"
      }
    },
    {
      "fullUrl": "urn:uuid:8354cdf9-f4a2-4df6-9be7-863b189cb65a",
      "resource": {
        "resourceType": "Observation",
        "id": "8354cdf9-f4a2-4df6-9be7-863b189cb65a",
        "meta": {
          "profile": [
            "http://hl7.eu/fhir/laboratory/StructureDefinition/Observation-resultslab-eu-lab"
          ]
        },
        "performer": [
          {
            "display": "The Central European Lab"
          }
        ],
        "category": [
          {
            "coding": [
              {
                "system": "http://terminology.hl7.org/CodeSystem/observation-category",
                "code": "laboratory"
              }
            ]
          }
        ],
        "code": {
          "coding": [
            {
              "code": "2885-2",
              "system": "http://loinc.org",
              "display": "Protein [Mass/volume] in Serum or Plasma"
            }
          ],
          "text": "Protein [Mass/volume] in Serum or Plasma"
        },
        "valueQuantity": {
          "system": "http://unitsofmeasure.org",
          "value": 6.8,
          "unit": "g/dL",
          "code": "g/dL"
        },
        "referenceRange": [
          {
            "low": {
              "value": 6,
              "code": "g/dL",
              "system": "http://unitsofmeasure.org"
            }
          },
          {
            "high": {
              "value": 8.3,
              "code": "g/dL",
              "system": "http://unitsofmeasure.org"
            }
          }
        ],
        "text": {
          "status": "generated",
          "div": "<div xmlns=\"http://www.w3.org/1999/xhtml\"><table class=\"hl7__eu__lab__report\"><tr><th>Test</th><th>05-May-2025</th><th>Reference&#xA0;Range</th><th>Unit</th></tr><tr><td>Protein [Mass/volume] in Serum or Plasma</td><td>6.8</td><td>6 - 8.3</td><td></td><td>g/dL</td></tr></table></div>"
        },
        "status": "final",
        "subject": {
          "reference": "urn:uuid:e51a5d0c-0e99-41cf-aa6f-9c70d3b634f0",
          "display": "Eileen Taylor"
        },
        "effectiveDateTime": "2025-05-05T05:47:02Z"
      }
    },
    {
      "fullUrl": "urn:uuid:7bc93415-2151-41de-926a-be2cef93f8b0",
      "resource": {
        "resourceType": "Observation",
        "id": "7bc93415-2151-41de-926a-be2cef93f8b0",
        "meta": {
          "profile": [
            "http://hl7.eu/fhir/laboratory/StructureDefinition/Observation-resultslab-eu-lab"
          ]
        },
        "performer": [
          {
            "display": "The Central European Lab"
          }
        ],
        "category": [
          {
            "coding": [
              {
                "system": "http://terminology.hl7.org/CodeSystem/observation-category",
                "code": "laboratory"
              }
            ]
          }
        ],
        "code": {
          "coding": [
            {
              "code": "1751-7",
              "system": "http://loinc.org",
              "display": "Albumin [Mass/volume] in Serum or Plasma"
            }
          ],
          "text": "Albumin [Mass/volume] in Serum or Plasma"
        },
        "valueQuantity": {
          "system": "http://unitsofmeasure.org",
          "value": 5.2,
          "unit": "g/dL",
          "code": "g/dL"
        },
        "referenceRange": [
          {
            "low": {
              "value": 3.4,
              "code": "g/dL",
              "system": "http://unitsofmeasure.org"
            }
          },
          {
            "high": {
              "value": 5,
              "code": "g/dL",
              "system": "http://unitsofmeasure.org"
            }
          }
        ],
        "interpretation": [
          {
            "coding": [
              {
                "code": "H",
                "system": "http://terminology.hl7.org/CodeSystem/v3-ObservationInterpretation",
                "display": "High"
              }
            ]
          }
        ],
        "text": {
          "status": "generated",
          "div": "<div xmlns=\"http://www.w3.org/1999/xhtml\"><table class=\"hl7__eu__lab__report\"><tr><th>Test</th><th>05-May-2025</th><th>Reference&#xA0;Range</th><th>Unit</th></tr><tr><td>Albumin [Mass/volume] in Serum or Plasma</td><td>5.2</td><td>3.4 - 5</td><td>H</td><td>g/dL</td></tr></table></div>"
        },
        "status": "final",
        "subject": {
          "reference": "urn:uuid:e51a5d0c-0e99-41cf-aa6f-9c70d3b634f0",
          "display": "Eileen Taylor"
        },
        "effectiveDateTime": "2025-05-05T05:47:02Z"
      }
    },
    {
      "fullUrl": "urn:uuid:8e43396b-a690-46ef-92c6-9061f620ab9f",
      "resource": {
        "resourceType": "Observation",
        "id": "8e43396b-a690-46ef-92c6-9061f620ab9f",
        "meta": {
          "profile": [
            "http://hl7.eu/fhir/laboratory/StructureDefinition/Observation-resultslab-eu-lab"
          ]
        },
        "performer": [
          {
            "display": "The Central European Lab"
          }
        ],
        "category": [
          {
            "coding": [
              {
                "system": "http://terminology.hl7.org/CodeSystem/observation-category",
                "code": "laboratory"
              }
            ]
          }
        ],
        "code": {
          "coding": [
            {
              "code": "10834-0",
              "system": "http://loinc.org",
              "display": "Globulin [Mass/volume] in Serum by calculation"
            }
          ],
          "text": "Globulin [Mass/volume] in Serum by calculation"
        },
        "valueQuantity": {
          "system": "http://unitsofmeasure.org",
          "value": 2.1,
          "unit": "g/L",
          "code": "g/L"
        },
        "referenceRange": [
          {
            "low": {
              "value": 2,
              "code": "g/L",
              "system": "http://unitsofmeasure.org"
            }
          },
          {
            "high": {
              "value": 3.5,
              "code": "g/L",
              "system": "http://unitsofmeasure.org"
            }
          }
        ],
        "text": {
          "status": "generated",
          "div": "<div xmlns=\"http://www.w3.org/1999/xhtml\"><table class=\"hl7__eu__lab__report\"><tr><th>Test</th><th>05-May-2025</th><th>Reference&#xA0;Range</th><th>Unit</th></tr><tr><td>Globulin [Mass/volume] in Serum by calculation</td><td>2.1</td><td>2 - 3.5</td><td></td><td>g/L</td></tr></table></div>"
        },
        "status": "final",
        "subject": {
          "reference": "urn:uuid:e51a5d0c-0e99-41cf-aa6f-9c70d3b634f0",
          "display": "Eileen Taylor"
        },
        "effectiveDateTime": "2025-05-05T05:47:02Z"
      }
    },
    {
      "fullUrl": "urn:uuid:a50b761c-a5c8-488c-b92a-761d8dc6708f",
      "resource": {
        "resourceType": "Observation",
        "id": "a50b761c-a5c8-488c-b92a-761d8dc6708f",
        "meta": {
          "profile": [
            "http://hl7.eu/fhir/laboratory/StructureDefinition/Observation-resultslab-eu-lab"
          ]
        },
        "performer": [
          {
            "display": "The Central European Lab"
          }
        ],
        "category": [
          {
            "coding": [
              {
                "system": "http://terminology.hl7.org/CodeSystem/observation-category",
                "code": "laboratory"
              }
            ]
          }
        ],
        "code": {
          "coding": [
            {
              "code": "1975-2",
              "system": "http://loinc.org",
              "display": "Bilirubin.total [Mass/volume] in Serum or Plasma"
            }
          ],
          "text": "Bilirubin.total [Mass/volume] in Serum or Plasma"
        },
        "valueQuantity": {
          "system": "http://unitsofmeasure.org",
          "value": 0.7,
          "unit": "mg/dL",
          "code": "mg/dL"
        },
        "referenceRange": [
          {
            "low": {
              "value": 0.2,
              "code": "mg/dL",
              "system": "http://unitsofmeasure.org"
            }
          },
          {
            "high": {
              "value": 1.2,
              "code": "mg/dL",
              "system": "http://unitsofmeasure.org"
            }
          }
        ],
        "text": {
          "status": "generated",
          "div": "<div xmlns=\"http://www.w3.org/1999/xhtml\"><table class=\"hl7__eu__lab__report\"><tr><th>Test</th><th>05-May-2025</th><th>Reference&#xA0;Range</th><th>Unit</th></tr><tr><td>Bilirubin.total [Mass/volume] in Serum or Plasma</td><td>0.7</td><td>0.2 - 1.2</td><td></td><td>mg/dL</td></tr></table></div>"
        },
        "status": "final",
        "subject": {
          "reference": "urn:uuid:e51a5d0c-0e99-41cf-aa6f-9c70d3b634f0",
          "display": "Eileen Taylor"
        },
        "effectiveDateTime": "2025-05-05T05:47:02Z"
      }
    },
    {
      "fullUrl": "urn:uuid:efc07344-2994-40be-95d7-f553c0eed6f3",
      "resource": {
        "resourceType": "Observation",
        "id": "efc07344-2994-40be-95d7-f553c0eed6f3",
        "meta": {
          "profile": [
            "http://hl7.eu/fhir/laboratory/StructureDefinition/Observation-resultslab-eu-lab"
          ]
        },
        "performer": [
          {
            "display": "The Central European Lab"
          }
        ],
        "category": [
          {
            "coding": [
              {
                "system": "http://terminology.hl7.org/CodeSystem/observation-category",
                "code": "laboratory"
              }
            ]
          }
        ],
        "code": {
          "coding": [
            {
              "code": "6768-6",
              "system": "http://loinc.org",
              "display": "Alkaline phosphatase [Enzymatic activity/volume] in Serum or Plasma"
            }
          ],
          "text": "Alkaline phosphatase [Enzymatic activity/volume] in Serum or Plasma"
        },
        "valueQuantity": {
          "system": "http://unitsofmeasure.org",
          "value": 127.5,
          "unit": "U/L",
          "code": "U/L"
        },
        "referenceRange": [
          {
            "low": {
              "value": 44,
              "code": "U/L",
              "system": "http://unitsofmeasure.org"
            }
          },
          {
            "high": {
              "value": 104,
              "code": "U/L",
              "system": "http://unitsofmeasure.org"
            }
          }
        ],
        "interpretation": [
          {
            "coding": [
              {
                "code": "H",
                "system": "http://terminology.hl7.org/CodeSystem/v3-ObservationInterpretation",
                "display": "High"
              }
            ]
          }
        ],
        "text": {
          "status": "generated",
          "div": "<div xmlns=\"http://www.w3.org/1999/xhtml\"><table class=\"hl7__eu__lab__report\"><tr><th>Test</th><th>05-May-2025</th><th>Reference&#xA0;Range</th><th>Unit</th></tr><tr><td>Alkaline phosphatase [Enzymatic activity/volume] in Serum or Plasma</td><td>127.5</td><td>44 - 104</td><td>H</td><td>U/L</td></tr></table></div>"
        },
        "status": "final",
        "subject": {
          "reference": "urn:uuid:e51a5d0c-0e99-41cf-aa6f-9c70d3b634f0",
          "display": "Eileen Taylor"
        },
        "effectiveDateTime": "2025-05-05T05:47:02Z"
      }
    },
    {
      "fullUrl": "urn:uuid:d3128d67-284f-439a-8faf-21cac4738e16",
      "resource": {
        "resourceType": "Observation",
        "id": "d3128d67-284f-439a-8faf-21cac4738e16",
        "meta": {
          "profile": [
            "http://hl7.eu/fhir/laboratory/StructureDefinition/Observation-resultslab-eu-lab"
          ]
        },
        "performer": [
          {
            "display": "The Central European Lab"
          }
        ],
        "category": [
          {
            "coding": [
              {
                "system": "http://terminology.hl7.org/CodeSystem/observation-category",
                "code": "laboratory"
              }
            ]
          }
        ],
        "code": {
          "coding": [
            {
              "code": "1742-6",
              "system": "http://loinc.org",
              "display": "Alanine aminotransferase [Enzymatic activity/volume] in Serum or Plasma"
            }
          ],
          "text": "Alanine aminotransferase [Enzymatic activity/volume] in Serum or Plasma"
        },
        "valueQuantity": {
          "system": "http://unitsofmeasure.org",
          "value": 46.3,
          "unit": "U/L",
          "code": "U/L"
        },
        "referenceRange": [
          {
            "low": {
              "value": 13,
              "code": "U/L",
              "system": "http://unitsofmeasure.org"
            }
          },
          {
            "high": {
              "value": 36,
              "code": "U/L",
              "system": "http://unitsofmeasure.org"
            }
          }
        ],
        "interpretation": [
          {
            "coding": [
              {
                "code": "H",
                "system": "http://terminology.hl7.org/CodeSystem/v3-ObservationInterpretation",
                "display": "High"
              }
            ]
          }
        ],
        "text": {
          "status": "generated",
          "div": "<div xmlns=\"http://www.w3.org/1999/xhtml\"><table class=\"hl7__eu__lab__report\"><tr><th>Test</th><th>05-May-2025</th><th>Reference&#xA0;Range</th><th>Unit</th></tr><tr><td>Alanine aminotransferase [Enzymatic activity/volume] in Serum or Plasma</td><td>46.3</td><td>13 - 36</td><td>H</td><td>U/L</td></tr></table></div>"
        },
        "status": "final",
        "subject": {
          "reference": "urn:uuid:e51a5d0c-0e99-41cf-aa6f-9c70d3b634f0",
          "display": "Eileen Taylor"
        },
        "effectiveDateTime": "2025-05-05T05:47:02Z"
      }
    },
    {
      "fullUrl": "urn:uuid:ee9d82fb-d574-4658-8e21-6ee8e2cb81a2",
      "resource": {
        "resourceType": "Observation",
        "id": "ee9d82fb-d574-4658-8e21-6ee8e2cb81a2",
        "meta": {
          "profile": [
            "http://hl7.eu/fhir/laboratory/StructureDefinition/Observation-resultslab-eu-lab"
          ]
        },
        "performer": [
          {
            "display": "The Central European Lab"
          }
        ],
        "category": [
          {
            "coding": [
              {
                "system": "http://terminology.hl7.org/CodeSystem/observation-category",
                "code": "laboratory"
              }
            ]
          }
        ],
        "code": {
          "coding": [
            {
              "code": "1920-8",
              "system": "http://loinc.org",
              "display": "Aspartate aminotransferase [Enzymatic activity/volume] in Serum or Plasma"
            }
          ],
          "text": "Aspartate aminotransferase [Enzymatic activity/volume] in Serum or Plasma"
        },
        "valueQuantity": {
          "system": "http://unitsofmeasure.org",
          "value": 36.8,
          "unit": "U/L",
          "code": "U/L"
        },
        "referenceRange": [
          {
            "low": {
              "value": 10,
              "code": "U/L",
              "system": "http://unitsofmeasure.org"
            }
          },
          {
            "high": {
              "value": 40,
              "code": "U/L",
              "system": "http://unitsofmeasure.org"
            }
          }
        ],
        "text": {
          "status": "generated",
          "div": "<div xmlns=\"http://www.w3.org/1999/xhtml\"><table class=\"hl7__eu__lab__report\"><tr><th>Test</th><th>05-May-2025</th><th>Reference&#xA0;Range</th><th>Unit</th></tr><tr><td>Aspartate aminotransferase [Enzymatic activity/volume] in Serum or Plasma</td><td>36.8</td><td>10 - 40</td><td></td><td>U/L</td></tr></table></div>"
        },
        "status": "final",
        "subject": {
          "reference": "urn:uuid:e51a5d0c-0e99-41cf-aa6f-9c70d3b634f0",
          "display": "Eileen Taylor"
        },
        "effectiveDateTime": "2025-05-05T05:47:02Z"
      }
    },
    {
      "fullUrl": "urn:uuid:a7b8064a-a5c5-4660-bffb-30814f739965",
      "resource": {
        "resourceType": "Observation",
        "id": "a7b8064a-a5c5-4660-bffb-30814f739965",
        "meta": {
          "profile": [
            "http://hl7.eu/fhir/laboratory/StructureDefinition/Observation-resultslab-eu-lab"
          ]
        },
        "performer": [
          {
            "display": "The Central European Lab"
          }
        ],
        "category": [
          {
            "coding": [
              {
                "system": "http://terminology.hl7.org/CodeSystem/observation-category",
                "code": "laboratory"
              }
            ]
          }
        ],
        "code": {
          "coding": [
            {
              "code": "2093-3",
              "system": "http://loinc.org",
              "display": "Cholesterol [Mass/volume] in Serum or Plasma"
            }
          ],
          "text": "Cholesterol [Mass/volume] in Serum or Plasma"
        },
        "valueQuantity": {
          "system": "http://unitsofmeasure.org",
          "value": 181.1,
          "unit": "mg/dL",
          "code": "mg/dL"
        },
        "referenceRange": [
          {
            "low": {
              "value": 130,
              "code": "mg/dL",
              "system": "http://unitsofmeasure.org"
            }
          },
          {
            "high": {
              "value": 200,
              "code": "mg/dL",
              "system": "http://unitsofmeasure.org"
            }
          }
        ],
        "text": {
          "status": "generated",
          "div": "<div xmlns=\"http://www.w3.org/1999/xhtml\"><table class=\"hl7__eu__lab__report\"><tr><th>Test</th><th>05-May-2025</th><th>Reference&#xA0;Range</th><th>Unit</th></tr><tr><td>Cholesterol [Mass/volume] in Serum or Plasma</td><td>181.1</td><td>130 - 200</td><td></td><td>mg/dL</td></tr></table></div>"
        },
        "status": "final",
        "subject": {
          "reference": "urn:uuid:e51a5d0c-0e99-41cf-aa6f-9c70d3b634f0",
          "display": "Eileen Taylor"
        },
        "effectiveDateTime": "2025-05-05T05:47:02Z"
      }
    },
    {
      "fullUrl": "urn:uuid:f2ca2787-ea33-4eea-b9c1-17ce9ade01d3",
      "resource": {
        "resourceType": "Observation",
        "id": "f2ca2787-ea33-4eea-b9c1-17ce9ade01d3",
        "meta": {
          "profile": [
            "http://hl7.eu/fhir/laboratory/StructureDefinition/Observation-resultslab-eu-lab"
          ]
        },
        "performer": [
          {
            "display": "The Central European Lab"
          }
        ],
        "category": [
          {
            "coding": [
              {
                "system": "http://terminology.hl7.org/CodeSystem/observation-category",
                "code": "laboratory"
              }
            ]
          }
        ],
        "code": {
          "coding": [
            {
              "code": "2571-8",
              "system": "http://loinc.org",
              "display": "Triglyceride [Mass/volume] in Serum or Plasma"
            }
          ],
          "text": "Triglyceride [Mass/volume] in Serum or Plasma"
        },
        "valueQuantity": {
          "system": "http://unitsofmeasure.org",
          "value": 101.8,
          "unit": "mg/dL",
          "code": "mg/dL"
        },
        "referenceRange": [
          {
            "low": {
              "value": 35,
              "code": "mg/dL",
              "system": "http://unitsofmeasure.org"
            }
          },
          {
            "high": {
              "value": 175,
              "code": "mg/dL",
              "system": "http://unitsofmeasure.org"
            }
          }
        ],
        "text": {
          "status": "generated",
          "div": "<div xmlns=\"http://www.w3.org/1999/xhtml\"><table class=\"hl7__eu__lab__report\"><tr><th>Test</th><th>05-May-2025</th><th>Reference&#xA0;Range</th><th>Unit</th></tr><tr><td>Triglyceride [Mass/volume] in Serum or Plasma</td><td>101.8</td><td>35 - 175</td><td></td><td>mg/dL</td></tr></table></div>"
        },
        "status": "final",
        "subject": {
          "reference": "urn:uuid:e51a5d0c-0e99-41cf-aa6f-9c70d3b634f0",
          "display": "Eileen Taylor"
        },
        "effectiveDateTime": "2025-05-05T05:47:02Z"
      }
    },
    {
      "fullUrl": "urn:uuid:3879417f-737f-4b6a-b4b1-9d10221ff7c8",
      "resource": {
        "resourceType": "Observation",
        "id": "3879417f-737f-4b6a-b4b1-9d10221ff7c8",
        "meta": {
          "profile": [
            "http://hl7.eu/fhir/laboratory/StructureDefinition/Observation-resultslab-eu-lab"
          ]
        },
        "performer": [
          {
            "display": "The Central European Lab"
          }
        ],
        "category": [
          {
            "coding": [
              {
                "system": "http://terminology.hl7.org/CodeSystem/observation-category",
                "code": "laboratory"
              }
            ]
          }
        ],
        "code": {
          "coding": [
            {
              "code": "18262-6",
              "system": "http://loinc.org",
              "display": "Cholesterol in LDL [Mass/volume] in Serum or Plasma by Direct assay"
            }
          ],
          "text": "Cholesterol in LDL [Mass/volume] in Serum or Plasma by Direct assay"
        },
        "valueQuantity": {
          "system": "http://unitsofmeasure.org",
          "value": 94,
          "unit": "mg/dL",
          "code": "mg/dL"
        },
        "referenceRange": [
          {
            "low": {
              "value": 0,
              "code": "mg/dL",
              "system": "http://unitsofmeasure.org"
            }
          },
          {
            "high": {
              "value": 190,
              "code": "mg/dL",
              "system": "http://unitsofmeasure.org"
            }
          }
        ],
        "text": {
          "status": "generated",
          "div": "<div xmlns=\"http://www.w3.org/1999/xhtml\"><table class=\"hl7__eu__lab__report\"><tr><th>Test</th><th>05-May-2025</th><th>Reference&#xA0;Range</th><th>Unit</th></tr><tr><td>Cholesterol in LDL [Mass/volume] in Serum or Plasma by Direct assay</td><td>94.0</td><td>0 - 190</td><td></td><td>mg/dL</td></tr></table></div>"
        },
        "status": "final",
        "subject": {
          "reference": "urn:uuid:e51a5d0c-0e99-41cf-aa6f-9c70d3b634f0",
          "display": "Eileen Taylor"
        },
        "effectiveDateTime": "2025-05-05T05:47:02Z"
      }
    },
    {
      "fullUrl": "urn:uuid:77019f9a-a208-4a30-be7e-e2f0272e9d9d",
      "resource": {
        "resourceType": "Observation",
        "id": "77019f9a-a208-4a30-be7e-e2f0272e9d9d",
        "meta": {
          "profile": [
            "http://hl7.eu/fhir/laboratory/StructureDefinition/Observation-resultslab-eu-lab"
          ]
        },
        "performer": [
          {
            "display": "The Central European Lab"
          }
        ],
        "category": [
          {
            "coding": [
              {
                "system": "http://terminology.hl7.org/CodeSystem/observation-category",
                "code": "laboratory"
              }
            ]
          }
        ],
        "code": {
          "coding": [
            {
              "code": "2085-9",
              "system": "http://loinc.org",
              "display": "Cholesterol in HDL [Mass/volume] in Serum or Plasma"
            }
          ],
          "text": "Cholesterol in HDL [Mass/volume] in Serum or Plasma"
        },
        "valueQuantity": {
          "system": "http://unitsofmeasure.org",
          "value": 54.9,
          "unit": "mg/dL",
          "code": "mg/dL"
        },
        "referenceRange": [
          {
            "low": {
              "value": 50,
              "code": "mg/dL",
              "system": "http://unitsofmeasure.org"
            }
          },
          {
            "high": {
              "value": 100,
              "code": "mg/dL",
              "system": "http://unitsofmeasure.org"
            }
          }
        ],
        "text": {
          "status": "generated",
          "div": "<div xmlns=\"http://www.w3.org/1999/xhtml\"><table class=\"hl7__eu__lab__report\"><tr><th>Test</th><th>05-May-2025</th><th>Reference&#xA0;Range</th><th>Unit</th></tr><tr><td>Cholesterol in HDL [Mass/volume] in Serum or Plasma</td><td>54.9</td><td>50 - 100</td><td></td><td>mg/dL</td></tr></table></div>"
        },
        "status": "final",
        "subject": {
          "reference": "urn:uuid:e51a5d0c-0e99-41cf-aa6f-9c70d3b634f0",
          "display": "Eileen Taylor"
        },
        "effectiveDateTime": "2025-05-05T05:47:02Z"
      }
    },
    {
      "fullUrl": "urn:uuid:0b6d2b11-6dfa-4527-b251-ad455fd48b7c",
      "resource": {
        "resourceType": "DeviceUseStatement",
        "id": "0b6d2b11-6dfa-4527-b251-ad455fd48b7c",
        "meta": {
          "profile": [
            "http://hl7.eu/fhir/eps/StructureDefinition/deviceUseStatement-eu-eps"
          ]
        },
        "timingPeriod": {
          "start": "2008-03-19"
        },
        "text": {
          "status": "generated",
          "div": "<div xmlns=\"http://www.w3.org/1999/xhtml\"><table class=\"hl7__ips\"><tr><td>Wheelchair accessory (physical object)</td><td><span class=\"nb\">19-Mar-2008</span></td></tr></table></div>"
        },
        "status": "active",
        "device": {
          "reference": "urn:uuid:e98596f8-43a4-4a81-9af1-d4a1a1df58d4",
          "display": "Wheelchair accessory (physical object)"
        },
        "subject": {
          "reference": "urn:uuid:e51a5d0c-0e99-41cf-aa6f-9c70d3b634f0",
          "display": "Eileen Taylor"
        }
      }
    },
    {
      "fullUrl": "urn:uuid:e98596f8-43a4-4a81-9af1-d4a1a1df58d4",
      "resource": {
        "resourceType": "Device",
        "id": "e98596f8-43a4-4a81-9af1-d4a1a1df58d4",
        "meta": {
          "profile": [
            "http://hl7.eu/fhir/eps/StructureDefinition/device-eu-eps"
          ]
        },
        "udiCarrier": [
          {
            "id": "(01)58230749558279(11)080227(17)330313(10)76225285450928(21)10251559463017"
          }
        ],
        "status": "active",
        "patient": {
          "reference": "urn:uuid:e51a5d0c-0e99-41cf-aa6f-9c70d3b634f0",
          "display": "Eileen Taylor"
        },
        "type": {
          "coding": [
            {
              "code": "705417005",
              "system": "http://snomed.info/sct",
              "display": "Wheelchair accessory (physical object)"
            }
          ]
        }
      }
    },
    {
      "fullUrl": "urn:uuid:2f130ad6-5a83-4972-9398-5c12e50738b8",
      "resource": {
        "resourceType": "DeviceUseStatement",
        "id": "2f130ad6-5a83-4972-9398-5c12e50738b8",
        "meta": {
          "profile": [
            "http://hl7.eu/fhir/eps/StructureDefinition/deviceUseStatement-eu-eps"
          ]
        },
        "timingPeriod": {
          "start": "2008-03-19"
        },
        "text": {
          "status": "generated",
          "div": "<div xmlns=\"http://www.w3.org/1999/xhtml\"><table class=\"hl7__ips\"><tr><td>Power-assisted wheelchair (physical object)</td><td><span class=\"nb\">19-Mar-2008</span></td></tr></table></div>"
        },
        "status": "active",
        "device": {
          "reference": "urn:uuid:17a89dd9-d955-4155-a242-ab3006152cd4",
          "display": "Power-assisted wheelchair (physical object)"
        },
        "subject": {
          "reference": "urn:uuid:e51a5d0c-0e99-41cf-aa6f-9c70d3b634f0",
          "display": "Eileen Taylor"
        }
      }
    },
    {
      "fullUrl": "urn:uuid:17a89dd9-d955-4155-a242-ab3006152cd4",
      "resource": {
        "resourceType": "Device",
        "id": "17a89dd9-d955-4155-a242-ab3006152cd4",
        "meta": {
          "profile": [
            "http://hl7.eu/fhir/eps/StructureDefinition/device-eu-eps"
          ]
        },
        "udiCarrier": [
          {
            "id": "(01)32203504002468(11)080227(17)330313(10)817484637584(21)132672242309356201"
          }
        ],
        "status": "active",
        "patient": {
          "reference": "urn:uuid:e51a5d0c-0e99-41cf-aa6f-9c70d3b634f0",
          "display": "Eileen Taylor"
        },
        "type": {
          "coding": [
            {
              "code": "705427004",
              "system": "http://snomed.info/sct",
              "display": "Power-assisted wheelchair (physical object)"
            }
          ]
        }
      }
    },
    {
      "fullUrl": "urn:uuid:0f70cc08-f36c-4d8f-b796-a6efb9aa2947",
      "resource": {
        "resourceType": "Device",
        "id": "0f70cc08-f36c-4d8f-b796-a6efb9aa2947",
        "deviceName": [
          {
            "name": "SYNDERAI Synthetic Generator",
            "type": "manufacturer-name"
          }
        ],
        "version": [
          {
            "value": "5.0"
          }
        ],
        "text": {
          "status": "generated",
          "div": "<div xmlns=\"http://www.w3.org/1999/xhtml\">SYNDERAI Synthetic Generator v5.0</div>"
        },
        "status": "active\"",
        "distinctIdentifier": "synderai-generator-50",
        "manufacturer": "SYNDERAI Project"
      }
    },
    {
      "fullUrl": "urn:uuid:f569e65b-89a5-4648-ac98-0ba879fdb830",
      "resource": {
        "resourceType": "Provenance",
        "id": "f569e65b-89a5-4648-ac98-0ba879fdb830",
        "target": [
          {
            "reference": "Patient/e51a5d0c-0e99-41cf-aa6f-9c70d3b634f0"
          },
          {
            "reference": "Bundle/0831eb9c-d798-437e-bd0c-79864d633419"
          },
          {
            "reference": "Composition/471cfbda-0358-433c-8ea6-9323959595f2"
          },
          {
            "reference": "PractitionerRole/37998c51-a508-4b6b-9017-1a17d177e970"
          },
          {
            "reference": "Organization/b5257e66-df5c-478b-8354-bda0e813b848"
          },
          {
            "reference": "Practitioner/7807b397-6c48-462e-9fb2-f73c4819342f"
          }
        ],
        "activity": {
          "text": "Synthetic Example Data Generation"
        },
        "policy": [
          "https://synderai.net/synderai-synthetic-data-policy"
        ],
        "agent": [
          {
            "type": {
              "text": "author"
            },
            "who": {
              "reference": "Device/0f70cc08-f36c-4d8f-b796-a6efb9aa2947"
            }
          }
        ],
        "reason": [
          {
            "text": "Interoperability Testing and Training (non-clinical use)"
          }
        ],
        "text": {
          "status": "generated",
          "div": "<div xmlns=\"http://www.w3.org/1999/xhtml\">Provenance for SYNDERAI Synthetic Example Data Resource</div>"
        },
        "recorded": "2025-05-05T05:47:02Z"
      }
    }
  ],
  "type": "document",
  "timestamp": "2025-05-05T05:47:02Z"
}
