{
  "resourceType": "Bundle",
  "id": "8911b718-f190-4310-8366-e4d3a7949607",
  "meta": {
    "profile": [
      "http://hl7.eu/fhir/eps/StructureDefinition/bundle-eu-eps"
    ]
  },
  "identifier": {
    "assigner": {
      "display": "HL7 Europe"
    },
    "system": "urn:oid:2.16.840.1.113883.2.51.999",
    "value": "3746e904-4325-4054-922d-f937c83ccfad"
  },
  "entry": [
    {
      "fullUrl": "urn:uuid:d0573c36-630a-469b-91cb-e460f6f72a10",
      "resource": {
        "resourceType": "Composition",
        "id": "d0573c36-630a-469b-91cb-e460f6f72a10",
        "meta": {
          "security": [
            {
              "system": "http://terminology.hl7.org/CodeSystem/v3-ActReason",
              "code": "HTEST"
            },
            {
              "system": "http://terminology.hl7.org/CodeSystem/v3-ActReason",
              "code": "TRAIN"
            }
          ],
          "tag": [
            {
              "system": "https://synderai.net/fhir/CodeSystem/tags",
              "code": "synthetic",
              "display": "SYNDERAI Synthetic data"
            }
          ],
          "profile": [
            "http://hl7.eu/fhir/eps/StructureDefinition/composition-eu-eps"
          ]
        },
        "identifier": {
          "assigner": {
            "display": "HL7 Europe"
          },
          "system": "urn:oid:2.16.840.1.113883.2.51.999",
          "value": "94eb49b1-8ae3-4a3a-a113-ba0890f1d425"
        },
        "type": {
          "coding": [
            {
              "system": "http://loinc.org",
              "code": "60591-5",
              "display": "Patient summary Document"
            }
          ],
          "text": "Patient summary Document"
        },
        "author": [
          {
            "reference": "urn:uuid:eb2c2cb5-d99b-4093-982e-5bcd7c567a34"
          }
        ],
        "section": [
          {
            "text": {
              "status": "generated",
              "div": "<div xmlns=\"http://www.w3.org/1999/xhtml\"><table class=\"hl7__ips\"><tr><th>Condition</th><th>Onset Date</th><th>Status</th></tr><tr><td>Prediabetes</td><td><span class=\"nb\">21-Jan-2024</span></td><td>active</td></tr><tr><td>Osteoarthritis of knee</td><td><span class=\"nb\">07-Jul-2017</span></td><td>active</td></tr></table></div>"
            },
            "entry": [
              {
                "reference": "urn:uuid:7fa2aa4e-208c-4cc9-9580-7278ef474d19"
              },
              {
                "reference": "urn:uuid:a739f8a5-e790-45dd-b380-3f122a6b2fe9"
              }
            ],
            "code": {
              "coding": [
                {
                  "system": "http://loinc.org",
                  "code": "11450-4",
                  "display": "Problem list - Reported"
                }
              ]
            },
            "title": "Problem list"
          },
          {
            "text": {
              "status": "generated"
            },
            "entry": [
              {
                "reference": "urn:uuid:73420b94-3999-415e-a19d-13e54d0407cc"
              },
              {
                "reference": "urn:uuid:73420b94-3999-415e-a19d-13e54d0407cc"
              }
            ],
            "code": {
              "coding": [
                {
                  "system": "http://loinc.org",
                  "code": "10160-0",
                  "display": "History of Medication use Narrative"
                }
              ]
            },
            "title": "Medication list"
          },
          {
            "text": {
              "status": "generated",
              "div": "<div xmlns=\"http://www.w3.org/1999/xhtml\"><table class=\"hl7__ips\"><tr><th>Vaccine</th><th>Date</th></tr><tr><td>Influenza virus antigen only vaccine product</td><td><span class=\"nb\">21-Jan-2024</span></td></tr><tr><td>Hepatitis A virus antigen only vaccine product</td><td><span class=\"nb\">16-Jan-2022</span></td></tr><tr><td>Clostridium tetani toxoid antigen adsorbed only vaccine product</td><td><span class=\"nb\">16-Jan-2022</span></td></tr><tr><td>SARS-CoV-2 mRNA vaccine</td><td><span class=\"nb\">02-May-2021</span></td></tr></table></div>"
            },
            "entry": [
              {
                "reference": "urn:uuid:f9339e6f-6f36-49ec-8d8c-61765f9f369b"
              },
              {
                "reference": "urn:uuid:943e9dbc-0d4f-41df-b05a-8ddf37cd53b1"
              },
              {
                "reference": "urn:uuid:6f44f392-917b-4438-bdb7-b81083f5230f"
              },
              {
                "reference": "urn:uuid:ed538de2-ea60-4cbe-a3d9-4f1233063b39"
              }
            ],
            "code": {
              "coding": [
                {
                  "system": "http://loinc.org",
                  "code": "11369-6",
                  "display": "History of Immunization note"
                }
              ]
            },
            "title": "Immunizations list"
          },
          {
            "text": {
              "status": "generated",
              "div": "<div xmlns=\"http://www.w3.org/1999/xhtml\"><table class=\"hl7__ips\"><tr><th>Allergy/Intolerance</th><th>Onset Date</th><th>Status</th><th>Type</th><th>Reaction</th></tr><tr><td>Vaccine product containing SARS-CoV-2 mRNA</td><td>?</td><td>active</td><td>?</td><td></td></tr></table></div>"
            },
            "entry": [
              {
                "reference": "urn:uuid:bc95678a-71fc-4f08-b2b7-6fafbc4532f0"
              }
            ],
            "code": {
              "coding": [
                {
                  "system": "http://loinc.org",
                  "code": "48765-2",
                  "display": "Allergies and adverse reactions Document"
                }
              ]
            },
            "title": "Allergies and Intolerances"
          },
          {
            "text": {
              "status": "generated",
              "div": "<div xmlns=\"http://www.w3.org/1999/xhtml\"><table class=\"hl7__ips\"><tr><th>Active Planned Care / Goals</th><th>Start Date</th><th>Reason</th></tr><tr><td>Diabetes self management plan</td><td><span class=\"nb\">21-Jan-2024</span></td><td>Prediabetes</td></tr><tr><td><ul><li>Patient will implement lifestyle modifications to maintain fasting plasma glucose within target range.</li></ul></td><td></td><td></td></tr><tr><td>Musculoskeletal care</td><td><span class=\"nb\">07-Jul-2017</span></td><td>Osteoarthritis of knee</td></tr><tr><td><ul><li>Reduce knee pain severity to a tolerable level to improve function and quality of life</li><li>Increase ability to perform daily activities such as walking and climbing stairs</li><li>Complete prescribed knee strengthening and flexibility exercises as recommended</li></ul></td><td></td><td></td></tr></table></div>"
            },
            "entry": [
              {
                "reference": "urn:uuid:04e0fd31-4d1d-4192-87b5-ef26165afe3c"
              },
              {
                "reference": "urn:uuid:7553bdb4-206e-426e-a428-0f77861e9da5"
              }
            ],
            "code": {
              "coding": [
                {
                  "system": "http://loinc.org",
                  "code": "18776-5",
                  "display": "Plan of care note"
                }
              ]
            },
            "title": "Care Plan"
          },
          {
            "text": {
              "status": "generated",
              "div": "<div xmlns=\"http://www.w3.org/1999/xhtml\"><table class=\"hl7__ips\"><tr><th>Vital Signs</th><th>2024-01-21</th><th>2022-01-16</th></tr><tr><td>Body Height</td><td>176.3 cm</td><td>176.3 cm</td></tr><tr><td>Pain severity - 0-10 verbal numeric rating [Score] - Reported</td><td>4 {score}</td><td>3 {score}</td></tr><tr><td>Body Weight</td><td>85.8 kg</td><td>93.2 kg</td></tr><tr><td>Body mass index (BMI) [Ratio]</td><td>27.6 kg/m2</td><td>30 kg/m2</td></tr><tr><td>Diastolic Blood Pressure</td><td>90 mm[Hg]</td><td>86 mm[Hg]</td></tr><tr><td>Systolic Blood Pressure</td><td>125 mm[Hg]</td><td>123 mm[Hg]</td></tr><tr><td>Heart rate</td><td>96 /min</td><td>79 /min</td></tr><tr><td>Respiratory rate</td><td>13 /min</td><td>15 /min</td></tr></table></div>"
            },
            "entry": [
              {
                "reference": "urn:uuid:d75b0f28-265e-4a1c-9cc3-e430c45c6eb1"
              },
              {
                "reference": "urn:uuid:f76ae342-7096-4aee-9d7a-a0cf100e45fc"
              },
              {
                "reference": "urn:uuid:db60d449-2516-48ab-95dd-028287b47279"
              },
              {
                "reference": "urn:uuid:bd6a2dbc-2141-4020-b37b-a99ca486bbfe"
              },
              {
                "reference": "urn:uuid:e822258a-a321-4dbd-82fd-87675791dd91"
              },
              {
                "reference": "urn:uuid:39010a83-0fc6-4689-a131-7f920c2b2a81"
              },
              {
                "reference": "urn:uuid:dc2d003b-0700-4691-bd9d-0929f06c3140"
              },
              {
                "reference": "urn:uuid:b8c55acb-910c-4c7d-ac35-95840850b81e"
              },
              {
                "reference": "urn:uuid:805ee60e-4bde-4675-a5e5-28bb51f5c887"
              },
              {
                "reference": "urn:uuid:90a63178-52cb-4eb4-9095-49ca2654a982"
              },
              {
                "reference": "urn:uuid:f40def04-10f7-4f6e-8506-3d8a4e834ce5"
              },
              {
                "reference": "urn:uuid:d79bc271-af1b-477c-bd18-6ce88ba80390"
              },
              {
                "reference": "urn:uuid:5937d069-e01f-4449-af72-4b30650fa7e0"
              },
              {
                "reference": "urn:uuid:a16d07e6-d6d3-4346-b439-575c68f324e3"
              },
              {
                "reference": "urn:uuid:6ad788e3-edf2-4956-acc4-f866ff80ab1e"
              },
              {
                "reference": "urn:uuid:f8727ee4-f141-40fd-9ced-433f78d05c50"
              }
            ],
            "code": {
              "coding": [
                {
                  "system": "http://loinc.org",
                  "code": "8716-3",
                  "display": "Vital signs note"
                }
              ]
            },
            "title": "Vital Signs"
          },
          {
            "text": {
              "status": "generated",
              "div": "<div xmlns=\"http://www.w3.org/1999/xhtml\"><table class=\"hl7__ips\"><table class=\"hl7__ips\"><thead><tr><th>Recent Lab Observations</th><th>21-JAN-2024</th><th>Reference&#xA0;Range</th><th>Unit</th></tr></thead><tbody><tr><td>Hemoglobin A1c/Hemoglobin.total in Blood</td><td>6.0</td><td>4 - 6</td><td>%</td></tr><tr><td>Glucose [Mass/volume] in Blood</td><td>97.3</td><td>70 - 99</td><td>mg/dL</td></tr><tr><td>Urea nitrogen [Mass/volume] in Blood</td><td>19.2</td><td>7 - 20</td><td>mg/dL</td></tr><tr><td>Creatinine [Mass/volume] in Blood</td><td>1.3</td><td>0.9 - 1.3</td><td>mg/dL</td></tr><tr><td>Calcium [Mass/volume] in Blood</td><td>9.8</td><td>8.5 - 10.5</td><td>mg/dL</td></tr><tr><td>Sodium [Moles/volume] in Blood</td><td>141.1</td><td>135 - 145</td><td>mmol/L</td></tr><tr><td>Potassium [Moles/volume] in Blood</td><td>4.6</td><td>3.5 - 5.1</td><td>mmol/L</td></tr><tr><td>Chloride [Moles/volume] in Blood</td><td>106.5</td><td>98 - 114</td><td>mmol/L</td></tr><tr><td>Carbon dioxide, total [Moles/volume] in Blood</td><td>29.0</td><td>22 - 29</td><td>mmol/L</td></tr></tbody></table></table></div>"
            },
            "entry": [
              {
                "reference": "urn:uuid:b43687bb-56d9-4632-8a6e-4f87ea09559c"
              },
              {
                "reference": "urn:uuid:57d58c28-0097-4d6e-b660-452570e596a3"
              },
              {
                "reference": "urn:uuid:b7768137-04be-489e-8f90-a9a891b277fc"
              },
              {
                "reference": "urn:uuid:3a266607-3679-4113-b25d-1e794b803ccd"
              },
              {
                "reference": "urn:uuid:2bc27b5f-3bf4-4d5f-b9c4-33c1d85ead87"
              },
              {
                "reference": "urn:uuid:743d0839-d556-486f-bd23-8fb4df4f26b5"
              },
              {
                "reference": "urn:uuid:87865905-88bb-4de4-b7b9-13a2e43df269"
              },
              {
                "reference": "urn:uuid:f8090c6a-44cf-44ff-9c6e-9d59672f5d70"
              },
              {
                "reference": "urn:uuid:aa3df11a-be9a-469d-9d3e-737273bd1df5"
              }
            ],
            "code": {
              "coding": [
                {
                  "system": "http://loinc.org",
                  "code": "30954-2",
                  "display": "Relevant diagnostic tests/laboratory data note"
                }
              ]
            },
            "title": "Relevant diagnostic tests/laboratory data"
          },
          {
            "text": {
              "status": "generated",
              "div": "<div xmlns=\"http://www.w3.org/1999/xhtml\"><table class=\"hl7__ips\"><tr><th>Device</th><th>Date (since)</th></tr><tr><td>Blood glucose meter (physical object)</td><td><span class=\"nb\">21-Jan-2024</span></td></tr><tr><td>Walker (physical object)</td><td><span class=\"nb\">07-Jul-2017</span></td></tr></table></div>"
            },
            "entry": [
              {
                "reference": "urn:uuid:6a6f6809-8f40-4804-9d6b-5da9ffb52123"
              },
              {
                "reference": "urn:uuid:c5d824f2-4fb6-4693-9793-a620ef37df20"
              }
            ],
            "code": {
              "coding": [
                {
                  "system": "http://loinc.org",
                  "code": "46264-8",
                  "display": "History of medical device use"
                }
              ]
            },
            "title": "Device Use"
          }
        ],
        "title": "European Patient Summary",
        "status": "final",
        "subject": {
          "reference": "urn:uuid:e1536245-1787-4b36-9c73-45f3fc341766",
          "display": "Jason Forster"
        },
        "custodian": {
          "reference": "urn:uuid:1ec80b82-8ba8-4d66-9de2-41db54768b0d"
        },
        "date": "2024-01-21",
        "confidentiality": "N"
      }
    },
    {
      "fullUrl": "urn:uuid:e1536245-1787-4b36-9c73-45f3fc341766",
      "resource": {
        "resourceType": "Patient",
        "id": "e1536245-1787-4b36-9c73-45f3fc341766",
        "meta": {
          "security": [
            {
              "system": "http://terminology.hl7.org/CodeSystem/v3-ActReason",
              "code": "HTEST"
            },
            {
              "system": "http://terminology.hl7.org/CodeSystem/v3-ActReason",
              "code": "TRAIN"
            }
          ],
          "tag": [
            {
              "system": "https://synderai.net/fhir/CodeSystem/tags",
              "code": "synthetic",
              "display": "SYNDERAI Synthetic data"
            }
          ],
          "profile": [
            "http://hl7.eu/fhir/eps/StructureDefinition/patient-eu-eps"
          ]
        },
        "identifier": [
          {
            "type": {
              "coding": [
                {
                  "code": "PT",
                  "system": "http://terminology.hl7.org/CodeSystem/v2-0203"
                }
              ]
            },
            "system": "http://ec.europa.eu/identifier/eci",
            "value": "2238-744377-7"
          },
          {
            "type": {
              "coding": [
                {
                  "code": "MR",
                  "system": "http://terminology.hl7.org/CodeSystem/v2-0203"
                }
              ]
            },
            "system": "http://local.setting.eu/identifier",
            "value": "dc5e9b59-86bb-95c9-eab3-9675ec81c274"
          }
        ],
        "name": [
          {
            "family": "Forster"
          },
          {
            "given": [
              "Jason"
            ]
          },
          {
            "text": "Jason Forster"
          }
        ],
        "address": [
          {
            "line": [
              "437 Martin trail"
            ],
            "use": "home",
            "type": "physical",
            "postalCode": "M20",
            "city": "Heatherville",
            "country": "United Kingdom"
          }
        ],
        "telecom": [
          {
            "system": "phone",
            "value": "01632960273"
          }
        ],
        "extension": [
          {
            "url": "http://hl7.org/fhir/StructureDefinition/patient-nationality",
            "valueCodeableConcept": {
              "coding": [
                {
                  "code": "GB",
                  "system": "http://hl7.org/fhir/ValueSet/country"
                }
              ]
            }
          }
        ],
        "text": {
          "status": "generated",
          "div": "<div xmlns=\"http://www.w3.org/1999/xhtml\"><table class=\"hl7__ips\"><tr><td>Jason Forster</td><td>male</td><td>10-Mar-1983</td></tr></table></div>"
        },
        "gender": "male",
        "birthDate": "1983-03-10"
      }
    },
    {
      "fullUrl": "urn:uuid:eb2c2cb5-d99b-4093-982e-5bcd7c567a34",
      "resource": {
        "resourceType": "PractitionerRole",
        "id": "eb2c2cb5-d99b-4093-982e-5bcd7c567a34",
        "meta": {
          "profile": [
            "http://hl7.eu/fhir/base/StructureDefinition/practitionerRole-eu"
          ]
        },
        "text": {
          "status": "generated",
          "div": "<div xmlns=\"http://www.w3.org/1999/xhtml\"><table class=\"hl7__ips\">Provider Role Id eb2c2cb5-d99b-4093-982e-5bcd7c567a34</table></div>"
        },
        "practitioner": {
          "reference": "urn:uuid:d174f8d5-6b9a-4319-9791-0a611a558d16"
        },
        "organization": {
          "reference": "urn:uuid:1ec80b82-8ba8-4d66-9de2-41db54768b0d"
        }
      }
    },
    {
      "fullUrl": "urn:uuid:d174f8d5-6b9a-4319-9791-0a611a558d16",
      "resource": {
        "resourceType": "Practitioner",
        "id": "d174f8d5-6b9a-4319-9791-0a611a558d16",
        "meta": {
          "profile": [
            "http://hl7.eu/fhir/base/StructureDefinition/practitioner-eu"
          ]
        },
        "name": [
          {
            "prefix": [
              "Dr."
            ],
            "given": [
              "Hel"
            ],
            "family": "Ping"
          }
        ],
        "text": {
          "status": "generated",
          "div": "<div xmlns=\"http://www.w3.org/1999/xhtml\"><table class=\"hl7__ips\">Dr. Hel Ping</table></div>"
        }
      }
    },
    {
      "fullUrl": "urn:uuid:1ec80b82-8ba8-4d66-9de2-41db54768b0d",
      "resource": {
        "resourceType": "Organization",
        "id": "1ec80b82-8ba8-4d66-9de2-41db54768b0d",
        "meta": {
          "profile": [
            "http://hl7.eu/fhir/base/StructureDefinition/organization-eu"
          ]
        },
        "identifier": [
          {
            "assigner": {
              "display": "HL7 Europe"
            },
            "system": "urn:oid:2.16.840.1.113883.2.51.999",
            "value": "1d7d3d62-1788-4eee-9951-62d211141838"
          }
        ],
        "address": [
          {
            "line": [
              "City Road 204"
            ],
            "city": "Manchester",
            "postalCode": "M3 3",
            "country": "United Kingdom"
          }
        ],
        "text": {
          "status": "generated",
          "div": "<div xmlns=\"http://www.w3.org/1999/xhtml\"><table class=\"hl7__ips\">Cornbrook Medical Practice</table></div>"
        },
        "name": "Cornbrook Medical Practice"
      }
    },
    {
      "fullUrl": "urn:uuid:7fa2aa4e-208c-4cc9-9580-7278ef474d19",
      "resource": {
        "resourceType": "Condition",
        "id": "7fa2aa4e-208c-4cc9-9580-7278ef474d19",
        "meta": {
          "profile": [
            "http://hl7.org/fhir/uv/ips/StructureDefinition/Condition-uv-ips"
          ]
        },
        "category": [
          {
            "coding": [
              {
                "code": "problem-list-item",
                "system": "http://terminology.hl7.org/CodeSystem/condition-category",
                "display": "Problem List Item"
              }
            ]
          }
        ],
        "code": {
          "coding": [
            {
              "code": "15777000",
              "system": "http://snomed.info/sct",
              "display": "Prediabetes (disorder)"
            }
          ],
          "text": "Prediabetes"
        },
        "text": {
          "status": "generated",
          "div": "<div xmlns=\"http://www.w3.org/1999/xhtml\"><table class=\"hl7__ips\"><tr><td>Prediabetes</td><td><span class=\"nb\">21-Jan-2024</span></td><td>active</td></tr></table></div>"
        },
        "onsetDateTime": "2024-01-21",
        "subject": {
          "reference": "urn:uuid:",
          "display": "Jason Forster"
        },
        "asserter": {
          "reference": "urn:uuid:",
          "display": "Cornbrook Medical Practice"
        }
      }
    },
    {
      "fullUrl": "urn:uuid:a739f8a5-e790-45dd-b380-3f122a6b2fe9",
      "resource": {
        "resourceType": "Condition",
        "id": "a739f8a5-e790-45dd-b380-3f122a6b2fe9",
        "meta": {
          "profile": [
            "http://hl7.org/fhir/uv/ips/StructureDefinition/Condition-uv-ips"
          ]
        },
        "category": [
          {
            "coding": [
              {
                "code": "problem-list-item",
                "system": "http://terminology.hl7.org/CodeSystem/condition-category",
                "display": "Problem List Item"
              }
            ]
          }
        ],
        "code": {
          "coding": [
            {
              "code": "239873007",
              "system": "http://snomed.info/sct",
              "display": "Osteoarthritis of knee (disorder)"
            }
          ],
          "text": "Osteoarthritis of knee"
        },
        "text": {
          "status": "generated",
          "div": "<div xmlns=\"http://www.w3.org/1999/xhtml\"><table class=\"hl7__ips\"><tr><td>Osteoarthritis of knee</td><td><span class=\"nb\">07-Jul-2017</span></td><td>active</td></tr></table></div>"
        },
        "onsetDateTime": "2017-07-07",
        "subject": {
          "reference": "urn:uuid:",
          "display": "Jason Forster"
        },
        "asserter": {
          "reference": "urn:uuid:",
          "display": "Cornbrook Medical Practice"
        }
      }
    },
    {
      "fullUrl": "urn:uuid:fdbd3575-7521-42b9-a926-09a44a80ba4a",
      "resource": {
        "resourceType": "Condition",
        "id": "fdbd3575-7521-42b9-a926-09a44a80ba4a",
        "meta": {
          "profile": [
            "http://hl7.org/fhir/uv/ips/StructureDefinition/Condition-uv-ips"
          ]
        },
        "category": [
          {
            "coding": [
              {
                "code": "problem-list-item",
                "system": "http://terminology.hl7.org/CodeSystem/condition-category",
                "display": "Problem List Item"
              }
            ]
          }
        ],
        "code": {
          "coding": [
            {
              "code": "44465007",
              "system": "http://snomed.info/sct",
              "display": "Sprain of ankle (disorder)"
            }
          ],
          "text": "Sprain of ankle"
        },
        "text": {
          "status": "generated",
          "div": "<div xmlns=\"http://www.w3.org/1999/xhtml\"><table class=\"hl7__ips\"><tr><td><span class=\"grayedout\">Sprain of ankle</span></td><td><span class=\"nb\">09-Jun-2024 - 09-Jul-2024</span></td><td><span class=\"grayedout\">inactive</span></td></tr></table></div>"
        },
        "onsetDateTime": "2024-06-09",
        "abatementDateTime": "2024-07-09",
        "subject": {
          "reference": "urn:uuid:",
          "display": "Jason Forster"
        },
        "asserter": {
          "reference": "urn:uuid:",
          "display": "Cornbrook Medical Practice"
        }
      }
    },
    {
      "fullUrl": "urn:uuid:c2d27103-a4a5-415e-a13c-d37e93cb7177",
      "resource": {
        "resourceType": "Condition",
        "id": "c2d27103-a4a5-415e-a13c-d37e93cb7177",
        "meta": {
          "profile": [
            "http://hl7.org/fhir/uv/ips/StructureDefinition/Condition-uv-ips"
          ]
        },
        "category": [
          {
            "coding": [
              {
                "code": "problem-list-item",
                "system": "http://terminology.hl7.org/CodeSystem/condition-category",
                "display": "Problem List Item"
              }
            ]
          }
        ],
        "code": {
          "coding": [
            {
              "code": "444814009",
              "system": "http://snomed.info/sct",
              "display": "Viral sinusitis (disorder)"
            }
          ],
          "text": "Viral sinusitis"
        },
        "text": {
          "status": "generated",
          "div": "<div xmlns=\"http://www.w3.org/1999/xhtml\"><table class=\"hl7__ips\"><tr><td><span class=\"grayedout\">Viral sinusitis</span></td><td><span class=\"nb\">09-Jan-2024 - 21-Jan-2024</span></td><td><span class=\"grayedout\">inactive</span></td></tr></table></div>"
        },
        "onsetDateTime": "2024-01-09",
        "abatementDateTime": "2024-01-21",
        "subject": {
          "reference": "urn:uuid:",
          "display": "Jason Forster"
        },
        "asserter": {
          "reference": "urn:uuid:",
          "display": "Cornbrook Medical Practice"
        }
      }
    },
    {
      "fullUrl": "urn:uuid:56af30fe-6a26-44dc-9a80-56f9deadec2b",
      "resource": {
        "resourceType": "Condition",
        "id": "56af30fe-6a26-44dc-9a80-56f9deadec2b",
        "meta": {
          "profile": [
            "http://hl7.org/fhir/uv/ips/StructureDefinition/Condition-uv-ips"
          ]
        },
        "category": [
          {
            "coding": [
              {
                "code": "problem-list-item",
                "system": "http://terminology.hl7.org/CodeSystem/condition-category",
                "display": "Problem List Item"
              }
            ]
          }
        ],
        "code": {
          "coding": [
            {
              "code": "444814009",
              "system": "http://snomed.info/sct",
              "display": "Viral sinusitis (disorder)"
            }
          ],
          "text": "Viral sinusitis"
        },
        "text": {
          "status": "generated",
          "div": "<div xmlns=\"http://www.w3.org/1999/xhtml\"><table class=\"hl7__ips\"><tr><td><span class=\"grayedout\">Viral sinusitis</span></td><td><span class=\"nb\">26-Jul-2023 - 04-Aug-2023</span></td><td><span class=\"grayedout\">inactive</span></td></tr></table></div>"
        },
        "onsetDateTime": "2023-07-26",
        "abatementDateTime": "2023-08-04",
        "subject": {
          "reference": "urn:uuid:",
          "display": "Jason Forster"
        },
        "asserter": {
          "reference": "urn:uuid:",
          "display": "Cornbrook Medical Practice"
        }
      }
    },
    {
      "fullUrl": "urn:uuid:53f93736-320f-43fc-8c45-6bc096913d21",
      "resource": {
        "resourceType": "Condition",
        "id": "53f93736-320f-43fc-8c45-6bc096913d21",
        "meta": {
          "profile": [
            "http://hl7.org/fhir/uv/ips/StructureDefinition/Condition-uv-ips"
          ]
        },
        "category": [
          {
            "coding": [
              {
                "code": "problem-list-item",
                "system": "http://terminology.hl7.org/CodeSystem/condition-category",
                "display": "Problem List Item"
              }
            ]
          }
        ],
        "code": {
          "coding": [
            {
              "code": "444814009",
              "system": "http://snomed.info/sct",
              "display": "Viral sinusitis (disorder)"
            }
          ],
          "text": "Viral sinusitis"
        },
        "text": {
          "status": "generated",
          "div": "<div xmlns=\"http://www.w3.org/1999/xhtml\"><table class=\"hl7__ips\"><tr><td><span class=\"grayedout\">Viral sinusitis</span></td><td><span class=\"nb\">03-Sep-2017 - 19-Sep-2017</span></td><td><span class=\"grayedout\">inactive</span></td></tr></table></div>"
        },
        "onsetDateTime": "2017-09-03",
        "abatementDateTime": "2017-09-19",
        "subject": {
          "reference": "urn:uuid:",
          "display": "Jason Forster"
        },
        "asserter": {
          "reference": "urn:uuid:",
          "display": "Cornbrook Medical Practice"
        }
      }
    },
    {
      "fullUrl": "urn:uuid:73420b94-3999-415e-a19d-13e54d0407cc",
      "resource": {
        "resourceType": "MedicationStatement",
        "id": "73420b94-3999-415e-a19d-13e54d0407cc",
        "meta": {
          "profile": [
            "http://hl7.eu/fhir/eps/StructureDefinition/MedicationStatement-eu-eps"
          ]
        },
        "effectivePeriod": {
          "extension": [
            {
              "url": "http://hl7.org/fhir/StructureDefinition/data-absent-reason",
              "valueCode": "unknown"
            }
          ]
        },
        "status": "active",
        "medicationCodeableConcept": {
          "coding": [
            {
              "code": "787481004",
              "system": "http://snomed.info/sct",
              "display": "No known medications (situation)"
            }
          ]
        },
        "subject": {
          "reference": "urn:uuid:e1536245-1787-4b36-9c73-45f3fc341766",
          "display": "Jason Forster"
        }
      }
    },
    {
      "fullUrl": "urn:uuid:73420b94-3999-415e-a19d-13e54d0407cc",
      "resource": {
        "resourceType": "MedicationStatement",
        "id": "73420b94-3999-415e-a19d-13e54d0407cc",
        "meta": {
          "profile": [
            "http://hl7.eu/fhir/eps/StructureDefinition/MedicationStatement-eu-eps"
          ]
        },
        "effectivePeriod": {
          "extension": [
            {
              "url": "http://hl7.org/fhir/StructureDefinition/data-absent-reason",
              "valueCode": "unknown"
            }
          ]
        },
        "status": "active",
        "medicationCodeableConcept": {
          "coding": [
            {
              "code": "787481004",
              "system": "http://snomed.info/sct",
              "display": "No known medications (situation)"
            }
          ]
        },
        "subject": {
          "reference": "urn:uuid:e1536245-1787-4b36-9c73-45f3fc341766",
          "display": "Jason Forster"
        }
      }
    },
    {
      "fullUrl": "urn:uuid:f9339e6f-6f36-49ec-8d8c-61765f9f369b",
      "resource": {
        "resourceType": "Immunization",
        "id": "f9339e6f-6f36-49ec-8d8c-61765f9f369b",
        "meta": {
          "profile": [
            "http://hl7.org/fhir/uv/ips/StructureDefinition/Immunization-uv-ips"
          ]
        },
        "vaccineCode": {
          "coding": [
            {
              "code": "1181000221105",
              "system": "http://snomed.info/sct",
              "display": "Vaccine product containing Influenza virus antigen"
            },
            {
              "code": "J07BB02",
              "system": "http://www.whocc.no/atc",
              "display": "Influenza, inactivated, split virus"
            }
          ],
          "text": "Influenza virus antigen only vaccine product"
        },
        "site": {
          "coding": [
            {
              "code": "244979005",
              "system": "http://snomed.info/sct",
              "display": "Entire muscle of upper arm"
            }
          ],
          "text": "Entire muscle of upper arm"
        },
        "route": {
          "coding": [
            {
              "code": "78421000",
              "system": "http://snomed.info/sct",
              "display": "Intramuscular route"
            }
          ],
          "text": "Intramuscular route"
        },
        "text": {
          "status": "generated",
          "div": "<div xmlns=\"http://www.w3.org/1999/xhtml\"><table class=\"hl7__ips\"><tr><td>Influenza virus antigen only vaccine product</td><td><span class=\"nb\">21-Jan-2024</span></td></tr></table></div>"
        },
        "status": "completed",
        "patient": {
          "reference": "urn:uuid:e1536245-1787-4b36-9c73-45f3fc341766",
          "display": "Jason Forster"
        },
        "occurrenceDateTime": "2024-01-21",
        "lotNumber": "ZV-IfImyJC",
        "expirationDate": "2024-05-05"
      }
    },
    {
      "fullUrl": "urn:uuid:943e9dbc-0d4f-41df-b05a-8ddf37cd53b1",
      "resource": {
        "resourceType": "Immunization",
        "id": "943e9dbc-0d4f-41df-b05a-8ddf37cd53b1",
        "meta": {
          "profile": [
            "http://hl7.org/fhir/uv/ips/StructureDefinition/Immunization-uv-ips"
          ]
        },
        "vaccineCode": {
          "coding": [
            {
              "code": "871751006",
              "system": "http://snomed.info/sct",
              "display": "Vaccine product containing Hepatitis A virus antigen"
            },
            {
              "code": "J07BC02",
              "system": "http://www.whocc.no/atc",
              "display": "Hepatitis A vaccines"
            }
          ],
          "text": "Hepatitis A virus antigen only vaccine product"
        },
        "site": {
          "coding": [
            {
              "code": "244979005",
              "system": "http://snomed.info/sct",
              "display": "Entire muscle of upper arm"
            }
          ],
          "text": "Entire muscle of upper arm"
        },
        "route": {
          "coding": [
            {
              "code": "78421000",
              "system": "http://snomed.info/sct",
              "display": "Intramuscular route"
            }
          ],
          "text": "Intramuscular route"
        },
        "text": {
          "status": "generated",
          "div": "<div xmlns=\"http://www.w3.org/1999/xhtml\"><table class=\"hl7__ips\"><tr><td>Hepatitis A virus antigen only vaccine product</td><td><span class=\"nb\">16-Jan-2022</span></td></tr></table></div>"
        },
        "status": "completed",
        "patient": {
          "reference": "urn:uuid:e1536245-1787-4b36-9c73-45f3fc341766",
          "display": "Jason Forster"
        },
        "occurrenceDateTime": "2022-01-16",
        "lotNumber": "PO-MUDCxUR",
        "expirationDate": "2022-10-17"
      }
    },
    {
      "fullUrl": "urn:uuid:6f44f392-917b-4438-bdb7-b81083f5230f",
      "resource": {
        "resourceType": "Immunization",
        "id": "6f44f392-917b-4438-bdb7-b81083f5230f",
        "meta": {
          "profile": [
            "http://hl7.org/fhir/uv/ips/StructureDefinition/Immunization-uv-ips"
          ]
        },
        "vaccineCode": {
          "coding": [
            {
              "code": "777725002",
              "system": "http://snomed.info/sct",
              "display": "Vaccine product containing only Clostridium tetani toxoid antigen adsorbed"
            },
            {
              "code": "J07AM51",
              "system": "http://www.whocc.no/atc",
              "display": "Diphtheria-tetanus vaccines, adult type"
            }
          ],
          "text": "Clostridium tetani toxoid antigen adsorbed only vaccine product"
        },
        "site": {
          "coding": [
            {
              "code": "244979005",
              "system": "http://snomed.info/sct",
              "display": "Entire muscle of upper arm"
            }
          ],
          "text": "Entire muscle of upper arm"
        },
        "route": {
          "coding": [
            {
              "code": "78421000",
              "system": "http://snomed.info/sct",
              "display": "Intramuscular route"
            }
          ],
          "text": "Intramuscular route"
        },
        "text": {
          "status": "generated",
          "div": "<div xmlns=\"http://www.w3.org/1999/xhtml\"><table class=\"hl7__ips\"><tr><td>Clostridium tetani toxoid antigen adsorbed only vaccine product</td><td><span class=\"nb\">16-Jan-2022</span></td></tr></table></div>"
        },
        "status": "completed",
        "patient": {
          "reference": "urn:uuid:e1536245-1787-4b36-9c73-45f3fc341766",
          "display": "Jason Forster"
        },
        "occurrenceDateTime": "2022-01-16",
        "lotNumber": "WF-hx105g",
        "expirationDate": "2022-12-05"
      }
    },
    {
      "fullUrl": "urn:uuid:ed538de2-ea60-4cbe-a3d9-4f1233063b39",
      "resource": {
        "resourceType": "Immunization",
        "id": "ed538de2-ea60-4cbe-a3d9-4f1233063b39",
        "meta": {
          "profile": [
            "http://hl7.org/fhir/uv/ips/StructureDefinition/Immunization-uv-ips"
          ]
        },
        "vaccineCode": {
          "coding": [
            {
              "code": "1119349007",
              "system": "http://snomed.info/sct",
              "display": "Vaccine product containing SARS-CoV-2 mRNA"
            },
            {
              "code": "J07BX03",
              "system": "http://www.whocc.no/atc",
              "display": "COVID-19 mRNA vaccines"
            }
          ],
          "text": "SARS-CoV-2 mRNA vaccine"
        },
        "site": {
          "coding": [
            {
              "code": "244979005",
              "system": "http://snomed.info/sct",
              "display": "Entire muscle of upper arm"
            }
          ],
          "text": "Entire muscle of upper arm"
        },
        "route": {
          "coding": [
            {
              "code": "78421000",
              "system": "http://snomed.info/sct",
              "display": "Intramuscular route"
            }
          ],
          "text": "Intramuscular route"
        },
        "text": {
          "status": "generated",
          "div": "<div xmlns=\"http://www.w3.org/1999/xhtml\"><table class=\"hl7__ips\"><tr><td>SARS-CoV-2 mRNA vaccine</td><td><span class=\"nb\">02-May-2021</span></td></tr></table></div>"
        },
        "status": "completed",
        "patient": {
          "reference": "urn:uuid:e1536245-1787-4b36-9c73-45f3fc341766",
          "display": "Jason Forster"
        },
        "occurrenceDateTime": "2021-05-02",
        "lotNumber": "PN-VEn0ku",
        "expirationDate": "2021-07-27"
      }
    },
    {
      "fullUrl": "urn:uuid:bc95678a-71fc-4f08-b2b7-6fafbc4532f0",
      "resource": {
        "resourceType": "AllergyIntolerance",
        "id": "bc95678a-71fc-4f08-b2b7-6fafbc4532f0",
        "meta": {
          "profile": [
            "http://hl7.eu/fhir/eps/StructureDefinition/allergyIntolerance-eu-eps"
          ]
        },
        "code": {
          "coding": [
            {
              "code": "1119349007",
              "system": "http://snomed.info/sct",
              "display": "Vaccine product containing SARS-CoV-2 mRNA"
            }
          ],
          "text": "Vaccine product containing SARS-CoV-2 mRNA"
        },
        "clinicalStatus": {
          "coding": [
            {
              "code": "active",
              "system": "http://terminology.hl7.org/CodeSystem/allergyintolerance-clinical"
            }
          ]
        },
        "text": {
          "status": "generated",
          "div": "<div xmlns=\"http://www.w3.org/1999/xhtml\"><table class=\"hl7__ips\"><tr><th>Allergy/Intolerance</th><th>Onset Date</th><th>Status</th><th>Type</th><th>Reaction</th></tr><tr><td>Vaccine product containing SARS-CoV-2 mRNA</td><td>?</td><td>active</td><td>?</td><td></td></tr></table></div>"
        },
        "verificationStatus": {
          "coding": [
            {
              "code": "confirmed",
              "system": "http://terminology.hl7.org/CodeSystem/allergyintolerance-verification"
            }
          ]
        },
        "patient": {
          "reference": "urn:uuid:e1536245-1787-4b36-9c73-45f3fc341766",
          "display": "Jason Forster"
        },
        "_onsetDateTime": {
          "extension": [
            {
              "url": "http://hl7.org/fhir/StructureDefinition/data-absent-reason",
              "valueCode": "unknown"
            }
          ]
        }
      }
    },
    {
      "fullUrl": "urn:uuid:04e0fd31-4d1d-4192-87b5-ef26165afe3c",
      "resource": {
        "resourceType": "CarePlan",
        "id": "04e0fd31-4d1d-4192-87b5-ef26165afe3c",
        "category": [
          {
            "coding": [
              {
                "code": "assess-plan",
                "system": "http://terminology.hl7.org/CodeSystem/care-plan-category",
                "display": "Assessment and Plan"
              }
            ]
          }
        ],
        "activity": [
          {
            "detail": {
              "code": {
                "coding": [
                  {
                    "code": "698360004",
                    "system": "http://snomed.info/sct",
                    "display": "Diabetes self management plan (qualifier value)"
                  }
                ]
              },
              "reasonCode": [
                {
                  "coding": [
                    {
                      "code": "15777000",
                      "system": "http://snomed.info/sct",
                      "display": "Prediabetes"
                    }
                  ]
                }
              ],
              "status": "unknown",
              "description": "Diabetes self management plan",
              "kind": "Appointment"
            }
          }
        ],
        "period": {
          "start": "2024-01-21"
        },
        "goal": [
          {
            "reference": "urn:uuid:33d73192-246b-4f32-8a39-950d9fb221d0"
          }
        ],
        "text": {
          "status": "generated",
          "div": "<div xmlns=\"http://www.w3.org/1999/xhtml\"><table class=\"hl7__ips first25\"><tr><th>Active Planned Care / Goals</th><th>Start Date</th><th>Reason</th></tr><tr><td>Diabetes self management plan</td><td><span class=\"nb\">21-Jan-2024</span></td><td>Prediabetes</td></tr><tr><td><ul><li>Patient will implement lifestyle modifications to maintain fasting plasma glucose within target range.</li></ul></td><td></td><td></td></tr></table></div>"
        },
        "status": "active",
        "intent": "plan",
        "subject": {
          "reference": "urn:uuid:e1536245-1787-4b36-9c73-45f3fc341766",
          "display": "Jason Forster"
        }
      }
    },
    {
      "fullUrl": "urn:uuid:7553bdb4-206e-426e-a428-0f77861e9da5",
      "resource": {
        "resourceType": "CarePlan",
        "id": "7553bdb4-206e-426e-a428-0f77861e9da5",
        "category": [
          {
            "coding": [
              {
                "code": "assess-plan",
                "system": "http://terminology.hl7.org/CodeSystem/care-plan-category",
                "display": "Assessment and Plan"
              }
            ]
          }
        ],
        "activity": [
          {
            "detail": {
              "code": {
                "coding": [
                  {
                    "code": "408869004",
                    "system": "http://snomed.info/sct",
                    "display": "Musculoskeletal care (regime/therapy)"
                  }
                ]
              },
              "reasonCode": [
                {
                  "coding": [
                    {
                      "code": "239873007",
                      "system": "http://snomed.info/sct",
                      "display": "Osteoarthritis of knee"
                    }
                  ]
                }
              ],
              "status": "unknown",
              "description": "Musculoskeletal care",
              "kind": "Appointment"
            }
          }
        ],
        "period": {
          "start": "2017-07-07"
        },
        "goal": [
          {
            "reference": "urn:uuid:f50633bb-39da-4892-98a8-ed13354a30c0"
          },
          {
            "reference": "urn:uuid:3abd36d5-628b-4ae7-9e20-7ea4948129c8"
          },
          {
            "reference": "urn:uuid:d3655613-3605-4af9-b0a6-6f6a13af0382"
          }
        ],
        "text": {
          "status": "generated",
          "div": "<div xmlns=\"http://www.w3.org/1999/xhtml\"><table class=\"hl7__ips first25\"><tr><th>Active Planned Care / Goals</th><th>Start Date</th><th>Reason</th></tr><tr><td>Musculoskeletal care</td><td><span class=\"nb\">07-Jul-2017</span></td><td>Osteoarthritis of knee</td></tr><tr><td><ul><li>Reduce knee pain severity to a tolerable level to improve function and quality of life</li><li>Increase ability to perform daily activities such as walking and climbing stairs</li><li>Complete prescribed knee strengthening and flexibility exercises as recommended</li></ul></td><td></td><td></td></tr></table></div>"
        },
        "status": "active",
        "intent": "plan",
        "subject": {
          "reference": "urn:uuid:e1536245-1787-4b36-9c73-45f3fc341766",
          "display": "Jason Forster"
        }
      }
    },
    {
      "fullUrl": "urn:uuid:d75b0f28-265e-4a1c-9cc3-e430c45c6eb1",
      "resource": {
        "resourceType": "Observation",
        "id": "d75b0f28-265e-4a1c-9cc3-e430c45c6eb1",
        "meta": {
          "profile": [
            "http://hl7.org/fhir/StructureDefinition/vitalsigns"
          ]
        },
        "category": [
          {
            "coding": [
              {
                "system": "http://terminology.hl7.org/CodeSystem/observation-category",
                "code": "vital-signs",
                "display": "Vital Signs"
              }
            ]
          }
        ],
        "valueQuantity": {
          "value": 176.3,
          "code": "cm",
          "unit": "cm"
        },
        "text": {
          "status": "generated",
          "div": "<div xmlns=\"http://www.w3.org/1999/xhtml\"><table class=\"hl7__ips\"><tr><th>Vital Sign</th><th>Date</th><th>Measurement</th></tr><tr><td>Body Height</td><td>21-Jan-2024</td><td>176.3 cm</td></tr></table></div>"
        },
        "status": "final",
        "code": {
          "coding": [
            {
              "code": "$8302-2",
              "system": "http://loinc.org",
              "display": "Body Height"
            }
          ]
        },
        "subject": {
          "reference": "urn:uuid:e1536245-1787-4b36-9c73-45f3fc341766",
          "display": "Jason Forster"
        },
        "effectiveDateTime": "2024-01-21"
      }
    },
    {
      "fullUrl": "urn:uuid:f76ae342-7096-4aee-9d7a-a0cf100e45fc",
      "resource": {
        "resourceType": "Observation",
        "id": "f76ae342-7096-4aee-9d7a-a0cf100e45fc",
        "meta": {
          "profile": [
            "http://hl7.org/fhir/StructureDefinition/vitalsigns"
          ]
        },
        "category": [
          {
            "coding": [
              {
                "system": "http://terminology.hl7.org/CodeSystem/observation-category",
                "code": "vital-signs",
                "display": "Vital Signs"
              }
            ]
          }
        ],
        "valueQuantity": {
          "value": 4,
          "code": "{score}",
          "unit": "{score}"
        },
        "text": {
          "status": "generated",
          "div": "<div xmlns=\"http://www.w3.org/1999/xhtml\"><table class=\"hl7__ips\"><tr><th>Vital Sign</th><th>Date</th><th>Measurement</th></tr><tr><td>Pain severity - 0-10 verbal numeric rating [Score] - Reported</td><td>21-Jan-2024</td><td>4 {score}</td></tr></table></div>"
        },
        "status": "final",
        "code": {
          "coding": [
            {
              "code": "$72514-3",
              "system": "http://loinc.org",
              "display": "Pain severity - 0-10 verbal numeric rating [Score] - Reported"
            }
          ]
        },
        "subject": {
          "reference": "urn:uuid:e1536245-1787-4b36-9c73-45f3fc341766",
          "display": "Jason Forster"
        },
        "effectiveDateTime": "2024-01-21"
      }
    },
    {
      "fullUrl": "urn:uuid:db60d449-2516-48ab-95dd-028287b47279",
      "resource": {
        "resourceType": "Observation",
        "id": "db60d449-2516-48ab-95dd-028287b47279",
        "meta": {
          "profile": [
            "http://hl7.org/fhir/StructureDefinition/vitalsigns"
          ]
        },
        "category": [
          {
            "coding": [
              {
                "system": "http://terminology.hl7.org/CodeSystem/observation-category",
                "code": "vital-signs",
                "display": "Vital Signs"
              }
            ]
          }
        ],
        "valueQuantity": {
          "value": 85.8,
          "code": "kg",
          "unit": "kg"
        },
        "text": {
          "status": "generated",
          "div": "<div xmlns=\"http://www.w3.org/1999/xhtml\"><table class=\"hl7__ips\"><tr><th>Vital Sign</th><th>Date</th><th>Measurement</th></tr><tr><td>Body Weight</td><td>21-Jan-2024</td><td>85.8 kg</td></tr></table></div>"
        },
        "status": "final",
        "code": {
          "coding": [
            {
              "code": "$29463-7",
              "system": "http://loinc.org",
              "display": "Body Weight"
            }
          ]
        },
        "subject": {
          "reference": "urn:uuid:e1536245-1787-4b36-9c73-45f3fc341766",
          "display": "Jason Forster"
        },
        "effectiveDateTime": "2024-01-21"
      }
    },
    {
      "fullUrl": "urn:uuid:bd6a2dbc-2141-4020-b37b-a99ca486bbfe",
      "resource": {
        "resourceType": "Observation",
        "id": "bd6a2dbc-2141-4020-b37b-a99ca486bbfe",
        "meta": {
          "profile": [
            "http://hl7.org/fhir/StructureDefinition/vitalsigns"
          ]
        },
        "category": [
          {
            "coding": [
              {
                "system": "http://terminology.hl7.org/CodeSystem/observation-category",
                "code": "vital-signs",
                "display": "Vital Signs"
              }
            ]
          }
        ],
        "valueQuantity": {
          "value": 27.6,
          "code": "kg/m2",
          "unit": "kg/m2"
        },
        "text": {
          "status": "generated",
          "div": "<div xmlns=\"http://www.w3.org/1999/xhtml\"><table class=\"hl7__ips\"><tr><th>Vital Sign</th><th>Date</th><th>Measurement</th></tr><tr><td>Body mass index (BMI) [Ratio]</td><td>21-Jan-2024</td><td>27.6 kg/m2</td></tr></table></div>"
        },
        "status": "final",
        "code": {
          "coding": [
            {
              "code": "$39156-5",
              "system": "http://loinc.org",
              "display": "Body mass index (BMI) [Ratio]"
            }
          ]
        },
        "subject": {
          "reference": "urn:uuid:e1536245-1787-4b36-9c73-45f3fc341766",
          "display": "Jason Forster"
        },
        "effectiveDateTime": "2024-01-21"
      }
    },
    {
      "fullUrl": "urn:uuid:e822258a-a321-4dbd-82fd-87675791dd91",
      "resource": {
        "resourceType": "Observation",
        "id": "e822258a-a321-4dbd-82fd-87675791dd91",
        "meta": {
          "profile": [
            "http://hl7.org/fhir/StructureDefinition/vitalsigns"
          ]
        },
        "category": [
          {
            "coding": [
              {
                "system": "http://terminology.hl7.org/CodeSystem/observation-category",
                "code": "vital-signs",
                "display": "Vital Signs"
              }
            ]
          }
        ],
        "valueQuantity": {
          "value": 90,
          "code": "mm[Hg]",
          "unit": "mm[Hg]"
        },
        "text": {
          "status": "generated",
          "div": "<div xmlns=\"http://www.w3.org/1999/xhtml\"><table class=\"hl7__ips\"><tr><th>Vital Sign</th><th>Date</th><th>Measurement</th></tr><tr><td>Diastolic Blood Pressure</td><td>21-Jan-2024</td><td>90 mm[Hg]</td></tr></table></div>"
        },
        "status": "final",
        "code": {
          "coding": [
            {
              "code": "$8462-4",
              "system": "http://loinc.org",
              "display": "Diastolic Blood Pressure"
            }
          ]
        },
        "subject": {
          "reference": "urn:uuid:e1536245-1787-4b36-9c73-45f3fc341766",
          "display": "Jason Forster"
        },
        "effectiveDateTime": "2024-01-21"
      }
    },
    {
      "fullUrl": "urn:uuid:39010a83-0fc6-4689-a131-7f920c2b2a81",
      "resource": {
        "resourceType": "Observation",
        "id": "39010a83-0fc6-4689-a131-7f920c2b2a81",
        "meta": {
          "profile": [
            "http://hl7.org/fhir/StructureDefinition/vitalsigns"
          ]
        },
        "category": [
          {
            "coding": [
              {
                "system": "http://terminology.hl7.org/CodeSystem/observation-category",
                "code": "vital-signs",
                "display": "Vital Signs"
              }
            ]
          }
        ],
        "valueQuantity": {
          "value": 125,
          "code": "mm[Hg]",
          "unit": "mm[Hg]"
        },
        "text": {
          "status": "generated",
          "div": "<div xmlns=\"http://www.w3.org/1999/xhtml\"><table class=\"hl7__ips\"><tr><th>Vital Sign</th><th>Date</th><th>Measurement</th></tr><tr><td>Systolic Blood Pressure</td><td>21-Jan-2024</td><td>125 mm[Hg]</td></tr></table></div>"
        },
        "status": "final",
        "code": {
          "coding": [
            {
              "code": "$8480-6",
              "system": "http://loinc.org",
              "display": "Systolic Blood Pressure"
            }
          ]
        },
        "subject": {
          "reference": "urn:uuid:e1536245-1787-4b36-9c73-45f3fc341766",
          "display": "Jason Forster"
        },
        "effectiveDateTime": "2024-01-21"
      }
    },
    {
      "fullUrl": "urn:uuid:dc2d003b-0700-4691-bd9d-0929f06c3140",
      "resource": {
        "resourceType": "Observation",
        "id": "dc2d003b-0700-4691-bd9d-0929f06c3140",
        "meta": {
          "profile": [
            "http://hl7.org/fhir/StructureDefinition/vitalsigns"
          ]
        },
        "category": [
          {
            "coding": [
              {
                "system": "http://terminology.hl7.org/CodeSystem/observation-category",
                "code": "vital-signs",
                "display": "Vital Signs"
              }
            ]
          }
        ],
        "valueQuantity": {
          "value": 96,
          "code": "/min",
          "unit": "/min"
        },
        "text": {
          "status": "generated",
          "div": "<div xmlns=\"http://www.w3.org/1999/xhtml\"><table class=\"hl7__ips\"><tr><th>Vital Sign</th><th>Date</th><th>Measurement</th></tr><tr><td>Heart rate</td><td>21-Jan-2024</td><td>96 /min</td></tr></table></div>"
        },
        "status": "final",
        "code": {
          "coding": [
            {
              "code": "$8867-4",
              "system": "http://loinc.org",
              "display": "Heart rate"
            }
          ]
        },
        "subject": {
          "reference": "urn:uuid:e1536245-1787-4b36-9c73-45f3fc341766",
          "display": "Jason Forster"
        },
        "effectiveDateTime": "2024-01-21"
      }
    },
    {
      "fullUrl": "urn:uuid:b8c55acb-910c-4c7d-ac35-95840850b81e",
      "resource": {
        "resourceType": "Observation",
        "id": "b8c55acb-910c-4c7d-ac35-95840850b81e",
        "meta": {
          "profile": [
            "http://hl7.org/fhir/StructureDefinition/vitalsigns"
          ]
        },
        "category": [
          {
            "coding": [
              {
                "system": "http://terminology.hl7.org/CodeSystem/observation-category",
                "code": "vital-signs",
                "display": "Vital Signs"
              }
            ]
          }
        ],
        "valueQuantity": {
          "value": 13,
          "code": "/min",
          "unit": "/min"
        },
        "text": {
          "status": "generated",
          "div": "<div xmlns=\"http://www.w3.org/1999/xhtml\"><table class=\"hl7__ips\"><tr><th>Vital Sign</th><th>Date</th><th>Measurement</th></tr><tr><td>Respiratory rate</td><td>21-Jan-2024</td><td>13 /min</td></tr></table></div>"
        },
        "status": "final",
        "code": {
          "coding": [
            {
              "code": "$9279-1",
              "system": "http://loinc.org",
              "display": "Respiratory rate"
            }
          ]
        },
        "subject": {
          "reference": "urn:uuid:e1536245-1787-4b36-9c73-45f3fc341766",
          "display": "Jason Forster"
        },
        "effectiveDateTime": "2024-01-21"
      }
    },
    {
      "fullUrl": "urn:uuid:805ee60e-4bde-4675-a5e5-28bb51f5c887",
      "resource": {
        "resourceType": "Observation",
        "id": "805ee60e-4bde-4675-a5e5-28bb51f5c887",
        "meta": {
          "profile": [
            "http://hl7.org/fhir/StructureDefinition/vitalsigns"
          ]
        },
        "category": [
          {
            "coding": [
              {
                "system": "http://terminology.hl7.org/CodeSystem/observation-category",
                "code": "vital-signs",
                "display": "Vital Signs"
              }
            ]
          }
        ],
        "valueQuantity": {
          "value": 176.3,
          "code": "cm",
          "unit": "cm"
        },
        "text": {
          "status": "generated",
          "div": "<div xmlns=\"http://www.w3.org/1999/xhtml\"><table class=\"hl7__ips\"><tr><th>Vital Sign</th><th>Date</th><th>Measurement</th></tr><tr><td>Body Height</td><td>16-Jan-2022</td><td>176.3 cm</td></tr></table></div>"
        },
        "status": "final",
        "code": {
          "coding": [
            {
              "code": "$8302-2",
              "system": "http://loinc.org",
              "display": "Body Height"
            }
          ]
        },
        "subject": {
          "reference": "urn:uuid:e1536245-1787-4b36-9c73-45f3fc341766",
          "display": "Jason Forster"
        },
        "effectiveDateTime": "2022-01-16"
      }
    },
    {
      "fullUrl": "urn:uuid:90a63178-52cb-4eb4-9095-49ca2654a982",
      "resource": {
        "resourceType": "Observation",
        "id": "90a63178-52cb-4eb4-9095-49ca2654a982",
        "meta": {
          "profile": [
            "http://hl7.org/fhir/StructureDefinition/vitalsigns"
          ]
        },
        "category": [
          {
            "coding": [
              {
                "system": "http://terminology.hl7.org/CodeSystem/observation-category",
                "code": "vital-signs",
                "display": "Vital Signs"
              }
            ]
          }
        ],
        "valueQuantity": {
          "value": 3,
          "code": "{score}",
          "unit": "{score}"
        },
        "text": {
          "status": "generated",
          "div": "<div xmlns=\"http://www.w3.org/1999/xhtml\"><table class=\"hl7__ips\"><tr><th>Vital Sign</th><th>Date</th><th>Measurement</th></tr><tr><td>Pain severity - 0-10 verbal numeric rating [Score] - Reported</td><td>16-Jan-2022</td><td>3 {score}</td></tr></table></div>"
        },
        "status": "final",
        "code": {
          "coding": [
            {
              "code": "$72514-3",
              "system": "http://loinc.org",
              "display": "Pain severity - 0-10 verbal numeric rating [Score] - Reported"
            }
          ]
        },
        "subject": {
          "reference": "urn:uuid:e1536245-1787-4b36-9c73-45f3fc341766",
          "display": "Jason Forster"
        },
        "effectiveDateTime": "2022-01-16"
      }
    },
    {
      "fullUrl": "urn:uuid:f40def04-10f7-4f6e-8506-3d8a4e834ce5",
      "resource": {
        "resourceType": "Observation",
        "id": "f40def04-10f7-4f6e-8506-3d8a4e834ce5",
        "meta": {
          "profile": [
            "http://hl7.org/fhir/StructureDefinition/vitalsigns"
          ]
        },
        "category": [
          {
            "coding": [
              {
                "system": "http://terminology.hl7.org/CodeSystem/observation-category",
                "code": "vital-signs",
                "display": "Vital Signs"
              }
            ]
          }
        ],
        "valueQuantity": {
          "value": 93.2,
          "code": "kg",
          "unit": "kg"
        },
        "text": {
          "status": "generated",
          "div": "<div xmlns=\"http://www.w3.org/1999/xhtml\"><table class=\"hl7__ips\"><tr><th>Vital Sign</th><th>Date</th><th>Measurement</th></tr><tr><td>Body Weight</td><td>16-Jan-2022</td><td>93.2 kg</td></tr></table></div>"
        },
        "status": "final",
        "code": {
          "coding": [
            {
              "code": "$29463-7",
              "system": "http://loinc.org",
              "display": "Body Weight"
            }
          ]
        },
        "subject": {
          "reference": "urn:uuid:e1536245-1787-4b36-9c73-45f3fc341766",
          "display": "Jason Forster"
        },
        "effectiveDateTime": "2022-01-16"
      }
    },
    {
      "fullUrl": "urn:uuid:d79bc271-af1b-477c-bd18-6ce88ba80390",
      "resource": {
        "resourceType": "Observation",
        "id": "d79bc271-af1b-477c-bd18-6ce88ba80390",
        "meta": {
          "profile": [
            "http://hl7.org/fhir/StructureDefinition/vitalsigns"
          ]
        },
        "category": [
          {
            "coding": [
              {
                "system": "http://terminology.hl7.org/CodeSystem/observation-category",
                "code": "vital-signs",
                "display": "Vital Signs"
              }
            ]
          }
        ],
        "valueQuantity": {
          "value": 30,
          "code": "kg/m2",
          "unit": "kg/m2"
        },
        "text": {
          "status": "generated",
          "div": "<div xmlns=\"http://www.w3.org/1999/xhtml\"><table class=\"hl7__ips\"><tr><th>Vital Sign</th><th>Date</th><th>Measurement</th></tr><tr><td>Body mass index (BMI) [Ratio]</td><td>16-Jan-2022</td><td>30 kg/m2</td></tr></table></div>"
        },
        "status": "final",
        "code": {
          "coding": [
            {
              "code": "$39156-5",
              "system": "http://loinc.org",
              "display": "Body mass index (BMI) [Ratio]"
            }
          ]
        },
        "subject": {
          "reference": "urn:uuid:e1536245-1787-4b36-9c73-45f3fc341766",
          "display": "Jason Forster"
        },
        "effectiveDateTime": "2022-01-16"
      }
    },
    {
      "fullUrl": "urn:uuid:5937d069-e01f-4449-af72-4b30650fa7e0",
      "resource": {
        "resourceType": "Observation",
        "id": "5937d069-e01f-4449-af72-4b30650fa7e0",
        "meta": {
          "profile": [
            "http://hl7.org/fhir/StructureDefinition/vitalsigns"
          ]
        },
        "category": [
          {
            "coding": [
              {
                "system": "http://terminology.hl7.org/CodeSystem/observation-category",
                "code": "vital-signs",
                "display": "Vital Signs"
              }
            ]
          }
        ],
        "valueQuantity": {
          "value": 86,
          "code": "mm[Hg]",
          "unit": "mm[Hg]"
        },
        "text": {
          "status": "generated",
          "div": "<div xmlns=\"http://www.w3.org/1999/xhtml\"><table class=\"hl7__ips\"><tr><th>Vital Sign</th><th>Date</th><th>Measurement</th></tr><tr><td>Diastolic Blood Pressure</td><td>16-Jan-2022</td><td>86 mm[Hg]</td></tr></table></div>"
        },
        "status": "final",
        "code": {
          "coding": [
            {
              "code": "$8462-4",
              "system": "http://loinc.org",
              "display": "Diastolic Blood Pressure"
            }
          ]
        },
        "subject": {
          "reference": "urn:uuid:e1536245-1787-4b36-9c73-45f3fc341766",
          "display": "Jason Forster"
        },
        "effectiveDateTime": "2022-01-16"
      }
    },
    {
      "fullUrl": "urn:uuid:a16d07e6-d6d3-4346-b439-575c68f324e3",
      "resource": {
        "resourceType": "Observation",
        "id": "a16d07e6-d6d3-4346-b439-575c68f324e3",
        "meta": {
          "profile": [
            "http://hl7.org/fhir/StructureDefinition/vitalsigns"
          ]
        },
        "category": [
          {
            "coding": [
              {
                "system": "http://terminology.hl7.org/CodeSystem/observation-category",
                "code": "vital-signs",
                "display": "Vital Signs"
              }
            ]
          }
        ],
        "valueQuantity": {
          "value": 123,
          "code": "mm[Hg]",
          "unit": "mm[Hg]"
        },
        "text": {
          "status": "generated",
          "div": "<div xmlns=\"http://www.w3.org/1999/xhtml\"><table class=\"hl7__ips\"><tr><th>Vital Sign</th><th>Date</th><th>Measurement</th></tr><tr><td>Systolic Blood Pressure</td><td>16-Jan-2022</td><td>123 mm[Hg]</td></tr></table></div>"
        },
        "status": "final",
        "code": {
          "coding": [
            {
              "code": "$8480-6",
              "system": "http://loinc.org",
              "display": "Systolic Blood Pressure"
            }
          ]
        },
        "subject": {
          "reference": "urn:uuid:e1536245-1787-4b36-9c73-45f3fc341766",
          "display": "Jason Forster"
        },
        "effectiveDateTime": "2022-01-16"
      }
    },
    {
      "fullUrl": "urn:uuid:6ad788e3-edf2-4956-acc4-f866ff80ab1e",
      "resource": {
        "resourceType": "Observation",
        "id": "6ad788e3-edf2-4956-acc4-f866ff80ab1e",
        "meta": {
          "profile": [
            "http://hl7.org/fhir/StructureDefinition/vitalsigns"
          ]
        },
        "category": [
          {
            "coding": [
              {
                "system": "http://terminology.hl7.org/CodeSystem/observation-category",
                "code": "vital-signs",
                "display": "Vital Signs"
              }
            ]
          }
        ],
        "valueQuantity": {
          "value": 79,
          "code": "/min",
          "unit": "/min"
        },
        "text": {
          "status": "generated",
          "div": "<div xmlns=\"http://www.w3.org/1999/xhtml\"><table class=\"hl7__ips\"><tr><th>Vital Sign</th><th>Date</th><th>Measurement</th></tr><tr><td>Heart rate</td><td>16-Jan-2022</td><td>79 /min</td></tr></table></div>"
        },
        "status": "final",
        "code": {
          "coding": [
            {
              "code": "$8867-4",
              "system": "http://loinc.org",
              "display": "Heart rate"
            }
          ]
        },
        "subject": {
          "reference": "urn:uuid:e1536245-1787-4b36-9c73-45f3fc341766",
          "display": "Jason Forster"
        },
        "effectiveDateTime": "2022-01-16"
      }
    },
    {
      "fullUrl": "urn:uuid:f8727ee4-f141-40fd-9ced-433f78d05c50",
      "resource": {
        "resourceType": "Observation",
        "id": "f8727ee4-f141-40fd-9ced-433f78d05c50",
        "meta": {
          "profile": [
            "http://hl7.org/fhir/StructureDefinition/vitalsigns"
          ]
        },
        "category": [
          {
            "coding": [
              {
                "system": "http://terminology.hl7.org/CodeSystem/observation-category",
                "code": "vital-signs",
                "display": "Vital Signs"
              }
            ]
          }
        ],
        "valueQuantity": {
          "value": 15,
          "code": "/min",
          "unit": "/min"
        },
        "text": {
          "status": "generated",
          "div": "<div xmlns=\"http://www.w3.org/1999/xhtml\"><table class=\"hl7__ips\"><tr><th>Vital Sign</th><th>Date</th><th>Measurement</th></tr><tr><td>Respiratory rate</td><td>16-Jan-2022</td><td>15 /min</td></tr></table></div>"
        },
        "status": "final",
        "code": {
          "coding": [
            {
              "code": "$9279-1",
              "system": "http://loinc.org",
              "display": "Respiratory rate"
            }
          ]
        },
        "subject": {
          "reference": "urn:uuid:e1536245-1787-4b36-9c73-45f3fc341766",
          "display": "Jason Forster"
        },
        "effectiveDateTime": "2022-01-16"
      }
    },
    {
      "fullUrl": "urn:uuid:b43687bb-56d9-4632-8a6e-4f87ea09559c",
      "resource": {
        "resourceType": "Observation",
        "id": "b43687bb-56d9-4632-8a6e-4f87ea09559c",
        "meta": {
          "profile": [
            "http://hl7.eu/fhir/laboratory/StructureDefinition/Observation-resultslab-eu-lab"
          ]
        },
        "performer": [
          {
            "display": "The Central European Lab"
          }
        ],
        "category": [
          {
            "coding": [
              {
                "system": "http://terminology.hl7.org/CodeSystem/observation-category",
                "code": "laboratory"
              }
            ]
          }
        ],
        "code": {
          "coding": [
            {
              "code": "4548-4",
              "system": "http://loinc.org",
              "display": "Hemoglobin A1c/Hemoglobin.total in Blood"
            }
          ],
          "text": "Hemoglobin A1c/Hemoglobin.total in Blood"
        },
        "valueQuantity": {
          "system": "http://unitsofmeasure.org",
          "value": 6,
          "unit": "%",
          "code": "%"
        },
        "referenceRange": [
          {
            "low": {
              "value": 4,
              "code": "%",
              "system": "http://unitsofmeasure.org"
            }
          },
          {
            "high": {
              "value": 6,
              "code": "%",
              "system": "http://unitsofmeasure.org"
            }
          }
        ],
        "text": {
          "status": "generated",
          "div": "<div xmlns=\"http://www.w3.org/1999/xhtml\"><table class=\"hl7__eu__lab__report\"><tr><th>Test</th><th>21-Jan-2024</th><th>Reference&#xA0;Range</th><th>Unit</th></tr><tr><td>Hemoglobin A1c/Hemoglobin.total in Blood</td><td>6.0</td><td>4 - 6</td><td></td><td>%</td></tr></table></div>"
        },
        "status": "final",
        "subject": {
          "reference": "urn:uuid:e1536245-1787-4b36-9c73-45f3fc341766",
          "display": "Jason Forster"
        },
        "effectiveDateTime": "2024-01-21T10:37:02Z"
      }
    },
    {
      "fullUrl": "urn:uuid:57d58c28-0097-4d6e-b660-452570e596a3",
      "resource": {
        "resourceType": "Observation",
        "id": "57d58c28-0097-4d6e-b660-452570e596a3",
        "meta": {
          "profile": [
            "http://hl7.eu/fhir/laboratory/StructureDefinition/Observation-resultslab-eu-lab"
          ]
        },
        "performer": [
          {
            "display": "The Central European Lab"
          }
        ],
        "category": [
          {
            "coding": [
              {
                "system": "http://terminology.hl7.org/CodeSystem/observation-category",
                "code": "laboratory"
              }
            ]
          }
        ],
        "code": {
          "coding": [
            {
              "code": "2339-0",
              "system": "http://loinc.org",
              "display": "Glucose [Mass/volume] in Blood"
            }
          ],
          "text": "Glucose [Mass/volume] in Blood"
        },
        "valueQuantity": {
          "system": "http://unitsofmeasure.org",
          "value": 97.3,
          "unit": "mg/dL",
          "code": "mg/dL"
        },
        "referenceRange": [
          {
            "low": {
              "value": 70,
              "code": "mg/dL",
              "system": "http://unitsofmeasure.org"
            }
          },
          {
            "high": {
              "value": 99,
              "code": "mg/dL",
              "system": "http://unitsofmeasure.org"
            }
          }
        ],
        "text": {
          "status": "generated",
          "div": "<div xmlns=\"http://www.w3.org/1999/xhtml\"><table class=\"hl7__eu__lab__report\"><tr><th>Test</th><th>21-Jan-2024</th><th>Reference&#xA0;Range</th><th>Unit</th></tr><tr><td>Glucose [Mass/volume] in Blood</td><td>97.3</td><td>70 - 99</td><td></td><td>mg/dL</td></tr></table></div>"
        },
        "status": "final",
        "subject": {
          "reference": "urn:uuid:e1536245-1787-4b36-9c73-45f3fc341766",
          "display": "Jason Forster"
        },
        "effectiveDateTime": "2024-01-21T10:37:02Z"
      }
    },
    {
      "fullUrl": "urn:uuid:b7768137-04be-489e-8f90-a9a891b277fc",
      "resource": {
        "resourceType": "Observation",
        "id": "b7768137-04be-489e-8f90-a9a891b277fc",
        "meta": {
          "profile": [
            "http://hl7.eu/fhir/laboratory/StructureDefinition/Observation-resultslab-eu-lab"
          ]
        },
        "performer": [
          {
            "display": "The Central European Lab"
          }
        ],
        "category": [
          {
            "coding": [
              {
                "system": "http://terminology.hl7.org/CodeSystem/observation-category",
                "code": "laboratory"
              }
            ]
          }
        ],
        "code": {
          "coding": [
            {
              "code": "6299-2",
              "system": "http://loinc.org",
              "display": "Urea nitrogen [Mass/volume] in Blood"
            }
          ],
          "text": "Urea nitrogen [Mass/volume] in Blood"
        },
        "valueQuantity": {
          "system": "http://unitsofmeasure.org",
          "value": 19.2,
          "unit": "mg/dL",
          "code": "mg/dL"
        },
        "referenceRange": [
          {
            "low": {
              "value": 7,
              "code": "mg/dL",
              "system": "http://unitsofmeasure.org"
            }
          },
          {
            "high": {
              "value": 20,
              "code": "mg/dL",
              "system": "http://unitsofmeasure.org"
            }
          }
        ],
        "text": {
          "status": "generated",
          "div": "<div xmlns=\"http://www.w3.org/1999/xhtml\"><table class=\"hl7__eu__lab__report\"><tr><th>Test</th><th>21-Jan-2024</th><th>Reference&#xA0;Range</th><th>Unit</th></tr><tr><td>Urea nitrogen [Mass/volume] in Blood</td><td>19.2</td><td>7 - 20</td><td></td><td>mg/dL</td></tr></table></div>"
        },
        "status": "final",
        "subject": {
          "reference": "urn:uuid:e1536245-1787-4b36-9c73-45f3fc341766",
          "display": "Jason Forster"
        },
        "effectiveDateTime": "2024-01-21T10:37:02Z"
      }
    },
    {
      "fullUrl": "urn:uuid:3a266607-3679-4113-b25d-1e794b803ccd",
      "resource": {
        "resourceType": "Observation",
        "id": "3a266607-3679-4113-b25d-1e794b803ccd",
        "meta": {
          "profile": [
            "http://hl7.eu/fhir/laboratory/StructureDefinition/Observation-resultslab-eu-lab"
          ]
        },
        "performer": [
          {
            "display": "The Central European Lab"
          }
        ],
        "category": [
          {
            "coding": [
              {
                "system": "http://terminology.hl7.org/CodeSystem/observation-category",
                "code": "laboratory"
              }
            ]
          }
        ],
        "code": {
          "coding": [
            {
              "code": "38483-4",
              "system": "http://loinc.org",
              "display": "Creatinine [Mass/volume] in Blood"
            }
          ],
          "text": "Creatinine [Mass/volume] in Blood"
        },
        "valueQuantity": {
          "system": "http://unitsofmeasure.org",
          "value": 1.3,
          "unit": "mg/dL",
          "code": "mg/dL"
        },
        "referenceRange": [
          {
            "low": {
              "value": 0.9,
              "code": "mg/dL",
              "system": "http://unitsofmeasure.org"
            }
          },
          {
            "high": {
              "value": 1.3,
              "code": "mg/dL",
              "system": "http://unitsofmeasure.org"
            }
          }
        ],
        "text": {
          "status": "generated",
          "div": "<div xmlns=\"http://www.w3.org/1999/xhtml\"><table class=\"hl7__eu__lab__report\"><tr><th>Test</th><th>21-Jan-2024</th><th>Reference&#xA0;Range</th><th>Unit</th></tr><tr><td>Creatinine [Mass/volume] in Blood</td><td>1.3</td><td>0.9 - 1.3</td><td></td><td>mg/dL</td></tr></table></div>"
        },
        "status": "final",
        "subject": {
          "reference": "urn:uuid:e1536245-1787-4b36-9c73-45f3fc341766",
          "display": "Jason Forster"
        },
        "effectiveDateTime": "2024-01-21T10:37:02Z"
      }
    },
    {
      "fullUrl": "urn:uuid:2bc27b5f-3bf4-4d5f-b9c4-33c1d85ead87",
      "resource": {
        "resourceType": "Observation",
        "id": "2bc27b5f-3bf4-4d5f-b9c4-33c1d85ead87",
        "meta": {
          "profile": [
            "http://hl7.eu/fhir/laboratory/StructureDefinition/Observation-resultslab-eu-lab"
          ]
        },
        "performer": [
          {
            "display": "The Central European Lab"
          }
        ],
        "category": [
          {
            "coding": [
              {
                "system": "http://terminology.hl7.org/CodeSystem/observation-category",
                "code": "laboratory"
              }
            ]
          }
        ],
        "code": {
          "coding": [
            {
              "code": "49765-1",
              "system": "http://loinc.org",
              "display": "Calcium [Mass/volume] in Blood"
            }
          ],
          "text": "Calcium [Mass/volume] in Blood"
        },
        "valueQuantity": {
          "system": "http://unitsofmeasure.org",
          "value": 9.8,
          "unit": "mg/dL",
          "code": "mg/dL"
        },
        "referenceRange": [
          {
            "low": {
              "value": 8.5,
              "code": "mg/dL",
              "system": "http://unitsofmeasure.org"
            }
          },
          {
            "high": {
              "value": 10.5,
              "code": "mg/dL",
              "system": "http://unitsofmeasure.org"
            }
          }
        ],
        "text": {
          "status": "generated",
          "div": "<div xmlns=\"http://www.w3.org/1999/xhtml\"><table class=\"hl7__eu__lab__report\"><tr><th>Test</th><th>21-Jan-2024</th><th>Reference&#xA0;Range</th><th>Unit</th></tr><tr><td>Calcium [Mass/volume] in Blood</td><td>9.8</td><td>8.5 - 10.5</td><td></td><td>mg/dL</td></tr></table></div>"
        },
        "status": "final",
        "subject": {
          "reference": "urn:uuid:e1536245-1787-4b36-9c73-45f3fc341766",
          "display": "Jason Forster"
        },
        "effectiveDateTime": "2024-01-21T10:37:02Z"
      }
    },
    {
      "fullUrl": "urn:uuid:743d0839-d556-486f-bd23-8fb4df4f26b5",
      "resource": {
        "resourceType": "Observation",
        "id": "743d0839-d556-486f-bd23-8fb4df4f26b5",
        "meta": {
          "profile": [
            "http://hl7.eu/fhir/laboratory/StructureDefinition/Observation-resultslab-eu-lab"
          ]
        },
        "performer": [
          {
            "display": "The Central European Lab"
          }
        ],
        "category": [
          {
            "coding": [
              {
                "system": "http://terminology.hl7.org/CodeSystem/observation-category",
                "code": "laboratory"
              }
            ]
          }
        ],
        "code": {
          "coding": [
            {
              "code": "2947-0",
              "system": "http://loinc.org",
              "display": "Sodium [Moles/volume] in Blood"
            }
          ],
          "text": "Sodium [Moles/volume] in Blood"
        },
        "valueQuantity": {
          "system": "http://unitsofmeasure.org",
          "value": 141.1,
          "unit": "mmol/L",
          "code": "mmol/L"
        },
        "referenceRange": [
          {
            "low": {
              "value": 135,
              "code": "mmol/L",
              "system": "http://unitsofmeasure.org"
            }
          },
          {
            "high": {
              "value": 145,
              "code": "mmol/L",
              "system": "http://unitsofmeasure.org"
            }
          }
        ],
        "text": {
          "status": "generated",
          "div": "<div xmlns=\"http://www.w3.org/1999/xhtml\"><table class=\"hl7__eu__lab__report\"><tr><th>Test</th><th>21-Jan-2024</th><th>Reference&#xA0;Range</th><th>Unit</th></tr><tr><td>Sodium [Moles/volume] in Blood</td><td>141.1</td><td>135 - 145</td><td></td><td>mmol/L</td></tr></table></div>"
        },
        "status": "final",
        "subject": {
          "reference": "urn:uuid:e1536245-1787-4b36-9c73-45f3fc341766",
          "display": "Jason Forster"
        },
        "effectiveDateTime": "2024-01-21T10:37:02Z"
      }
    },
    {
      "fullUrl": "urn:uuid:87865905-88bb-4de4-b7b9-13a2e43df269",
      "resource": {
        "resourceType": "Observation",
        "id": "87865905-88bb-4de4-b7b9-13a2e43df269",
        "meta": {
          "profile": [
            "http://hl7.eu/fhir/laboratory/StructureDefinition/Observation-resultslab-eu-lab"
          ]
        },
        "performer": [
          {
            "display": "The Central European Lab"
          }
        ],
        "category": [
          {
            "coding": [
              {
                "system": "http://terminology.hl7.org/CodeSystem/observation-category",
                "code": "laboratory"
              }
            ]
          }
        ],
        "code": {
          "coding": [
            {
              "code": "6298-4",
              "system": "http://loinc.org",
              "display": "Potassium [Moles/volume] in Blood"
            }
          ],
          "text": "Potassium [Moles/volume] in Blood"
        },
        "valueQuantity": {
          "system": "http://unitsofmeasure.org",
          "value": 4.6,
          "unit": "mmol/L",
          "code": "mmol/L"
        },
        "referenceRange": [
          {
            "low": {
              "value": 3.5,
              "code": "mmol/L",
              "system": "http://unitsofmeasure.org"
            }
          },
          {
            "high": {
              "value": 5.1,
              "code": "mmol/L",
              "system": "http://unitsofmeasure.org"
            }
          }
        ],
        "text": {
          "status": "generated",
          "div": "<div xmlns=\"http://www.w3.org/1999/xhtml\"><table class=\"hl7__eu__lab__report\"><tr><th>Test</th><th>21-Jan-2024</th><th>Reference&#xA0;Range</th><th>Unit</th></tr><tr><td>Potassium [Moles/volume] in Blood</td><td>4.6</td><td>3.5 - 5.1</td><td></td><td>mmol/L</td></tr></table></div>"
        },
        "status": "final",
        "subject": {
          "reference": "urn:uuid:e1536245-1787-4b36-9c73-45f3fc341766",
          "display": "Jason Forster"
        },
        "effectiveDateTime": "2024-01-21T10:37:02Z"
      }
    },
    {
      "fullUrl": "urn:uuid:f8090c6a-44cf-44ff-9c6e-9d59672f5d70",
      "resource": {
        "resourceType": "Observation",
        "id": "f8090c6a-44cf-44ff-9c6e-9d59672f5d70",
        "meta": {
          "profile": [
            "http://hl7.eu/fhir/laboratory/StructureDefinition/Observation-resultslab-eu-lab"
          ]
        },
        "performer": [
          {
            "display": "The Central European Lab"
          }
        ],
        "category": [
          {
            "coding": [
              {
                "system": "http://terminology.hl7.org/CodeSystem/observation-category",
                "code": "laboratory"
              }
            ]
          }
        ],
        "code": {
          "coding": [
            {
              "code": "2069-3",
              "system": "http://loinc.org",
              "display": "Chloride [Moles/volume] in Blood"
            }
          ],
          "text": "Chloride [Moles/volume] in Blood"
        },
        "valueQuantity": {
          "system": "http://unitsofmeasure.org",
          "value": 106.5,
          "unit": "mmol/L",
          "code": "mmol/L"
        },
        "referenceRange": [
          {
            "low": {
              "value": 98,
              "code": "mmol/L",
              "system": "http://unitsofmeasure.org"
            }
          },
          {
            "high": {
              "value": 114,
              "code": "mmol/L",
              "system": "http://unitsofmeasure.org"
            }
          }
        ],
        "text": {
          "status": "generated",
          "div": "<div xmlns=\"http://www.w3.org/1999/xhtml\"><table class=\"hl7__eu__lab__report\"><tr><th>Test</th><th>21-Jan-2024</th><th>Reference&#xA0;Range</th><th>Unit</th></tr><tr><td>Chloride [Moles/volume] in Blood</td><td>106.5</td><td>98 - 114</td><td></td><td>mmol/L</td></tr></table></div>"
        },
        "status": "final",
        "subject": {
          "reference": "urn:uuid:e1536245-1787-4b36-9c73-45f3fc341766",
          "display": "Jason Forster"
        },
        "effectiveDateTime": "2024-01-21T10:37:02Z"
      }
    },
    {
      "fullUrl": "urn:uuid:aa3df11a-be9a-469d-9d3e-737273bd1df5",
      "resource": {
        "resourceType": "Observation",
        "id": "aa3df11a-be9a-469d-9d3e-737273bd1df5",
        "meta": {
          "profile": [
            "http://hl7.eu/fhir/laboratory/StructureDefinition/Observation-resultslab-eu-lab"
          ]
        },
        "performer": [
          {
            "display": "The Central European Lab"
          }
        ],
        "category": [
          {
            "coding": [
              {
                "system": "http://terminology.hl7.org/CodeSystem/observation-category",
                "code": "laboratory"
              }
            ]
          }
        ],
        "code": {
          "coding": [
            {
              "code": "20565-8",
              "system": "http://loinc.org",
              "display": "Carbon dioxide, total [Moles/volume] in Blood"
            }
          ],
          "text": "Carbon dioxide, total [Moles/volume] in Blood"
        },
        "valueQuantity": {
          "system": "http://unitsofmeasure.org",
          "value": 29,
          "unit": "mmol/L",
          "code": "mmol/L"
        },
        "referenceRange": [
          {
            "low": {
              "value": 22,
              "code": "mmol/L",
              "system": "http://unitsofmeasure.org"
            }
          },
          {
            "high": {
              "value": 29,
              "code": "mmol/L",
              "system": "http://unitsofmeasure.org"
            }
          }
        ],
        "text": {
          "status": "generated",
          "div": "<div xmlns=\"http://www.w3.org/1999/xhtml\"><table class=\"hl7__eu__lab__report\"><tr><th>Test</th><th>21-Jan-2024</th><th>Reference&#xA0;Range</th><th>Unit</th></tr><tr><td>Carbon dioxide, total [Moles/volume] in Blood</td><td>29.0</td><td>22 - 29</td><td></td><td>mmol/L</td></tr></table></div>"
        },
        "status": "final",
        "subject": {
          "reference": "urn:uuid:e1536245-1787-4b36-9c73-45f3fc341766",
          "display": "Jason Forster"
        },
        "effectiveDateTime": "2024-01-21T10:37:02Z"
      }
    },
    {
      "fullUrl": "urn:uuid:6a6f6809-8f40-4804-9d6b-5da9ffb52123",
      "resource": {
        "resourceType": "DeviceUseStatement",
        "id": "6a6f6809-8f40-4804-9d6b-5da9ffb52123",
        "meta": {
          "profile": [
            "http://hl7.eu/fhir/eps/StructureDefinition/deviceUseStatement-eu-eps"
          ]
        },
        "timingPeriod": {
          "start": "2024-01-21"
        },
        "text": {
          "status": "generated",
          "div": "<div xmlns=\"http://www.w3.org/1999/xhtml\"><table class=\"hl7__ips\"><tr><td>Blood glucose meter (physical object)</td><td><span class=\"nb\">21-Jan-2024</span></td></tr></table></div>"
        },
        "status": "active",
        "device": {
          "reference": "urn:uuid:d01c64da-5c36-4a41-a039-1cbde3534287",
          "display": "Blood glucose meter (physical object)"
        },
        "subject": {
          "reference": "urn:uuid:e1536245-1787-4b36-9c73-45f3fc341766",
          "display": "Jason Forster"
        }
      }
    },
    {
      "fullUrl": "urn:uuid:d01c64da-5c36-4a41-a039-1cbde3534287",
      "resource": {
        "resourceType": "Device",
        "id": "d01c64da-5c36-4a41-a039-1cbde3534287",
        "meta": {
          "profile": [
            "http://hl7.eu/fhir/eps/StructureDefinition/device-eu-eps"
          ]
        },
        "udiCarrier": [
          {
            "id": "(01)69543179663113(11)231231(17)490114(10)8808(21)391241"
          }
        ],
        "status": "active",
        "patient": {
          "reference": "urn:uuid:e1536245-1787-4b36-9c73-45f3fc341766",
          "display": "Jason Forster"
        },
        "type": {
          "coding": [
            {
              "code": "337414009",
              "system": "http://snomed.info/sct",
              "display": "Blood glucose meter (physical object)"
            }
          ]
        }
      }
    },
    {
      "fullUrl": "urn:uuid:c5d824f2-4fb6-4693-9793-a620ef37df20",
      "resource": {
        "resourceType": "DeviceUseStatement",
        "id": "c5d824f2-4fb6-4693-9793-a620ef37df20",
        "meta": {
          "profile": [
            "http://hl7.eu/fhir/eps/StructureDefinition/deviceUseStatement-eu-eps"
          ]
        },
        "timingPeriod": {
          "start": "2017-07-07"
        },
        "text": {
          "status": "generated",
          "div": "<div xmlns=\"http://www.w3.org/1999/xhtml\"><table class=\"hl7__ips\"><tr><td>Walker (physical object)</td><td><span class=\"nb\">07-Jul-2017</span></td></tr></table></div>"
        },
        "status": "active",
        "device": {
          "reference": "urn:uuid:9ea29843-dba5-4658-bb97-824781c1afaf",
          "display": "Walker (physical object)"
        },
        "subject": {
          "reference": "urn:uuid:e1536245-1787-4b36-9c73-45f3fc341766",
          "display": "Jason Forster"
        }
      }
    },
    {
      "fullUrl": "urn:uuid:9ea29843-dba5-4658-bb97-824781c1afaf",
      "resource": {
        "resourceType": "Device",
        "id": "9ea29843-dba5-4658-bb97-824781c1afaf",
        "meta": {
          "profile": [
            "http://hl7.eu/fhir/eps/StructureDefinition/device-eu-eps"
          ]
        },
        "udiCarrier": [
          {
            "id": "(01)88487516537619(11)170616(17)420701(10)3346(21)40440682780"
          }
        ],
        "status": "active",
        "patient": {
          "reference": "urn:uuid:e1536245-1787-4b36-9c73-45f3fc341766",
          "display": "Jason Forster"
        },
        "type": {
          "coding": [
            {
              "code": "705406009",
              "system": "http://snomed.info/sct",
              "display": "Walker (physical object)"
            }
          ]
        }
      }
    },
    {
      "fullUrl": "urn:uuid:689c9d60-884c-4f98-abc7-dff0eca2c8b4",
      "resource": {
        "resourceType": "Device",
        "id": "689c9d60-884c-4f98-abc7-dff0eca2c8b4",
        "deviceName": [
          {
            "name": "SYNDERAI Synthetic Generator",
            "type": "manufacturer-name"
          }
        ],
        "version": [
          {
            "value": "5.0"
          }
        ],
        "text": {
          "status": "generated",
          "div": "<div xmlns=\"http://www.w3.org/1999/xhtml\">SYNDERAI Synthetic Generator v5.0</div>"
        },
        "status": "active\"",
        "distinctIdentifier": "synderai-generator-50",
        "manufacturer": "SYNDERAI Project"
      }
    },
    {
      "fullUrl": "urn:uuid:bf97ec55-5ed2-498e-a938-52b13e2c06ff",
      "resource": {
        "resourceType": "Provenance",
        "id": "bf97ec55-5ed2-498e-a938-52b13e2c06ff",
        "target": [
          {
            "reference": "Patient/e1536245-1787-4b36-9c73-45f3fc341766"
          },
          {
            "reference": "Bundle/8911b718-f190-4310-8366-e4d3a7949607"
          },
          {
            "reference": "Composition/d0573c36-630a-469b-91cb-e460f6f72a10"
          },
          {
            "reference": "PractitionerRole/eb2c2cb5-d99b-4093-982e-5bcd7c567a34"
          },
          {
            "reference": "Organization/1ec80b82-8ba8-4d66-9de2-41db54768b0d"
          },
          {
            "reference": "Practitioner/d174f8d5-6b9a-4319-9791-0a611a558d16"
          }
        ],
        "activity": {
          "text": "Synthetic Example Data Generation"
        },
        "policy": [
          "https://synderai.net/synderai-synthetic-data-policy"
        ],
        "agent": [
          {
            "type": {
              "text": "author"
            },
            "who": {
              "reference": "Device/689c9d60-884c-4f98-abc7-dff0eca2c8b4"
            }
          }
        ],
        "reason": [
          {
            "text": "Interoperability Testing and Training (non-clinical use)"
          }
        ],
        "text": {
          "status": "generated",
          "div": "<div xmlns=\"http://www.w3.org/1999/xhtml\">Provenance for SYNDERAI Synthetic Example Data Resource</div>"
        },
        "recorded": "2024-01-21T10:37:02Z"
      }
    }
  ],
  "type": "document",
  "timestamp": "2024-01-21T10:37:02Z"
}
