<Bundle xmlns="http://hl7.org/fhir">
   <id value="2b753596-f833-423d-a0cb-c704fe9ad419"/>
   <meta>
      <profile value="http://hl7.eu/fhir/eps/StructureDefinition/bundle-eu-eps"/>
   </meta>
   <identifier>
      <system value="urn:oid:2.16.840.1.113883.2.51.999"/>
      <value value="02453b9e-0cd9-48cd-a559-829ebd124921"/>
      <assigner>
         <display value="HL7 Europe"/>
      </assigner>
   </identifier>
   <type value="document"/>
   <timestamp value="2024-01-06T23:10:08Z"/>
   <entry>
      <fullUrl value="urn:uuid:7da58d2e-ed2e-4596-96e7-fdca727c7bee"/>
      <resource>
         <Composition>
            <id value="7da58d2e-ed2e-4596-96e7-fdca727c7bee"/>
            <meta>
               <profile value="http://hl7.eu/fhir/eps/StructureDefinition/composition-eu-eps"/>
               <security>
                  <system value="http://terminology.hl7.org/CodeSystem/v3-ActReason"/>
                  <code value="HTEST"/>
               </security>
               <security>
                  <system value="http://terminology.hl7.org/CodeSystem/v3-ActReason"/>
                  <code value="TRAIN"/>
               </security>
               <tag>
                  <system value="https://synderai.net/fhir/CodeSystem/tags"/>
                  <code value="synthetic"/>
                  <display value="SYNDERAI Synthetic data"/>
               </tag>
            </meta>
            <identifier>
               <system value="urn:oid:2.16.840.1.113883.2.51.999"/>
               <value value="b2b59518-5271-4638-9262-ff6a69dc7ecc"/>
               <assigner>
                  <display value="HL7 Europe"/>
               </assigner>
            </identifier>
            <status value="final"/>
            <type>
               <coding>
                  <system value="http://loinc.org"/>
                  <code value="60591-5"/>
                  <display value="Patient summary Document"/>
               </coding>
               <text value="Patient summary Document"/>
            </type>
            <subject>
               <reference value="urn:uuid:96c4723f-1c51-44af-a4c5-76b8e6962d45"/>
               <display value="Gastone Farnese"/>
            </subject>
            <date value="2024-01-07"/>
            <author>
               <reference value="urn:uuid:bff23355-7f40-4dd5-8bcd-9d71ccb50188"/>
            </author>
            <title value="European Patient Summary"/>
            <confidentiality value="N"/>
            <custodian>
               <reference value="urn:uuid:7241233a-36b8-40cc-b1d7-f977bef71a8a"/>
            </custodian>
            <section>
               <title value="Problem list"/>
               <code>
                  <coding>
                     <system value="http://loinc.org"/>
                     <code value="11450-4"/>
                     <display value="Problem list - Reported"/>
                  </coding>
               </code>
               <text>
                  <status value="generated"/>
                  <div xmlns="http://www.w3.org/1999/xhtml">
                     <table class="hl7__ips">
                        <tr>
                           <th>Condition</th>
                           <th>Onset Date</th>
                           <th>Status</th>
                        </tr>
                        <tr>
                           <td>Ischemic heart disease</td>
                           <td>
                              <span class="nb">10-Nov-2013</span>
                           </td>
                           <td>active</td>
                        </tr>
                     </table>
                  </div>
               </text>
               <entry>
                  <reference value="urn:uuid:41cdbb42-8587-468c-9b39-cc588cb22cb3"/>
               </entry>
            </section>
            <section>
               <title value="Medication list"/>
               <code>
                  <coding>
                     <system value="http://loinc.org"/>
                     <code value="10160-0"/>
                     <display value="History of Medication use Narrative"/>
                  </coding>
               </code>
               <text>
                  <status value="generated"/>
                  <div xmlns="http://www.w3.org/1999/xhtml">
                     <table class="hl7__ips">
                        <tr>
                           <th>Medication</th>
                           <th>Since</th>
                           <th>Form</th>
                           <th>Dosage</th>
                           <th>Reason</th>
                        </tr>
                        <tr>
                           <td>Clopidogrel (as clopidogrel bisulfate) 75 mg oral tablet</td>
                           <td>
                              <span class="nb">2013-11-16</span>
                           </td>
                           <td>-</td>
                           <td>1 tablet (75 mg) once daily</td>
                           <td>-</td>
                        </tr>
                        <tr>
                           <td>Simvastatin 20 mg oral tablet</td>
                           <td>
                              <span class="nb">2013-11-16</span>
                           </td>
                           <td>-</td>
                           <td>1 tablet (20 mg) by mouth once daily</td>
                           <td>-</td>
                        </tr>
                        <tr>
                           <td>Nitroglycerin 400 microgram/actuation sublingual spray</td>
                           <td>
                              <span class="nb">2013-11-16</span>
                           </td>
                           <td>-</td>
                           <td>400 micrograms (1 spray) sublingually as needed for chest pain, may repeat every 5 minutes as needed, up to 3 sprays in 15 minutes</td>
                           <td>-</td>
                        </tr>
                        <tr>
                           <td>Metoprolol tartrate (as metoprolol succinate) 100 mg prolonged-release oral tablet</td>
                           <td>
                              <span class="nb">2013-11-16</span>
                           </td>
                           <td>-</td>
                           <td>1 tablet (100 mg) once daily</td>
                           <td>-</td>
                        </tr>
                     </table>
                  </div>
               </text>
               <entry>
                  <reference value="urn:uuid:abb709bd-31c7-48e1-af71-3063620194fc"/>
               </entry>
               <entry>
                  <reference value="urn:uuid:1df88fd1-247e-48f2-adfd-c269faf47647"/>
               </entry>
               <entry>
                  <reference value="urn:uuid:e6810db0-f0f7-4b43-abc1-4de31b1bf688"/>
               </entry>
               <entry>
                  <reference value="urn:uuid:39b93cdb-ef45-4c47-8c9b-9729ba624267"/>
               </entry>
            </section>
            <section>
               <title value="Immunizations list"/>
               <code>
                  <coding>
                     <system value="http://loinc.org"/>
                     <code value="11369-6"/>
                     <display value="History of Immunization note"/>
                  </coding>
               </code>
               <text>
                  <status value="generated"/>
                  <div xmlns="http://www.w3.org/1999/xhtml">
                     <table class="hl7__ips">
                        <tr>
                           <th>Vaccine</th>
                           <th>Date</th>
                        </tr>
                        <tr>
                           <td>Influenza virus antigen only vaccine product</td>
                           <td>
                              <span class="nb">11-Jan-2025</span>
                           </td>
                        </tr>
                        <tr>
                           <td>SARS-CoV-2 mRNA vaccine</td>
                           <td>
                              <span class="nb">10-Apr-2021</span>
                           </td>
                        </tr>
                        <tr>
                           <td>Clostridium tetani toxoid antigen adsorbed only vaccine product</td>
                           <td>
                              <span class="nb">02-Dec-2017</span>
                           </td>
                        </tr>
                     </table>
                  </div>
               </text>
               <entry>
                  <reference value="urn:uuid:cf896eed-2341-481f-94a9-7c935a125ce5"/>
               </entry>
               <entry>
                  <reference value="urn:uuid:96a5090a-d814-41a9-81b9-661cfbd69406"/>
               </entry>
               <entry>
                  <reference value="urn:uuid:e0ebfc7b-62ce-4575-aa63-17d98be0f96b"/>
               </entry>
            </section>
            <section>
               <title value="Allergies and Intolerances"/>
               <code>
                  <coding>
                     <system value="http://loinc.org"/>
                     <code value="48765-2"/>
                     <display value="Allergies and adverse reactions Document"/>
                  </coding>
               </code>
               <text>
                  <status value="generated"/>
                  <div xmlns="http://www.w3.org/1999/xhtml">
                     <table class="hl7__ips">
                        <tr>
                           <th>Allergy/Intolerance</th>
                           <th>Onset Date</th>
                           <th>Status</th>
                           <th>Type</th>
                           <th>Reaction</th>
                        </tr>
                        <tr>
                           <td>Vaccine product containing only Clostridium tetani toxoid antigen adsorbed</td>
                           <td>?</td>
                           <td>active</td>
                           <td>?</td>
                           <td/>
                        </tr>
                     </table>
                  </div>
               </text>
               <entry>
                  <reference value="urn:uuid:e8720237-06c5-44ce-bee9-c40302fd71b2"/>
               </entry>
            </section>
            <section>
               <title value="Care Plan"/>
               <code>
                  <coding>
                     <system value="http://loinc.org"/>
                     <code value="18776-5"/>
                     <display value="Plan of care note"/>
                  </coding>
               </code>
               <text>
                  <status value="generated"/>
                  <div xmlns="http://www.w3.org/1999/xhtml">
                     <table class="hl7__ips">
                        <tr>
                           <th>Active Planned Care / Goals</th>
                           <th>Start Date</th>
                           <th>Reason</th>
                        </tr>
                        <tr>
                           <td>Weight management program</td>
                           <td>
                              <span class="nb">15-Jul-1951</span>
                           </td>
                           <td>-</td>
                        </tr>
                        <tr>
                           <th>Immunization Recommendation</th>
                           <th>Due Date</th>
                           <th>Reason</th>
                        </tr>
                        <tr>
                           <td>Vaccine product containing only Influenza virus antigen (medicinal product)</td>
                           <td>
                              <span class="nb">01-Oct-2025</span>
                           </td>
                           <td>Annual seasonal influenza vaccination</td>
                        </tr>
                     </table>
                  </div>
               </text>
               <entry>
                  <reference value="urn:uuid:29c129c6-20f1-43b8-b849-22eda362ae2e"/>
               </entry>
               <entry>
                  <reference value="urn:uuid:27cca9b4-a2a0-499f-a415-c1f0d332d991"/>
               </entry>
            </section>
            <section>
               <title value="Vital Signs"/>
               <code>
                  <coding>
                     <system value="http://loinc.org"/>
                     <code value="8716-3"/>
                     <display value="Vital signs note"/>
                  </coding>
               </code>
               <text>
                  <status value="generated"/>
                  <div xmlns="http://www.w3.org/1999/xhtml">
                     <table class="hl7__ips">
                        <tr>
                           <th>Vital Signs</th>
                           <th>2025-01-11</th>
                           <th>2024-05-07</th>
                        </tr>
                        <tr>
                           <td>Body Height</td>
                           <td>172.9 cm</td>
                           <td>-</td>
                        </tr>
                        <tr>
                           <td>Pain severity - 0-10 verbal numeric rating [Score] - Reported</td>
                           <td>1 {score}</td>
                           <td>-</td>
                        </tr>
                        <tr>
                           <td>Body Weight</td>
                           <td>98.8 kg</td>
                           <td>-</td>
                        </tr>
                        <tr>
                           <td>Body mass index (BMI) [Ratio]</td>
                           <td>33.1 kg/m2</td>
                           <td>-</td>
                        </tr>
                        <tr>
                           <td>Diastolic Blood Pressure</td>
                           <td>59 mm[Hg]</td>
                           <td>-</td>
                        </tr>
                        <tr>
                           <td>Systolic Blood Pressure</td>
                           <td>84 mm[Hg]</td>
                           <td>-</td>
                        </tr>
                        <tr>
                           <td>Heart rate</td>
                           <td>91 /min</td>
                           <td>-</td>
                        </tr>
                        <tr>
                           <td>Respiratory rate</td>
                           <td>14 /min</td>
                           <td>-</td>
                        </tr>
                        <tr>
                           <td>Body temperature</td>
                           <td>-</td>
                           <td>37.2 Cel</td>
                        </tr>
                     </table>
                  </div>
               </text>
               <entry>
                  <reference value="urn:uuid:baa0ff04-89f0-45b7-8dd4-5d57d3a1b525"/>
               </entry>
               <entry>
                  <reference value="urn:uuid:3e5ebd82-ffc6-4854-aa59-38430b35028b"/>
               </entry>
               <entry>
                  <reference value="urn:uuid:a30fb9bd-442a-40bf-8cd5-91ce519a663f"/>
               </entry>
               <entry>
                  <reference value="urn:uuid:59a2648c-8419-4884-bb12-3b415a04ff0d"/>
               </entry>
               <entry>
                  <reference value="urn:uuid:e1e16812-8a80-41e4-a5ba-2b9884466eb6"/>
               </entry>
               <entry>
                  <reference value="urn:uuid:649a9a36-2149-49ba-ac54-df9666b0dd7c"/>
               </entry>
               <entry>
                  <reference value="urn:uuid:0d7aaccf-b265-4109-9136-322c382dd774"/>
               </entry>
               <entry>
                  <reference value="urn:uuid:8308c8f3-6bf3-4165-b4a2-fb43340b5adb"/>
               </entry>
               <entry>
                  <reference value="urn:uuid:639c57fa-1fdd-4f38-9621-32b4e0f07768"/>
               </entry>
            </section>
            <section>
               <title value="Relevant diagnostic tests/laboratory data"/>
               <code>
                  <coding>
                     <system value="http://loinc.org"/>
                     <code value="30954-2"/>
                     <display value="Relevant diagnostic tests/laboratory data note"/>
                  </coding>
               </code>
               <text>
                  <status value="generated"/>
                  <div xmlns="http://www.w3.org/1999/xhtml">
                     <table class="hl7__ips">
                        <table class="hl7__ips">
                           <thead>
                              <tr>
                                 <th>Recent Lab Observations</th>
                                 <th>07-JAN-2024</th>
                                 <th>Reference Range</th>
                                 <th>Unit</th>
                              </tr>
                           </thead>
                           <tbody>
                              <tr>
                                 <td>Leukocytes [#/volume] in Blood by Automated count</td>
                                 <td>3.6</td>
                                 <td>3.4 - 10.6</td>
                                 <td>10*3/uL</td>
                              </tr>
                              <tr>
                                 <td>Erythrocytes [#/volume] in Blood by Automated count</td>
                                 <td>4.5</td>
                                 <td>4.2 - 6.2</td>
                                 <td>10*6/uL</td>
                              </tr>
                              <tr>
                                 <td>Hemoglobin [Mass/volume] in Blood</td>
                                 <td>
                                    <strong>13.1 L</strong>
                                 </td>
                                 <td>13.8 - 17.5</td>
                                 <td>g/dL</td>
                              </tr>
                              <tr>
                                 <td>Hematocrit [Volume Fraction] of Blood by Automated count</td>
                                 <td>47.7</td>
                                 <td>38 - 50</td>
                                 <td>%</td>
                              </tr>
                              <tr>
                                 <td>MCV [Entitic volume] by Automated count</td>
                                 <td>94.3</td>
                                 <td>76 - 98</td>
                                 <td>fL</td>
                              </tr>
                              <tr>
                                 <td>MCH [Entitic mass] by Automated count</td>
                                 <td>27.5</td>
                                 <td>27 - 34</td>
                                 <td>pg</td>
                              </tr>
                              <tr>
                                 <td>MCHC [Mass/volume] by Automated count</td>
                                 <td>35.4</td>
                                 <td>31 - 37</td>
                                 <td>g/dL</td>
                              </tr>
                              <tr>
                                 <td>Erythrocyte distribution width [Entitic volume] by Automated count</td>
                                 <td>44.5</td>
                                 <td>36 - 56</td>
                                 <td>fL</td>
                              </tr>
                              <tr>
                                 <td>Platelets [#/volume] in Blood by Automated count</td>
                                 <td>293.3</td>
                                 <td>150 - 363</td>
                                 <td>10*3/uL</td>
                              </tr>
                              <tr>
                                 <td>Platelet distribution width [Entitic volume] in Blood by Automated count</td>
                                 <td>
                                    <strong>366.9 H</strong>
                                 </td>
                                 <td>13.4 - 17.4</td>
                                 <td>fL</td>
                              </tr>
                              <tr>
                                 <td>Platelet mean volume [Entitic volume] in Blood by Automated count</td>
                                 <td>9.7</td>
                                 <td>7.2 - 13.5</td>
                                 <td>fL</td>
                              </tr>
                           </tbody>
                        </table>
                     </table>
                  </div>
               </text>
               <entry>
                  <reference value="urn:uuid:fdd9a7e2-1b50-4e92-a339-2737f95fc676"/>
               </entry>
               <entry>
                  <reference value="urn:uuid:97a9202a-f950-450c-a6ad-b854b564cbf5"/>
               </entry>
               <entry>
                  <reference value="urn:uuid:1b4cc75b-e875-4836-a2e4-113dbe5a2526"/>
               </entry>
               <entry>
                  <reference value="urn:uuid:c70ba671-dc02-4012-8d0d-8d1e462dbe6a"/>
               </entry>
               <entry>
                  <reference value="urn:uuid:76985d94-dead-4135-8422-94a68fff03a0"/>
               </entry>
               <entry>
                  <reference value="urn:uuid:3990efd0-05cf-45c3-a820-4d495dec268a"/>
               </entry>
               <entry>
                  <reference value="urn:uuid:6f65c168-dc80-48ae-97a8-9002d77e92bc"/>
               </entry>
               <entry>
                  <reference value="urn:uuid:f5fa61a1-23a8-46ae-ba39-8a08f60e2967"/>
               </entry>
               <entry>
                  <reference value="urn:uuid:80bc7e94-04a2-4936-8726-b6b01851bc77"/>
               </entry>
               <entry>
                  <reference value="urn:uuid:450de69d-fcf1-4ad4-a11a-92df6f03f852"/>
               </entry>
               <entry>
                  <reference value="urn:uuid:da4f5d93-daaa-4241-b993-5069a69758b0"/>
               </entry>
            </section>
         </Composition>
      </resource>
   </entry>
   <entry>
      <fullUrl value="urn:uuid:96c4723f-1c51-44af-a4c5-76b8e6962d45"/>
      <resource>
         <Patient>
            <id value="96c4723f-1c51-44af-a4c5-76b8e6962d45"/>
            <meta>
               <profile value="http://hl7.eu/fhir/eps/StructureDefinition/patient-eu-eps"/>
               <security>
                  <system value="http://terminology.hl7.org/CodeSystem/v3-ActReason"/>
                  <code value="HTEST"/>
               </security>
               <security>
                  <system value="http://terminology.hl7.org/CodeSystem/v3-ActReason"/>
                  <code value="TRAIN"/>
               </security>
               <tag>
                  <system value="https://synderai.net/fhir/CodeSystem/tags"/>
                  <code value="synthetic"/>
                  <display value="SYNDERAI Synthetic data"/>
               </tag>
            </meta>
            <text>
               <status value="generated"/>
               <div xmlns="http://www.w3.org/1999/xhtml">
                  <table class="hl7__ips">
                     <tr>
                        <td>Gastone Farnese</td>
                        <td>male</td>
                        <td>16-Apr-1939</td>
                     </tr>
                  </table>
               </div>
            </text>
            <extension url="http://hl7.org/fhir/StructureDefinition/patient-nationality">
               <valueCodeableConcept>
                  <coding>
                     <system value="http://hl7.org/fhir/ValueSet/country"/>
                     <code value="IT"/>
                  </coding>
               </valueCodeableConcept>
            </extension>
            <identifier>
               <type>
                  <coding>
                     <system value="http://terminology.hl7.org/CodeSystem/v2-0203"/>
                     <code value="PT"/>
                  </coding>
               </type>
               <system value="http://ec.europa.eu/identifier/eci"/>
               <value value="9783-008691-0"/>
            </identifier>
            <identifier>
               <type>
                  <coding>
                     <system value="http://terminology.hl7.org/CodeSystem/v2-0203"/>
                     <code value="MR"/>
                  </coding>
               </type>
               <system value="http://local.setting.eu/identifier"/>
               <value value="3a83b0c2-9162-b4ed-57ec-07c0d12b05d8"/>
            </identifier>
            <name>
               <family value="Farnese"/>
            </name>
            <name>
               <given value="Gastone"/>
            </name>
            <name>
               <text value="Gastone Farnese"/>
            </name>
            <telecom>
               <system value="phone"/>
               <value value="+39 350079040"/>
            </telecom>
            <gender value="male"/>
            <birthDate value="1939-04-16"/>
            <address>
               <use value="home"/>
               <type value="physical"/>
               <line value="Rotonda Verdone, 9 Appartamento 6"/>
               <city value="Galzignano Terme"/>
               <postalCode value="35030"/>
               <country value="Italy"/>
            </address>
         </Patient>
      </resource>
   </entry>
   <entry>
      <fullUrl value="urn:uuid:bff23355-7f40-4dd5-8bcd-9d71ccb50188"/>
      <resource>
         <PractitionerRole>
            <id value="bff23355-7f40-4dd5-8bcd-9d71ccb50188"/>
            <meta>
               <profile value="http://hl7.eu/fhir/base/StructureDefinition/practitionerRole-eu"/>
            </meta>
            <text>
               <status value="generated"/>
               <div xmlns="http://www.w3.org/1999/xhtml">
                  <table class="hl7__ips">Provider Role Id bff23355-7f40-4dd5-8bcd-9d71ccb50188</table>
               </div>
            </text>
            <practitioner>
               <reference value="urn:uuid:658fe808-e041-463e-97f3-ae66ce6bc075"/>
            </practitioner>
            <organization>
               <reference value="urn:uuid:7241233a-36b8-40cc-b1d7-f977bef71a8a"/>
            </organization>
         </PractitionerRole>
      </resource>
   </entry>
   <entry>
      <fullUrl value="urn:uuid:658fe808-e041-463e-97f3-ae66ce6bc075"/>
      <resource>
         <Practitioner>
            <id value="658fe808-e041-463e-97f3-ae66ce6bc075"/>
            <meta>
               <profile value="http://hl7.eu/fhir/base/StructureDefinition/practitioner-eu"/>
            </meta>
            <text>
               <status value="generated"/>
               <div xmlns="http://www.w3.org/1999/xhtml">
                  <table class="hl7__ips">Dr. Hel Ping</table>
               </div>
            </text>
            <name>
               <family value="Ping"/>
               <given value="Hel"/>
               <prefix value="Dr."/>
            </name>
         </Practitioner>
      </resource>
   </entry>
   <entry>
      <fullUrl value="urn:uuid:7241233a-36b8-40cc-b1d7-f977bef71a8a"/>
      <resource>
         <Organization>
            <id value="7241233a-36b8-40cc-b1d7-f977bef71a8a"/>
            <meta>
               <profile value="http://hl7.eu/fhir/base/StructureDefinition/organization-eu"/>
            </meta>
            <text>
               <status value="generated"/>
               <div xmlns="http://www.w3.org/1999/xhtml">
                  <table class="hl7__ips">Ospedali Riuniti Padova Sud "Madre Teresa di Calcutta"</table>
               </div>
            </text>
            <identifier>
               <system value="urn:oid:2.16.840.1.113883.2.51.999"/>
               <value value="51b8d7ee-d5ca-4d76-9f06-2a3781bea7b7"/>
               <assigner>
                  <display value="HL7 Europe"/>
               </assigner>
            </identifier>
            <name value="Ospedali Riuniti Padova Sud &amp;quot;Madre Teresa di Calcutta&amp;quot;"/>
            <address>
               <line value="Via Albere nan"/>
               <city value="Este"/>
               <postalCode value="35042"/>
               <country value="Italy"/>
            </address>
         </Organization>
      </resource>
   </entry>
   <entry>
      <fullUrl value="urn:uuid:41cdbb42-8587-468c-9b39-cc588cb22cb3"/>
      <resource>
         <Condition>
            <id value="41cdbb42-8587-468c-9b39-cc588cb22cb3"/>
            <meta>
               <profile value="http://hl7.org/fhir/uv/ips/StructureDefinition/Condition-uv-ips"/>
            </meta>
            <text>
               <status value="generated"/>
               <div xmlns="http://www.w3.org/1999/xhtml">
                  <table class="hl7__ips">
                     <tr>
                        <td>Ischemic heart disease</td>
                        <td>
                           <span class="nb">10-Nov-2013</span>
                        </td>
                        <td>active</td>
                     </tr>
                  </table>
               </div>
            </text>
            <category>
               <coding>
                  <system value="http://terminology.hl7.org/CodeSystem/condition-category"/>
                  <code value="problem-list-item"/>
                  <display value="Problem List Item"/>
               </coding>
            </category>
            <code>
               <coding>
                  <system value="http://snomed.info/sct"/>
                  <code value="414545008"/>
                  <display value="Ischemic heart disease (disorder)"/>
               </coding>
               <text value="Ischemic heart disease"/>
            </code>
            <subject>
               <reference value="urn:uuid:"/>
               <display value="Gastone Farnese"/>
            </subject>
            <onsetDateTime value="2013-11-10"/>
            <asserter>
               <reference value="urn:uuid:"/>
               <display value="Ospedali Riuniti Padova Sud &amp;quot;Madre Teresa di Calcutta&amp;quot;"/>
            </asserter>
         </Condition>
      </resource>
   </entry>
   <entry>
      <fullUrl value="urn:uuid:a9ad3acb-075c-4ef0-95cc-d0ea78814986"/>
      <resource>
         <Condition>
            <id value="a9ad3acb-075c-4ef0-95cc-d0ea78814986"/>
            <meta>
               <profile value="http://hl7.org/fhir/uv/ips/StructureDefinition/Condition-uv-ips"/>
            </meta>
            <text>
               <status value="generated"/>
               <div xmlns="http://www.w3.org/1999/xhtml">
                  <table class="hl7__ips">
                     <tr>
                        <td>
                           <span class="grayedout">Acute viral pharyngitis</span>
                        </td>
                        <td>
                           <span class="nb">07-May-2024 - 16-May-2024</span>
                        </td>
                        <td>
                           <span class="grayedout">inactive</span>
                        </td>
                     </tr>
                  </table>
               </div>
            </text>
            <category>
               <coding>
                  <system value="http://terminology.hl7.org/CodeSystem/condition-category"/>
                  <code value="problem-list-item"/>
                  <display value="Problem List Item"/>
               </coding>
            </category>
            <code>
               <coding>
                  <system value="http://snomed.info/sct"/>
                  <code value="195662009"/>
                  <display value="Acute viral pharyngitis (disorder)"/>
               </coding>
               <text value="Acute viral pharyngitis"/>
            </code>
            <subject>
               <reference value="urn:uuid:"/>
               <display value="Gastone Farnese"/>
            </subject>
            <onsetDateTime value="2024-05-07"/>
            <abatementDateTime value="2024-05-16"/>
            <asserter>
               <reference value="urn:uuid:"/>
               <display value="Ospedali Riuniti Padova Sud &amp;quot;Madre Teresa di Calcutta&amp;quot;"/>
            </asserter>
         </Condition>
      </resource>
   </entry>
   <entry>
      <fullUrl value="urn:uuid:4c8387fa-2800-4de1-b7cb-068ab26b0f4e"/>
      <resource>
         <Condition>
            <id value="4c8387fa-2800-4de1-b7cb-068ab26b0f4e"/>
            <meta>
               <profile value="http://hl7.org/fhir/uv/ips/StructureDefinition/Condition-uv-ips"/>
            </meta>
            <text>
               <status value="generated"/>
               <div xmlns="http://www.w3.org/1999/xhtml">
                  <table class="hl7__ips">
                     <tr>
                        <td>
                           <span class="grayedout">Acute bronchitis</span>
                        </td>
                        <td>
                           <span class="nb">20-Oct-2019 - 09-Nov-2019</span>
                        </td>
                        <td>
                           <span class="grayedout">inactive</span>
                        </td>
                     </tr>
                  </table>
               </div>
            </text>
            <category>
               <coding>
                  <system value="http://terminology.hl7.org/CodeSystem/condition-category"/>
                  <code value="problem-list-item"/>
                  <display value="Problem List Item"/>
               </coding>
            </category>
            <code>
               <coding>
                  <system value="http://snomed.info/sct"/>
                  <code value="10509002"/>
                  <display value="Acute bronchitis (disorder)"/>
               </coding>
               <text value="Acute bronchitis"/>
            </code>
            <subject>
               <reference value="urn:uuid:"/>
               <display value="Gastone Farnese"/>
            </subject>
            <onsetDateTime value="2019-10-20"/>
            <abatementDateTime value="2019-11-09"/>
            <asserter>
               <reference value="urn:uuid:"/>
               <display value="Ospedali Riuniti Padova Sud &amp;quot;Madre Teresa di Calcutta&amp;quot;"/>
            </asserter>
         </Condition>
      </resource>
   </entry>
   <entry>
      <fullUrl value="urn:uuid:a54018f8-95e1-442a-8389-0a571299dfc9"/>
      <resource>
         <Condition>
            <id value="a54018f8-95e1-442a-8389-0a571299dfc9"/>
            <meta>
               <profile value="http://hl7.org/fhir/uv/ips/StructureDefinition/Condition-uv-ips"/>
            </meta>
            <text>
               <status value="generated"/>
               <div xmlns="http://www.w3.org/1999/xhtml">
                  <table class="hl7__ips">
                     <tr>
                        <td>
                           <span class="grayedout">Acute bronchitis</span>
                        </td>
                        <td>
                           <span class="nb">29-Apr-2018 - 14-May-2018</span>
                        </td>
                        <td>
                           <span class="grayedout">inactive</span>
                        </td>
                     </tr>
                  </table>
               </div>
            </text>
            <category>
               <coding>
                  <system value="http://terminology.hl7.org/CodeSystem/condition-category"/>
                  <code value="problem-list-item"/>
                  <display value="Problem List Item"/>
               </coding>
            </category>
            <code>
               <coding>
                  <system value="http://snomed.info/sct"/>
                  <code value="10509002"/>
                  <display value="Acute bronchitis (disorder)"/>
               </coding>
               <text value="Acute bronchitis"/>
            </code>
            <subject>
               <reference value="urn:uuid:"/>
               <display value="Gastone Farnese"/>
            </subject>
            <onsetDateTime value="2018-04-29"/>
            <abatementDateTime value="2018-05-14"/>
            <asserter>
               <reference value="urn:uuid:"/>
               <display value="Ospedali Riuniti Padova Sud &amp;quot;Madre Teresa di Calcutta&amp;quot;"/>
            </asserter>
         </Condition>
      </resource>
   </entry>
   <entry>
      <fullUrl value="urn:uuid:ef622fad-dd3f-4b0c-8bc5-14ba3fe93e7d"/>
      <resource>
         <Condition>
            <id value="ef622fad-dd3f-4b0c-8bc5-14ba3fe93e7d"/>
            <meta>
               <profile value="http://hl7.org/fhir/uv/ips/StructureDefinition/Condition-uv-ips"/>
            </meta>
            <text>
               <status value="generated"/>
               <div xmlns="http://www.w3.org/1999/xhtml">
                  <table class="hl7__ips">
                     <tr>
                        <td>
                           <span class="grayedout">Acute viral pharyngitis</span>
                        </td>
                        <td>
                           <span class="nb">07-Jul-2016 - 14-Jul-2016</span>
                        </td>
                        <td>
                           <span class="grayedout">inactive</span>
                        </td>
                     </tr>
                  </table>
               </div>
            </text>
            <category>
               <coding>
                  <system value="http://terminology.hl7.org/CodeSystem/condition-category"/>
                  <code value="problem-list-item"/>
                  <display value="Problem List Item"/>
               </coding>
            </category>
            <code>
               <coding>
                  <system value="http://snomed.info/sct"/>
                  <code value="195662009"/>
                  <display value="Acute viral pharyngitis (disorder)"/>
               </coding>
               <text value="Acute viral pharyngitis"/>
            </code>
            <subject>
               <reference value="urn:uuid:"/>
               <display value="Gastone Farnese"/>
            </subject>
            <onsetDateTime value="2016-07-07"/>
            <abatementDateTime value="2016-07-14"/>
            <asserter>
               <reference value="urn:uuid:"/>
               <display value="Ospedali Riuniti Padova Sud &amp;quot;Madre Teresa di Calcutta&amp;quot;"/>
            </asserter>
         </Condition>
      </resource>
   </entry>
   <entry>
      <fullUrl value="urn:uuid:cfd3ee26-5b67-4ba2-b832-7bdbd33af474"/>
      <resource>
         <Medication>
            <id value="cfd3ee26-5b67-4ba2-b832-7bdbd33af474"/>
            <meta>
               <profile value="http://hl7.eu/fhir/eps/StructureDefinition/Medication-eu-eps"/>
            </meta>
            <text>
               <status value="generated"/>
               <div xmlns="http://www.w3.org/1999/xhtml">Clopidogrel (as clopidogrel bisulfate) 75 mg oral tablet</div>
            </text>
            <code>
               <coding>
                  <system value="http://snomed.info/sct"/>
                  <code value="783586007"/>
                  <display value="Clopidogrel (as clopidogrel bisulfate) 75 mg oral tablet"/>
               </coding>
               <text value="Clopidogrel (as clopidogrel bisulfate) 75 mg oral tablet"/>
            </code>
         </Medication>
      </resource>
   </entry>
   <entry>
      <fullUrl value="urn:uuid:abb709bd-31c7-48e1-af71-3063620194fc"/>
      <resource>
         <MedicationStatement>
            <id value="abb709bd-31c7-48e1-af71-3063620194fc"/>
            <meta>
               <profile value="http://hl7.eu/fhir/eps/StructureDefinition/MedicationStatement-eu-eps"/>
            </meta>
            <text>
               <status value="generated"/>
               <div xmlns="http://www.w3.org/1999/xhtml">
                  <table class="hl7__ips first25">
                     <tr>
                        <th>Medication</th>
                        <th>Since</th>
                        <th>Form</th>
                        <th>Dosage</th>
                        <th>Reason</th>
                     </tr>
                     <tr>
                        <td>Clopidogrel (as clopidogrel bisulfate) 75 mg oral tablet</td>
                        <td>
                           <span class="nb">2013-11-16</span>
                        </td>
                        <td>-</td>
                        <td>1 tablet (75 mg) once daily</td>
                        <td>-</td>
                     </tr>
                  </table>
               </div>
            </text>
            <status value="active"/>
            <medicationReference>
               <reference value="urn:uuid:cfd3ee26-5b67-4ba2-b832-7bdbd33af474"/>
               <display value="Clopidogrel (as clopidogrel bisulfate) 75 mg oral tablet"/>
            </medicationReference>
            <subject>
               <reference value="urn:uuid:96c4723f-1c51-44af-a4c5-76b8e6962d45"/>
               <display value="Gastone Farnese"/>
            </subject>
            <effectivePeriod>
               <start value="2013-11-16"/>
            </effectivePeriod>
            <dosage>
               <text value="1 tablet (75 mg) once daily"/>
               <timing>
                  <repeat>
                     <frequency value="1"/>
                     <period value="1"/>
                     <periodUnit value="d"/>
                  </repeat>
               </timing>
               <asNeededBoolean value="false"/>
               <doseAndRate>
                  <doseQuantity>
                     <value value="1"/>
                     <unit value="{tbl} (75 mg)"/>
                     <system value="$ucum"/>
                     <code value="{tbl}"/>
                  </doseQuantity>
               </doseAndRate>
            </dosage>
         </MedicationStatement>
      </resource>
   </entry>
   <entry>
      <fullUrl value="urn:uuid:6e581b5b-914c-48b4-a8f9-d47d04f5c06f"/>
      <resource>
         <Medication>
            <id value="6e581b5b-914c-48b4-a8f9-d47d04f5c06f"/>
            <meta>
               <profile value="http://hl7.eu/fhir/eps/StructureDefinition/Medication-eu-eps"/>
            </meta>
            <text>
               <status value="generated"/>
               <div xmlns="http://www.w3.org/1999/xhtml">Simvastatin 20 mg oral tablet</div>
            </text>
            <code>
               <coding>
                  <system value="http://snomed.info/sct"/>
                  <code value="319997009"/>
                  <display value="Simvastatin 20 mg oral tablet"/>
               </coding>
               <text value="Simvastatin 20 mg oral tablet"/>
            </code>
         </Medication>
      </resource>
   </entry>
   <entry>
      <fullUrl value="urn:uuid:1df88fd1-247e-48f2-adfd-c269faf47647"/>
      <resource>
         <MedicationStatement>
            <id value="1df88fd1-247e-48f2-adfd-c269faf47647"/>
            <meta>
               <profile value="http://hl7.eu/fhir/eps/StructureDefinition/MedicationStatement-eu-eps"/>
            </meta>
            <text>
               <status value="generated"/>
               <div xmlns="http://www.w3.org/1999/xhtml">
                  <table class="hl7__ips first25">
                     <tr>
                        <th>Medication</th>
                        <th>Since</th>
                        <th>Form</th>
                        <th>Dosage</th>
                        <th>Reason</th>
                     </tr>
                     <tr>
                        <td>Simvastatin 20 mg oral tablet</td>
                        <td>
                           <span class="nb">2013-11-16</span>
                        </td>
                        <td>-</td>
                        <td>1 tablet (20 mg) by mouth once daily</td>
                        <td>-</td>
                     </tr>
                  </table>
               </div>
            </text>
            <status value="active"/>
            <medicationReference>
               <reference value="urn:uuid:6e581b5b-914c-48b4-a8f9-d47d04f5c06f"/>
               <display value="Simvastatin 20 mg oral tablet"/>
            </medicationReference>
            <subject>
               <reference value="urn:uuid:96c4723f-1c51-44af-a4c5-76b8e6962d45"/>
               <display value="Gastone Farnese"/>
            </subject>
            <effectivePeriod>
               <start value="2013-11-16"/>
            </effectivePeriod>
            <dosage>
               <text value="1 tablet (20 mg) by mouth once daily"/>
               <timing>
                  <repeat>
                     <frequency value="1"/>
                     <period value="1"/>
                     <periodUnit value="d"/>
                  </repeat>
               </timing>
               <asNeededBoolean value="false"/>
               <doseAndRate>
                  <doseQuantity>
                     <value value="1"/>
                     <unit value="{tbl} (20 mg)"/>
                     <system value="$ucum"/>
                     <code value="{tbl}"/>
                  </doseQuantity>
               </doseAndRate>
            </dosage>
         </MedicationStatement>
      </resource>
   </entry>
   <entry>
      <fullUrl value="urn:uuid:af1df292-5cda-4b8a-b4f6-c2234be70132"/>
      <resource>
         <Medication>
            <id value="af1df292-5cda-4b8a-b4f6-c2234be70132"/>
            <meta>
               <profile value="http://hl7.eu/fhir/eps/StructureDefinition/Medication-eu-eps"/>
            </meta>
            <text>
               <status value="generated"/>
               <div xmlns="http://www.w3.org/1999/xhtml">Nitroglycerin 400 microgram/actuation sublingual spray</div>
            </text>
            <code>
               <coding>
                  <system value="http://snomed.info/sct"/>
                  <code value="425176000"/>
                  <display value="Nitroglycerin 400 microgram/actuation sublingual spray"/>
               </coding>
               <text value="Nitroglycerin 400 microgram/actuation sublingual spray"/>
            </code>
         </Medication>
      </resource>
   </entry>
   <entry>
      <fullUrl value="urn:uuid:e6810db0-f0f7-4b43-abc1-4de31b1bf688"/>
      <resource>
         <MedicationStatement>
            <id value="e6810db0-f0f7-4b43-abc1-4de31b1bf688"/>
            <meta>
               <profile value="http://hl7.eu/fhir/eps/StructureDefinition/MedicationStatement-eu-eps"/>
            </meta>
            <text>
               <status value="generated"/>
               <div xmlns="http://www.w3.org/1999/xhtml">
                  <table class="hl7__ips first25">
                     <tr>
                        <th>Medication</th>
                        <th>Since</th>
                        <th>Form</th>
                        <th>Dosage</th>
                        <th>Reason</th>
                     </tr>
                     <tr>
                        <td>Nitroglycerin 400 microgram/actuation sublingual spray</td>
                        <td>
                           <span class="nb">2013-11-16</span>
                        </td>
                        <td>-</td>
                        <td>400 micrograms (1 spray) sublingually as needed for chest pain, may repeat every 5 minutes as needed, up to 3 sprays in 15 minutes</td>
                        <td>-</td>
                     </tr>
                  </table>
               </div>
            </text>
            <status value="active"/>
            <medicationReference>
               <reference value="urn:uuid:af1df292-5cda-4b8a-b4f6-c2234be70132"/>
               <display value="Nitroglycerin 400 microgram/actuation sublingual spray"/>
            </medicationReference>
            <subject>
               <reference value="urn:uuid:96c4723f-1c51-44af-a4c5-76b8e6962d45"/>
               <display value="Gastone Farnese"/>
            </subject>
            <effectivePeriod>
               <start value="2013-11-16"/>
            </effectivePeriod>
            <dosage>
               <text value="400 micrograms (1 spray) sublingually as needed for chest pain, may repeat every 5 minutes as needed, up to 3 sprays in 15 minutes"/>
               <timing>
                  <repeat>
                     <frequency value="1"/>
                     <period value="5"/>
                     <periodUnit value="min"/>
                  </repeat>
               </timing>
               <asNeededBoolean value="true"/>
               <doseAndRate>
                  <doseQuantity>
                     <value value="400"/>
                     <unit value="mcg"/>
                     <system value="$ucum"/>
                     <code value="mcg"/>
                  </doseQuantity>
               </doseAndRate>
            </dosage>
         </MedicationStatement>
      </resource>
   </entry>
   <entry>
      <fullUrl value="urn:uuid:29349b59-67e2-4bcb-8d42-2c11c201b635"/>
      <resource>
         <Medication>
            <id value="29349b59-67e2-4bcb-8d42-2c11c201b635"/>
            <meta>
               <profile value="http://hl7.eu/fhir/eps/StructureDefinition/Medication-eu-eps"/>
            </meta>
            <text>
               <status value="generated"/>
               <div xmlns="http://www.w3.org/1999/xhtml">Metoprolol tartrate (as metoprolol succinate) 100 mg prolonged-release oral tablet</div>
            </text>
            <code>
               <coding>
                  <system value="http://snomed.info/sct"/>
                  <code value="879980009"/>
                  <display value="Metoprolol tartrate (as metoprolol succinate) 100 mg prolonged-release oral tablet"/>
               </coding>
               <text value="Metoprolol tartrate (as metoprolol succinate) 100 mg prolonged-release oral tablet"/>
            </code>
         </Medication>
      </resource>
   </entry>
   <entry>
      <fullUrl value="urn:uuid:39b93cdb-ef45-4c47-8c9b-9729ba624267"/>
      <resource>
         <MedicationStatement>
            <id value="39b93cdb-ef45-4c47-8c9b-9729ba624267"/>
            <meta>
               <profile value="http://hl7.eu/fhir/eps/StructureDefinition/MedicationStatement-eu-eps"/>
            </meta>
            <text>
               <status value="generated"/>
               <div xmlns="http://www.w3.org/1999/xhtml">
                  <table class="hl7__ips first25">
                     <tr>
                        <th>Medication</th>
                        <th>Since</th>
                        <th>Form</th>
                        <th>Dosage</th>
                        <th>Reason</th>
                     </tr>
                     <tr>
                        <td>Metoprolol tartrate (as metoprolol succinate) 100 mg prolonged-release oral tablet</td>
                        <td>
                           <span class="nb">2013-11-16</span>
                        </td>
                        <td>-</td>
                        <td>1 tablet (100 mg) once daily</td>
                        <td>-</td>
                     </tr>
                  </table>
               </div>
            </text>
            <status value="active"/>
            <medicationReference>
               <reference value="urn:uuid:29349b59-67e2-4bcb-8d42-2c11c201b635"/>
               <display value="Metoprolol tartrate (as metoprolol succinate) 100 mg prolonged-release oral tablet"/>
            </medicationReference>
            <subject>
               <reference value="urn:uuid:96c4723f-1c51-44af-a4c5-76b8e6962d45"/>
               <display value="Gastone Farnese"/>
            </subject>
            <effectivePeriod>
               <start value="2013-11-16"/>
            </effectivePeriod>
            <dosage>
               <text value="1 tablet (100 mg) once daily"/>
               <timing>
                  <repeat>
                     <frequency value="1"/>
                     <period value="1"/>
                     <periodUnit value="d"/>
                  </repeat>
               </timing>
               <asNeededBoolean value="false"/>
               <doseAndRate>
                  <doseQuantity>
                     <value value="1"/>
                     <unit value="{tbl} (100 mg)"/>
                     <system value="$ucum"/>
                     <code value="{tbl}"/>
                  </doseQuantity>
               </doseAndRate>
            </dosage>
         </MedicationStatement>
      </resource>
   </entry>
   <entry>
      <fullUrl value="urn:uuid:cf896eed-2341-481f-94a9-7c935a125ce5"/>
      <resource>
         <Immunization>
            <id value="cf896eed-2341-481f-94a9-7c935a125ce5"/>
            <meta>
               <profile value="http://hl7.org/fhir/uv/ips/StructureDefinition/Immunization-uv-ips"/>
            </meta>
            <text>
               <status value="generated"/>
               <div xmlns="http://www.w3.org/1999/xhtml">
                  <table class="hl7__ips">
                     <tr>
                        <td>Influenza virus antigen only vaccine product</td>
                        <td>
                           <span class="nb">11-Jan-2025</span>
                        </td>
                     </tr>
                  </table>
               </div>
            </text>
            <status value="completed"/>
            <vaccineCode>
               <coding>
                  <system value="http://snomed.info/sct"/>
                  <code value="1181000221105"/>
                  <display value="Vaccine product containing Influenza virus antigen"/>
               </coding>
               <coding>
                  <system value="http://www.whocc.no/atc"/>
                  <code value="J07BB02"/>
                  <display value="Influenza, inactivated, split virus"/>
               </coding>
               <text value="Influenza virus antigen only vaccine product"/>
            </vaccineCode>
            <patient>
               <reference value="urn:uuid:96c4723f-1c51-44af-a4c5-76b8e6962d45"/>
               <display value="Gastone Farnese"/>
            </patient>
            <occurrenceDateTime value="2025-01-11"/>
            <lotNumber value="OF-CVuGp4X"/>
            <expirationDate value="2025-11-29"/>
            <site>
               <coding>
                  <system value="http://snomed.info/sct"/>
                  <code value="244979005"/>
                  <display value="Entire muscle of upper arm"/>
               </coding>
               <text value="Entire muscle of upper arm"/>
            </site>
            <route>
               <coding>
                  <system value="http://snomed.info/sct"/>
                  <code value="78421000"/>
                  <display value="Intramuscular route"/>
               </coding>
               <text value="Intramuscular route"/>
            </route>
         </Immunization>
      </resource>
   </entry>
   <entry>
      <fullUrl value="urn:uuid:96a5090a-d814-41a9-81b9-661cfbd69406"/>
      <resource>
         <Immunization>
            <id value="96a5090a-d814-41a9-81b9-661cfbd69406"/>
            <meta>
               <profile value="http://hl7.org/fhir/uv/ips/StructureDefinition/Immunization-uv-ips"/>
            </meta>
            <text>
               <status value="generated"/>
               <div xmlns="http://www.w3.org/1999/xhtml">
                  <table class="hl7__ips">
                     <tr>
                        <td>SARS-CoV-2 mRNA vaccine</td>
                        <td>
                           <span class="nb">10-Apr-2021</span>
                        </td>
                     </tr>
                  </table>
               </div>
            </text>
            <status value="completed"/>
            <vaccineCode>
               <coding>
                  <system value="http://snomed.info/sct"/>
                  <code value="1119349007"/>
                  <display value="Vaccine product containing SARS-CoV-2 mRNA"/>
               </coding>
               <coding>
                  <system value="http://www.whocc.no/atc"/>
                  <code value="J07BX03"/>
                  <display value="COVID-19 mRNA vaccines"/>
               </coding>
               <text value="SARS-CoV-2 mRNA vaccine"/>
            </vaccineCode>
            <patient>
               <reference value="urn:uuid:96c4723f-1c51-44af-a4c5-76b8e6962d45"/>
               <display value="Gastone Farnese"/>
            </patient>
            <occurrenceDateTime value="2021-04-10"/>
            <lotNumber value="EZ-kjrnd0Ma3"/>
            <expirationDate value="2022-01-03"/>
            <site>
               <coding>
                  <system value="http://snomed.info/sct"/>
                  <code value="244979005"/>
                  <display value="Entire muscle of upper arm"/>
               </coding>
               <text value="Entire muscle of upper arm"/>
            </site>
            <route>
               <coding>
                  <system value="http://snomed.info/sct"/>
                  <code value="78421000"/>
                  <display value="Intramuscular route"/>
               </coding>
               <text value="Intramuscular route"/>
            </route>
         </Immunization>
      </resource>
   </entry>
   <entry>
      <fullUrl value="urn:uuid:e0ebfc7b-62ce-4575-aa63-17d98be0f96b"/>
      <resource>
         <Immunization>
            <id value="e0ebfc7b-62ce-4575-aa63-17d98be0f96b"/>
            <meta>
               <profile value="http://hl7.org/fhir/uv/ips/StructureDefinition/Immunization-uv-ips"/>
            </meta>
            <text>
               <status value="generated"/>
               <div xmlns="http://www.w3.org/1999/xhtml">
                  <table class="hl7__ips">
                     <tr>
                        <td>Clostridium tetani toxoid antigen adsorbed only vaccine product</td>
                        <td>
                           <span class="nb">02-Dec-2017</span>
                        </td>
                     </tr>
                  </table>
               </div>
            </text>
            <status value="completed"/>
            <vaccineCode>
               <coding>
                  <system value="http://snomed.info/sct"/>
                  <code value="777725002"/>
                  <display value="Vaccine product containing only Clostridium tetani toxoid antigen adsorbed"/>
               </coding>
               <coding>
                  <system value="http://www.whocc.no/atc"/>
                  <code value="J07AM51"/>
                  <display value="Diphtheria-tetanus vaccines, adult type"/>
               </coding>
               <text value="Clostridium tetani toxoid antigen adsorbed only vaccine product"/>
            </vaccineCode>
            <patient>
               <reference value="urn:uuid:96c4723f-1c51-44af-a4c5-76b8e6962d45"/>
               <display value="Gastone Farnese"/>
            </patient>
            <occurrenceDateTime value="2017-12-02"/>
            <lotNumber value="YN-WdDJSIWPJ"/>
            <expirationDate value="2018-04-28"/>
            <site>
               <coding>
                  <system value="http://snomed.info/sct"/>
                  <code value="244979005"/>
                  <display value="Entire muscle of upper arm"/>
               </coding>
               <text value="Entire muscle of upper arm"/>
            </site>
            <route>
               <coding>
                  <system value="http://snomed.info/sct"/>
                  <code value="78421000"/>
                  <display value="Intramuscular route"/>
               </coding>
               <text value="Intramuscular route"/>
            </route>
         </Immunization>
      </resource>
   </entry>
   <entry>
      <fullUrl value="urn:uuid:e8720237-06c5-44ce-bee9-c40302fd71b2"/>
      <resource>
         <AllergyIntolerance>
            <id value="e8720237-06c5-44ce-bee9-c40302fd71b2"/>
            <meta>
               <profile value="http://hl7.eu/fhir/eps/StructureDefinition/allergyIntolerance-eu-eps"/>
            </meta>
            <text>
               <status value="generated"/>
               <div xmlns="http://www.w3.org/1999/xhtml">
                  <table class="hl7__ips">
                     <tr>
                        <th>Allergy/Intolerance</th>
                        <th>Onset Date</th>
                        <th>Status</th>
                        <th>Type</th>
                        <th>Reaction</th>
                     </tr>
                     <tr>
                        <td>Vaccine product containing only Clostridium tetani toxoid antigen adsorbed</td>
                        <td>?</td>
                        <td>active</td>
                        <td>?</td>
                        <td/>
                     </tr>
                  </table>
               </div>
            </text>
            <clinicalStatus>
               <coding>
                  <system value="http://terminology.hl7.org/CodeSystem/allergyintolerance-clinical"/>
                  <code value="active"/>
               </coding>
            </clinicalStatus>
            <verificationStatus>
               <coding>
                  <system value="http://terminology.hl7.org/CodeSystem/allergyintolerance-verification"/>
                  <code value="confirmed"/>
               </coding>
            </verificationStatus>
            <code>
               <coding>
                  <system value="http://snomed.info/sct"/>
                  <code value="777725002"/>
                  <display value="Vaccine product containing only Clostridium tetani toxoid antigen adsorbed"/>
               </coding>
               <text value="Vaccine product containing only Clostridium tetani toxoid antigen adsorbed"/>
            </code>
            <patient>
               <reference value="urn:uuid:96c4723f-1c51-44af-a4c5-76b8e6962d45"/>
               <display value="Gastone Farnese"/>
            </patient>
            <onsetDateTime>
               <extension url="http://hl7.org/fhir/StructureDefinition/data-absent-reason">
                  <valueCode value="unknown"/>
               </extension>
            </onsetDateTime>
         </AllergyIntolerance>
      </resource>
   </entry>
   <entry>
      <fullUrl value="urn:uuid:29c129c6-20f1-43b8-b849-22eda362ae2e"/>
      <resource>
         <CarePlan>
            <id value="29c129c6-20f1-43b8-b849-22eda362ae2e"/>
            <text>
               <status value="generated"/>
               <div xmlns="http://www.w3.org/1999/xhtml">
                  <table class="hl7__ips first25">
                     <tr>
                        <th>Active Planned Care / Goals</th>
                        <th>Start Date</th>
                        <th>Reason</th>
                     </tr>
                     <tr>
                        <td>Weight management program</td>
                        <td>
                           <span class="nb">15-Jul-1951</span>
                        </td>
                        <td>-</td>
                     </tr>
                  </table>
               </div>
            </text>
            <status value="active"/>
            <intent value="plan"/>
            <category>
               <coding>
                  <system value="http://terminology.hl7.org/CodeSystem/care-plan-category"/>
                  <code value="assess-plan"/>
                  <display value="Assessment and Plan"/>
               </coding>
            </category>
            <subject>
               <reference value="urn:uuid:96c4723f-1c51-44af-a4c5-76b8e6962d45"/>
               <display value="Gastone Farnese"/>
            </subject>
            <period>
               <start value="1951-07-15"/>
            </period>
            <activity>
               <detail>
                  <kind value="Appointment"/>
                  <code>
                     <coding>
                        <system value="http://snomed.info/sct"/>
                        <code value="718361005"/>
                        <display value="Weight management program (regime/therapy)"/>
                     </coding>
                  </code>
                  <status value="unknown"/>
                  <description value="Weight management program"/>
               </detail>
            </activity>
         </CarePlan>
      </resource>
   </entry>
   <entry>
      <fullUrl value="urn:uuid:27cca9b4-a2a0-499f-a415-c1f0d332d991"/>
      <resource>
         <ImmunizationRecommendation>
            <id value="27cca9b4-a2a0-499f-a415-c1f0d332d991"/>
            <text>
               <status value="generated"/>
               <div xmlns="http://www.w3.org/1999/xhtml">
                  <table class="hl7__ips">
                     <tr>
                        <td>Vaccine product containing only Influenza virus antigen (medicinal product)</td>
                        <td>
                           <span class="nb">01-Oct-2025</span>
                        </td>
                        <td>Annual seasonal influenza vaccination</td>
                     </tr>
                  </table>
               </div>
            </text>
            <patient>
               <reference value="urn:uuid:96c4723f-1c51-44af-a4c5-76b8e6962d45"/>
               <display value="Gastone Farnese"/>
            </patient>
            <date value="2025-10-22"/>
            <recommendation>
               <vaccineCode>
                  <coding>
                     <system value="http://snomed.info/sct"/>
                     <code value="1181000221105"/>
                     <display value="Vaccine product containing only Influenza virus antigen (medicinal product)"/>
                  </coding>
               </vaccineCode>
               <targetDisease>
                  <coding>
                     <system value="http://snomed.info/sct"/>
                     <code value="6142004"/>
                     <display value="Influenza (disorder)"/>
                  </coding>
               </targetDisease>
               <forecastStatus>
                  <coding>
                     <system value="http://terminology.hl7.org/CodeSystem/immunization-recommendation-status"/>
                     <code value="due"/>
                     <display value="Due"/>
                  </coding>
               </forecastStatus>
               <dateCriterion>
                  <code>
                     <coding>
                        <system value="http://loinc.org"/>
                        <code value="30980-7"/>
                        <display value="Date vaccine due"/>
                     </coding>
                  </code>
                  <value value="2025-10-01"/>
               </dateCriterion>
               <series value="Annual seasonal influenza vaccination"/>
            </recommendation>
         </ImmunizationRecommendation>
      </resource>
   </entry>
   <entry>
      <fullUrl value="urn:uuid:baa0ff04-89f0-45b7-8dd4-5d57d3a1b525"/>
      <resource>
         <Observation>
            <id value="baa0ff04-89f0-45b7-8dd4-5d57d3a1b525"/>
            <meta>
               <profile value="http://hl7.org/fhir/StructureDefinition/vitalsigns"/>
            </meta>
            <text>
               <status value="generated"/>
               <div xmlns="http://www.w3.org/1999/xhtml">
                  <table class="hl7__ips">
                     <tr>
                        <th>Vital Sign</th>
                        <th>Date</th>
                        <th>Measurement</th>
                     </tr>
                     <tr>
                        <td>Body Height</td>
                        <td>11-Jan-2025</td>
                        <td>172.9 cm</td>
                     </tr>
                  </table>
               </div>
            </text>
            <status value="final"/>
            <category>
               <coding>
                  <system value="http://terminology.hl7.org/CodeSystem/observation-category"/>
                  <code value="vital-signs"/>
                  <display value="Vital Signs"/>
               </coding>
            </category>
            <code>
               <coding>
                  <system value="http://loinc.org"/>
                  <code value="$8302-2"/>
                  <display value="Body Height"/>
               </coding>
            </code>
            <subject>
               <reference value="urn:uuid:96c4723f-1c51-44af-a4c5-76b8e6962d45"/>
               <display value="Gastone Farnese"/>
            </subject>
            <effectiveDateTime value="2025-01-11"/>
            <valueQuantity>
               <value value="172.9"/>
               <unit value="cm"/>
               <code value="cm"/>
            </valueQuantity>
         </Observation>
      </resource>
   </entry>
   <entry>
      <fullUrl value="urn:uuid:3e5ebd82-ffc6-4854-aa59-38430b35028b"/>
      <resource>
         <Observation>
            <id value="3e5ebd82-ffc6-4854-aa59-38430b35028b"/>
            <meta>
               <profile value="http://hl7.org/fhir/StructureDefinition/vitalsigns"/>
            </meta>
            <text>
               <status value="generated"/>
               <div xmlns="http://www.w3.org/1999/xhtml">
                  <table class="hl7__ips">
                     <tr>
                        <th>Vital Sign</th>
                        <th>Date</th>
                        <th>Measurement</th>
                     </tr>
                     <tr>
                        <td>Pain severity - 0-10 verbal numeric rating [Score] - Reported</td>
                        <td>11-Jan-2025</td>
                        <td>1 {score}</td>
                     </tr>
                  </table>
               </div>
            </text>
            <status value="final"/>
            <category>
               <coding>
                  <system value="http://terminology.hl7.org/CodeSystem/observation-category"/>
                  <code value="vital-signs"/>
                  <display value="Vital Signs"/>
               </coding>
            </category>
            <code>
               <coding>
                  <system value="http://loinc.org"/>
                  <code value="$72514-3"/>
                  <display value="Pain severity - 0-10 verbal numeric rating [Score] - Reported"/>
               </coding>
            </code>
            <subject>
               <reference value="urn:uuid:96c4723f-1c51-44af-a4c5-76b8e6962d45"/>
               <display value="Gastone Farnese"/>
            </subject>
            <effectiveDateTime value="2025-01-11"/>
            <valueQuantity>
               <value value="1"/>
               <unit value="{score}"/>
               <code value="{score}"/>
            </valueQuantity>
         </Observation>
      </resource>
   </entry>
   <entry>
      <fullUrl value="urn:uuid:a30fb9bd-442a-40bf-8cd5-91ce519a663f"/>
      <resource>
         <Observation>
            <id value="a30fb9bd-442a-40bf-8cd5-91ce519a663f"/>
            <meta>
               <profile value="http://hl7.org/fhir/StructureDefinition/vitalsigns"/>
            </meta>
            <text>
               <status value="generated"/>
               <div xmlns="http://www.w3.org/1999/xhtml">
                  <table class="hl7__ips">
                     <tr>
                        <th>Vital Sign</th>
                        <th>Date</th>
                        <th>Measurement</th>
                     </tr>
                     <tr>
                        <td>Body Weight</td>
                        <td>11-Jan-2025</td>
                        <td>98.8 kg</td>
                     </tr>
                  </table>
               </div>
            </text>
            <status value="final"/>
            <category>
               <coding>
                  <system value="http://terminology.hl7.org/CodeSystem/observation-category"/>
                  <code value="vital-signs"/>
                  <display value="Vital Signs"/>
               </coding>
            </category>
            <code>
               <coding>
                  <system value="http://loinc.org"/>
                  <code value="$29463-7"/>
                  <display value="Body Weight"/>
               </coding>
            </code>
            <subject>
               <reference value="urn:uuid:96c4723f-1c51-44af-a4c5-76b8e6962d45"/>
               <display value="Gastone Farnese"/>
            </subject>
            <effectiveDateTime value="2025-01-11"/>
            <valueQuantity>
               <value value="98.8"/>
               <unit value="kg"/>
               <code value="kg"/>
            </valueQuantity>
         </Observation>
      </resource>
   </entry>
   <entry>
      <fullUrl value="urn:uuid:59a2648c-8419-4884-bb12-3b415a04ff0d"/>
      <resource>
         <Observation>
            <id value="59a2648c-8419-4884-bb12-3b415a04ff0d"/>
            <meta>
               <profile value="http://hl7.org/fhir/StructureDefinition/vitalsigns"/>
            </meta>
            <text>
               <status value="generated"/>
               <div xmlns="http://www.w3.org/1999/xhtml">
                  <table class="hl7__ips">
                     <tr>
                        <th>Vital Sign</th>
                        <th>Date</th>
                        <th>Measurement</th>
                     </tr>
                     <tr>
                        <td>Body mass index (BMI) [Ratio]</td>
                        <td>11-Jan-2025</td>
                        <td>33.1 kg/m2</td>
                     </tr>
                  </table>
               </div>
            </text>
            <status value="final"/>
            <category>
               <coding>
                  <system value="http://terminology.hl7.org/CodeSystem/observation-category"/>
                  <code value="vital-signs"/>
                  <display value="Vital Signs"/>
               </coding>
            </category>
            <code>
               <coding>
                  <system value="http://loinc.org"/>
                  <code value="$39156-5"/>
                  <display value="Body mass index (BMI) [Ratio]"/>
               </coding>
            </code>
            <subject>
               <reference value="urn:uuid:96c4723f-1c51-44af-a4c5-76b8e6962d45"/>
               <display value="Gastone Farnese"/>
            </subject>
            <effectiveDateTime value="2025-01-11"/>
            <valueQuantity>
               <value value="33.1"/>
               <unit value="kg/m2"/>
               <code value="kg/m2"/>
            </valueQuantity>
         </Observation>
      </resource>
   </entry>
   <entry>
      <fullUrl value="urn:uuid:e1e16812-8a80-41e4-a5ba-2b9884466eb6"/>
      <resource>
         <Observation>
            <id value="e1e16812-8a80-41e4-a5ba-2b9884466eb6"/>
            <meta>
               <profile value="http://hl7.org/fhir/StructureDefinition/vitalsigns"/>
            </meta>
            <text>
               <status value="generated"/>
               <div xmlns="http://www.w3.org/1999/xhtml">
                  <table class="hl7__ips">
                     <tr>
                        <th>Vital Sign</th>
                        <th>Date</th>
                        <th>Measurement</th>
                     </tr>
                     <tr>
                        <td>Diastolic Blood Pressure</td>
                        <td>11-Jan-2025</td>
                        <td>59 mm[Hg]</td>
                     </tr>
                  </table>
               </div>
            </text>
            <status value="final"/>
            <category>
               <coding>
                  <system value="http://terminology.hl7.org/CodeSystem/observation-category"/>
                  <code value="vital-signs"/>
                  <display value="Vital Signs"/>
               </coding>
            </category>
            <code>
               <coding>
                  <system value="http://loinc.org"/>
                  <code value="$8462-4"/>
                  <display value="Diastolic Blood Pressure"/>
               </coding>
            </code>
            <subject>
               <reference value="urn:uuid:96c4723f-1c51-44af-a4c5-76b8e6962d45"/>
               <display value="Gastone Farnese"/>
            </subject>
            <effectiveDateTime value="2025-01-11"/>
            <valueQuantity>
               <value value="59"/>
               <unit value="mm[Hg]"/>
               <code value="mm[Hg]"/>
            </valueQuantity>
         </Observation>
      </resource>
   </entry>
   <entry>
      <fullUrl value="urn:uuid:649a9a36-2149-49ba-ac54-df9666b0dd7c"/>
      <resource>
         <Observation>
            <id value="649a9a36-2149-49ba-ac54-df9666b0dd7c"/>
            <meta>
               <profile value="http://hl7.org/fhir/StructureDefinition/vitalsigns"/>
            </meta>
            <text>
               <status value="generated"/>
               <div xmlns="http://www.w3.org/1999/xhtml">
                  <table class="hl7__ips">
                     <tr>
                        <th>Vital Sign</th>
                        <th>Date</th>
                        <th>Measurement</th>
                     </tr>
                     <tr>
                        <td>Systolic Blood Pressure</td>
                        <td>11-Jan-2025</td>
                        <td>84 mm[Hg]</td>
                     </tr>
                  </table>
               </div>
            </text>
            <status value="final"/>
            <category>
               <coding>
                  <system value="http://terminology.hl7.org/CodeSystem/observation-category"/>
                  <code value="vital-signs"/>
                  <display value="Vital Signs"/>
               </coding>
            </category>
            <code>
               <coding>
                  <system value="http://loinc.org"/>
                  <code value="$8480-6"/>
                  <display value="Systolic Blood Pressure"/>
               </coding>
            </code>
            <subject>
               <reference value="urn:uuid:96c4723f-1c51-44af-a4c5-76b8e6962d45"/>
               <display value="Gastone Farnese"/>
            </subject>
            <effectiveDateTime value="2025-01-11"/>
            <valueQuantity>
               <value value="84"/>
               <unit value="mm[Hg]"/>
               <code value="mm[Hg]"/>
            </valueQuantity>
         </Observation>
      </resource>
   </entry>
   <entry>
      <fullUrl value="urn:uuid:0d7aaccf-b265-4109-9136-322c382dd774"/>
      <resource>
         <Observation>
            <id value="0d7aaccf-b265-4109-9136-322c382dd774"/>
            <meta>
               <profile value="http://hl7.org/fhir/StructureDefinition/vitalsigns"/>
            </meta>
            <text>
               <status value="generated"/>
               <div xmlns="http://www.w3.org/1999/xhtml">
                  <table class="hl7__ips">
                     <tr>
                        <th>Vital Sign</th>
                        <th>Date</th>
                        <th>Measurement</th>
                     </tr>
                     <tr>
                        <td>Heart rate</td>
                        <td>11-Jan-2025</td>
                        <td>91 /min</td>
                     </tr>
                  </table>
               </div>
            </text>
            <status value="final"/>
            <category>
               <coding>
                  <system value="http://terminology.hl7.org/CodeSystem/observation-category"/>
                  <code value="vital-signs"/>
                  <display value="Vital Signs"/>
               </coding>
            </category>
            <code>
               <coding>
                  <system value="http://loinc.org"/>
                  <code value="$8867-4"/>
                  <display value="Heart rate"/>
               </coding>
            </code>
            <subject>
               <reference value="urn:uuid:96c4723f-1c51-44af-a4c5-76b8e6962d45"/>
               <display value="Gastone Farnese"/>
            </subject>
            <effectiveDateTime value="2025-01-11"/>
            <valueQuantity>
               <value value="91"/>
               <unit value="/min"/>
               <code value="/min"/>
            </valueQuantity>
         </Observation>
      </resource>
   </entry>
   <entry>
      <fullUrl value="urn:uuid:8308c8f3-6bf3-4165-b4a2-fb43340b5adb"/>
      <resource>
         <Observation>
            <id value="8308c8f3-6bf3-4165-b4a2-fb43340b5adb"/>
            <meta>
               <profile value="http://hl7.org/fhir/StructureDefinition/vitalsigns"/>
            </meta>
            <text>
               <status value="generated"/>
               <div xmlns="http://www.w3.org/1999/xhtml">
                  <table class="hl7__ips">
                     <tr>
                        <th>Vital Sign</th>
                        <th>Date</th>
                        <th>Measurement</th>
                     </tr>
                     <tr>
                        <td>Respiratory rate</td>
                        <td>11-Jan-2025</td>
                        <td>14 /min</td>
                     </tr>
                  </table>
               </div>
            </text>
            <status value="final"/>
            <category>
               <coding>
                  <system value="http://terminology.hl7.org/CodeSystem/observation-category"/>
                  <code value="vital-signs"/>
                  <display value="Vital Signs"/>
               </coding>
            </category>
            <code>
               <coding>
                  <system value="http://loinc.org"/>
                  <code value="$9279-1"/>
                  <display value="Respiratory rate"/>
               </coding>
            </code>
            <subject>
               <reference value="urn:uuid:96c4723f-1c51-44af-a4c5-76b8e6962d45"/>
               <display value="Gastone Farnese"/>
            </subject>
            <effectiveDateTime value="2025-01-11"/>
            <valueQuantity>
               <value value="14"/>
               <unit value="/min"/>
               <code value="/min"/>
            </valueQuantity>
         </Observation>
      </resource>
   </entry>
   <entry>
      <fullUrl value="urn:uuid:639c57fa-1fdd-4f38-9621-32b4e0f07768"/>
      <resource>
         <Observation>
            <id value="639c57fa-1fdd-4f38-9621-32b4e0f07768"/>
            <meta>
               <profile value="http://hl7.org/fhir/StructureDefinition/vitalsigns"/>
            </meta>
            <text>
               <status value="generated"/>
               <div xmlns="http://www.w3.org/1999/xhtml">
                  <table class="hl7__ips">
                     <tr>
                        <th>Vital Sign</th>
                        <th>Date</th>
                        <th>Measurement</th>
                     </tr>
                     <tr>
                        <td>Body temperature</td>
                        <td>07-May-2024</td>
                        <td>37.2 Cel</td>
                     </tr>
                  </table>
               </div>
            </text>
            <status value="final"/>
            <category>
               <coding>
                  <system value="http://terminology.hl7.org/CodeSystem/observation-category"/>
                  <code value="vital-signs"/>
                  <display value="Vital Signs"/>
               </coding>
            </category>
            <code>
               <coding>
                  <system value="http://loinc.org"/>
                  <code value="$8310-5"/>
                  <display value="Body temperature"/>
               </coding>
            </code>
            <subject>
               <reference value="urn:uuid:96c4723f-1c51-44af-a4c5-76b8e6962d45"/>
               <display value="Gastone Farnese"/>
            </subject>
            <effectiveDateTime value="2024-05-07"/>
            <valueQuantity>
               <value value="37.2"/>
               <unit value="Cel"/>
               <code value="Cel"/>
            </valueQuantity>
         </Observation>
      </resource>
   </entry>
   <entry>
      <fullUrl value="urn:uuid:fdd9a7e2-1b50-4e92-a339-2737f95fc676"/>
      <resource>
         <Observation>
            <id value="fdd9a7e2-1b50-4e92-a339-2737f95fc676"/>
            <meta>
               <profile value="http://hl7.eu/fhir/laboratory/StructureDefinition/Observation-resultslab-eu-lab"/>
            </meta>
            <text>
               <status value="generated"/>
               <div xmlns="http://www.w3.org/1999/xhtml">
                  <table class="hl7__eu__lab__report">
                     <tr>
                        <th>Test</th>
                        <th>07-Jan-2024</th>
                        <th>Reference Range</th>
                        <th>Unit</th>
                     </tr>
                     <tr>
                        <td>Leukocytes [#/volume] in Blood by Automated count</td>
                        <td>3.6</td>
                        <td>3.4 - 10.6</td>
                        <td/>
                        <td>10*3/uL</td>
                     </tr>
                  </table>
               </div>
            </text>
            <status value="final"/>
            <category>
               <coding>
                  <system value="http://terminology.hl7.org/CodeSystem/observation-category"/>
                  <code value="laboratory"/>
               </coding>
            </category>
            <code>
               <coding>
                  <system value="http://loinc.org"/>
                  <code value="6690-2"/>
                  <display value="Leukocytes [#/volume] in Blood by Automated count"/>
               </coding>
               <text value="Leukocytes [#/volume] in Blood by Automated count"/>
            </code>
            <subject>
               <reference value="urn:uuid:96c4723f-1c51-44af-a4c5-76b8e6962d45"/>
               <display value="Gastone Farnese"/>
            </subject>
            <effectiveDateTime value="2024-01-06T23:10:08Z"/>
            <performer>
               <display value="The Central European Lab"/>
            </performer>
            <valueQuantity>
               <value value="3.6"/>
               <unit value="10*3/uL"/>
               <system value="http://unitsofmeasure.org"/>
               <code value="10*3/uL"/>
            </valueQuantity>
            <referenceRange>
               <low>
                  <value value="3.4"/>
                  <system value="http://unitsofmeasure.org"/>
                  <code value="10*3/uL"/>
               </low>
            </referenceRange>
            <referenceRange>
               <high>
                  <value value="10.6"/>
                  <system value="http://unitsofmeasure.org"/>
                  <code value="10*3/uL"/>
               </high>
            </referenceRange>
         </Observation>
      </resource>
   </entry>
   <entry>
      <fullUrl value="urn:uuid:97a9202a-f950-450c-a6ad-b854b564cbf5"/>
      <resource>
         <Observation>
            <id value="97a9202a-f950-450c-a6ad-b854b564cbf5"/>
            <meta>
               <profile value="http://hl7.eu/fhir/laboratory/StructureDefinition/Observation-resultslab-eu-lab"/>
            </meta>
            <text>
               <status value="generated"/>
               <div xmlns="http://www.w3.org/1999/xhtml">
                  <table class="hl7__eu__lab__report">
                     <tr>
                        <th>Test</th>
                        <th>07-Jan-2024</th>
                        <th>Reference Range</th>
                        <th>Unit</th>
                     </tr>
                     <tr>
                        <td>Erythrocytes [#/volume] in Blood by Automated count</td>
                        <td>4.5</td>
                        <td>4.2 - 6.2</td>
                        <td/>
                        <td>10*6/uL</td>
                     </tr>
                  </table>
               </div>
            </text>
            <status value="final"/>
            <category>
               <coding>
                  <system value="http://terminology.hl7.org/CodeSystem/observation-category"/>
                  <code value="laboratory"/>
               </coding>
            </category>
            <code>
               <coding>
                  <system value="http://loinc.org"/>
                  <code value="789-8"/>
                  <display value="Erythrocytes [#/volume] in Blood by Automated count"/>
               </coding>
               <text value="Erythrocytes [#/volume] in Blood by Automated count"/>
            </code>
            <subject>
               <reference value="urn:uuid:96c4723f-1c51-44af-a4c5-76b8e6962d45"/>
               <display value="Gastone Farnese"/>
            </subject>
            <effectiveDateTime value="2024-01-06T23:10:08Z"/>
            <performer>
               <display value="The Central European Lab"/>
            </performer>
            <valueQuantity>
               <value value="4.5"/>
               <unit value="10*6/uL"/>
               <system value="http://unitsofmeasure.org"/>
               <code value="10*6/uL"/>
            </valueQuantity>
            <referenceRange>
               <low>
                  <value value="4.2"/>
                  <system value="http://unitsofmeasure.org"/>
                  <code value="10*6/uL"/>
               </low>
            </referenceRange>
            <referenceRange>
               <high>
                  <value value="6.2"/>
                  <system value="http://unitsofmeasure.org"/>
                  <code value="10*6/uL"/>
               </high>
            </referenceRange>
         </Observation>
      </resource>
   </entry>
   <entry>
      <fullUrl value="urn:uuid:1b4cc75b-e875-4836-a2e4-113dbe5a2526"/>
      <resource>
         <Observation>
            <id value="1b4cc75b-e875-4836-a2e4-113dbe5a2526"/>
            <meta>
               <profile value="http://hl7.eu/fhir/laboratory/StructureDefinition/Observation-resultslab-eu-lab"/>
            </meta>
            <text>
               <status value="generated"/>
               <div xmlns="http://www.w3.org/1999/xhtml">
                  <table class="hl7__eu__lab__report">
                     <tr>
                        <th>Test</th>
                        <th>07-Jan-2024</th>
                        <th>Reference Range</th>
                        <th>Unit</th>
                     </tr>
                     <tr>
                        <td>Hemoglobin [Mass/volume] in Blood</td>
                        <td>13.1</td>
                        <td>13.8 - 17.5</td>
                        <td>L</td>
                        <td>g/dL</td>
                     </tr>
                  </table>
               </div>
            </text>
            <status value="final"/>
            <category>
               <coding>
                  <system value="http://terminology.hl7.org/CodeSystem/observation-category"/>
                  <code value="laboratory"/>
               </coding>
            </category>
            <code>
               <coding>
                  <system value="http://loinc.org"/>
                  <code value="718-7"/>
                  <display value="Hemoglobin [Mass/volume] in Blood"/>
               </coding>
               <text value="Hemoglobin [Mass/volume] in Blood"/>
            </code>
            <subject>
               <reference value="urn:uuid:96c4723f-1c51-44af-a4c5-76b8e6962d45"/>
               <display value="Gastone Farnese"/>
            </subject>
            <effectiveDateTime value="2024-01-06T23:10:08Z"/>
            <performer>
               <display value="The Central European Lab"/>
            </performer>
            <valueQuantity>
               <value value="13.1"/>
               <unit value="g/dL"/>
               <system value="http://unitsofmeasure.org"/>
               <code value="g/dL"/>
            </valueQuantity>
            <interpretation>
               <coding>
                  <system value="http://terminology.hl7.org/CodeSystem/v3-ObservationInterpretation"/>
                  <code value="L"/>
                  <display value="Low"/>
               </coding>
            </interpretation>
            <referenceRange>
               <low>
                  <value value="13.8"/>
                  <system value="http://unitsofmeasure.org"/>
                  <code value="g/dL"/>
               </low>
            </referenceRange>
            <referenceRange>
               <high>
                  <value value="17.5"/>
                  <system value="http://unitsofmeasure.org"/>
                  <code value="g/dL"/>
               </high>
            </referenceRange>
         </Observation>
      </resource>
   </entry>
   <entry>
      <fullUrl value="urn:uuid:c70ba671-dc02-4012-8d0d-8d1e462dbe6a"/>
      <resource>
         <Observation>
            <id value="c70ba671-dc02-4012-8d0d-8d1e462dbe6a"/>
            <meta>
               <profile value="http://hl7.eu/fhir/laboratory/StructureDefinition/Observation-resultslab-eu-lab"/>
            </meta>
            <text>
               <status value="generated"/>
               <div xmlns="http://www.w3.org/1999/xhtml">
                  <table class="hl7__eu__lab__report">
                     <tr>
                        <th>Test</th>
                        <th>07-Jan-2024</th>
                        <th>Reference Range</th>
                        <th>Unit</th>
                     </tr>
                     <tr>
                        <td>Hematocrit [Volume Fraction] of Blood by Automated count</td>
                        <td>47.7</td>
                        <td>38 - 50</td>
                        <td/>
                        <td>%</td>
                     </tr>
                  </table>
               </div>
            </text>
            <status value="final"/>
            <category>
               <coding>
                  <system value="http://terminology.hl7.org/CodeSystem/observation-category"/>
                  <code value="laboratory"/>
               </coding>
            </category>
            <code>
               <coding>
                  <system value="http://loinc.org"/>
                  <code value="4544-3"/>
                  <display value="Hematocrit [Volume Fraction] of Blood by Automated count"/>
               </coding>
               <text value="Hematocrit [Volume Fraction] of Blood by Automated count"/>
            </code>
            <subject>
               <reference value="urn:uuid:96c4723f-1c51-44af-a4c5-76b8e6962d45"/>
               <display value="Gastone Farnese"/>
            </subject>
            <effectiveDateTime value="2024-01-06T23:10:08Z"/>
            <performer>
               <display value="The Central European Lab"/>
            </performer>
            <valueQuantity>
               <value value="47.7"/>
               <unit value="%"/>
               <system value="http://unitsofmeasure.org"/>
               <code value="%"/>
            </valueQuantity>
            <referenceRange>
               <low>
                  <value value="38"/>
                  <system value="http://unitsofmeasure.org"/>
                  <code value="%"/>
               </low>
            </referenceRange>
            <referenceRange>
               <high>
                  <value value="50"/>
                  <system value="http://unitsofmeasure.org"/>
                  <code value="%"/>
               </high>
            </referenceRange>
         </Observation>
      </resource>
   </entry>
   <entry>
      <fullUrl value="urn:uuid:76985d94-dead-4135-8422-94a68fff03a0"/>
      <resource>
         <Observation>
            <id value="76985d94-dead-4135-8422-94a68fff03a0"/>
            <meta>
               <profile value="http://hl7.eu/fhir/laboratory/StructureDefinition/Observation-resultslab-eu-lab"/>
            </meta>
            <text>
               <status value="generated"/>
               <div xmlns="http://www.w3.org/1999/xhtml">
                  <table class="hl7__eu__lab__report">
                     <tr>
                        <th>Test</th>
                        <th>07-Jan-2024</th>
                        <th>Reference Range</th>
                        <th>Unit</th>
                     </tr>
                     <tr>
                        <td>MCV [Entitic volume] by Automated count</td>
                        <td>94.3</td>
                        <td>76 - 98</td>
                        <td/>
                        <td>fL</td>
                     </tr>
                  </table>
               </div>
            </text>
            <status value="final"/>
            <category>
               <coding>
                  <system value="http://terminology.hl7.org/CodeSystem/observation-category"/>
                  <code value="laboratory"/>
               </coding>
            </category>
            <code>
               <coding>
                  <system value="http://loinc.org"/>
                  <code value="787-2"/>
                  <display value="MCV [Entitic volume] by Automated count"/>
               </coding>
               <text value="MCV [Entitic volume] by Automated count"/>
            </code>
            <subject>
               <reference value="urn:uuid:96c4723f-1c51-44af-a4c5-76b8e6962d45"/>
               <display value="Gastone Farnese"/>
            </subject>
            <effectiveDateTime value="2024-01-06T23:10:08Z"/>
            <performer>
               <display value="The Central European Lab"/>
            </performer>
            <valueQuantity>
               <value value="94.3"/>
               <unit value="fL"/>
               <system value="http://unitsofmeasure.org"/>
               <code value="fL"/>
            </valueQuantity>
            <referenceRange>
               <low>
                  <value value="76"/>
                  <system value="http://unitsofmeasure.org"/>
                  <code value="fL"/>
               </low>
            </referenceRange>
            <referenceRange>
               <high>
                  <value value="98"/>
                  <system value="http://unitsofmeasure.org"/>
                  <code value="fL"/>
               </high>
            </referenceRange>
         </Observation>
      </resource>
   </entry>
   <entry>
      <fullUrl value="urn:uuid:3990efd0-05cf-45c3-a820-4d495dec268a"/>
      <resource>
         <Observation>
            <id value="3990efd0-05cf-45c3-a820-4d495dec268a"/>
            <meta>
               <profile value="http://hl7.eu/fhir/laboratory/StructureDefinition/Observation-resultslab-eu-lab"/>
            </meta>
            <text>
               <status value="generated"/>
               <div xmlns="http://www.w3.org/1999/xhtml">
                  <table class="hl7__eu__lab__report">
                     <tr>
                        <th>Test</th>
                        <th>07-Jan-2024</th>
                        <th>Reference Range</th>
                        <th>Unit</th>
                     </tr>
                     <tr>
                        <td>MCH [Entitic mass] by Automated count</td>
                        <td>27.5</td>
                        <td>27 - 34</td>
                        <td/>
                        <td>pg</td>
                     </tr>
                  </table>
               </div>
            </text>
            <status value="final"/>
            <category>
               <coding>
                  <system value="http://terminology.hl7.org/CodeSystem/observation-category"/>
                  <code value="laboratory"/>
               </coding>
            </category>
            <code>
               <coding>
                  <system value="http://loinc.org"/>
                  <code value="785-6"/>
                  <display value="MCH [Entitic mass] by Automated count"/>
               </coding>
               <text value="MCH [Entitic mass] by Automated count"/>
            </code>
            <subject>
               <reference value="urn:uuid:96c4723f-1c51-44af-a4c5-76b8e6962d45"/>
               <display value="Gastone Farnese"/>
            </subject>
            <effectiveDateTime value="2024-01-06T23:10:08Z"/>
            <performer>
               <display value="The Central European Lab"/>
            </performer>
            <valueQuantity>
               <value value="27.5"/>
               <unit value="pg"/>
               <system value="http://unitsofmeasure.org"/>
               <code value="pg"/>
            </valueQuantity>
            <referenceRange>
               <low>
                  <value value="27"/>
                  <system value="http://unitsofmeasure.org"/>
                  <code value="pg"/>
               </low>
            </referenceRange>
            <referenceRange>
               <high>
                  <value value="34"/>
                  <system value="http://unitsofmeasure.org"/>
                  <code value="pg"/>
               </high>
            </referenceRange>
         </Observation>
      </resource>
   </entry>
   <entry>
      <fullUrl value="urn:uuid:6f65c168-dc80-48ae-97a8-9002d77e92bc"/>
      <resource>
         <Observation>
            <id value="6f65c168-dc80-48ae-97a8-9002d77e92bc"/>
            <meta>
               <profile value="http://hl7.eu/fhir/laboratory/StructureDefinition/Observation-resultslab-eu-lab"/>
            </meta>
            <text>
               <status value="generated"/>
               <div xmlns="http://www.w3.org/1999/xhtml">
                  <table class="hl7__eu__lab__report">
                     <tr>
                        <th>Test</th>
                        <th>07-Jan-2024</th>
                        <th>Reference Range</th>
                        <th>Unit</th>
                     </tr>
                     <tr>
                        <td>MCHC [Mass/volume] by Automated count</td>
                        <td>35.4</td>
                        <td>31 - 37</td>
                        <td/>
                        <td>g/dL</td>
                     </tr>
                  </table>
               </div>
            </text>
            <status value="final"/>
            <category>
               <coding>
                  <system value="http://terminology.hl7.org/CodeSystem/observation-category"/>
                  <code value="laboratory"/>
               </coding>
            </category>
            <code>
               <coding>
                  <system value="http://loinc.org"/>
                  <code value="786-4"/>
                  <display value="MCHC [Mass/volume] by Automated count"/>
               </coding>
               <text value="MCHC [Mass/volume] by Automated count"/>
            </code>
            <subject>
               <reference value="urn:uuid:96c4723f-1c51-44af-a4c5-76b8e6962d45"/>
               <display value="Gastone Farnese"/>
            </subject>
            <effectiveDateTime value="2024-01-06T23:10:08Z"/>
            <performer>
               <display value="The Central European Lab"/>
            </performer>
            <valueQuantity>
               <value value="35.4"/>
               <unit value="g/dL"/>
               <system value="http://unitsofmeasure.org"/>
               <code value="g/dL"/>
            </valueQuantity>
            <referenceRange>
               <low>
                  <value value="31"/>
                  <system value="http://unitsofmeasure.org"/>
                  <code value="g/dL"/>
               </low>
            </referenceRange>
            <referenceRange>
               <high>
                  <value value="37"/>
                  <system value="http://unitsofmeasure.org"/>
                  <code value="g/dL"/>
               </high>
            </referenceRange>
         </Observation>
      </resource>
   </entry>
   <entry>
      <fullUrl value="urn:uuid:f5fa61a1-23a8-46ae-ba39-8a08f60e2967"/>
      <resource>
         <Observation>
            <id value="f5fa61a1-23a8-46ae-ba39-8a08f60e2967"/>
            <meta>
               <profile value="http://hl7.eu/fhir/laboratory/StructureDefinition/Observation-resultslab-eu-lab"/>
            </meta>
            <text>
               <status value="generated"/>
               <div xmlns="http://www.w3.org/1999/xhtml">
                  <table class="hl7__eu__lab__report">
                     <tr>
                        <th>Test</th>
                        <th>07-Jan-2024</th>
                        <th>Reference Range</th>
                        <th>Unit</th>
                     </tr>
                     <tr>
                        <td>Erythrocyte distribution width [Entitic volume] by Automated count</td>
                        <td>44.5</td>
                        <td>36 - 56</td>
                        <td/>
                        <td>fL</td>
                     </tr>
                  </table>
               </div>
            </text>
            <status value="final"/>
            <category>
               <coding>
                  <system value="http://terminology.hl7.org/CodeSystem/observation-category"/>
                  <code value="laboratory"/>
               </coding>
            </category>
            <code>
               <coding>
                  <system value="http://loinc.org"/>
                  <code value="21000-5"/>
                  <display value="Erythrocyte distribution width [Entitic volume] by Automated count"/>
               </coding>
               <text value="Erythrocyte distribution width [Entitic volume] by Automated count"/>
            </code>
            <subject>
               <reference value="urn:uuid:96c4723f-1c51-44af-a4c5-76b8e6962d45"/>
               <display value="Gastone Farnese"/>
            </subject>
            <effectiveDateTime value="2024-01-06T23:10:08Z"/>
            <performer>
               <display value="The Central European Lab"/>
            </performer>
            <valueQuantity>
               <value value="44.5"/>
               <unit value="fL"/>
               <system value="http://unitsofmeasure.org"/>
               <code value="fL"/>
            </valueQuantity>
            <referenceRange>
               <low>
                  <value value="36"/>
                  <system value="http://unitsofmeasure.org"/>
                  <code value="fL"/>
               </low>
            </referenceRange>
            <referenceRange>
               <high>
                  <value value="56"/>
                  <system value="http://unitsofmeasure.org"/>
                  <code value="fL"/>
               </high>
            </referenceRange>
         </Observation>
      </resource>
   </entry>
   <entry>
      <fullUrl value="urn:uuid:80bc7e94-04a2-4936-8726-b6b01851bc77"/>
      <resource>
         <Observation>
            <id value="80bc7e94-04a2-4936-8726-b6b01851bc77"/>
            <meta>
               <profile value="http://hl7.eu/fhir/laboratory/StructureDefinition/Observation-resultslab-eu-lab"/>
            </meta>
            <text>
               <status value="generated"/>
               <div xmlns="http://www.w3.org/1999/xhtml">
                  <table class="hl7__eu__lab__report">
                     <tr>
                        <th>Test</th>
                        <th>07-Jan-2024</th>
                        <th>Reference Range</th>
                        <th>Unit</th>
                     </tr>
                     <tr>
                        <td>Platelets [#/volume] in Blood by Automated count</td>
                        <td>293.3</td>
                        <td>150 - 363</td>
                        <td/>
                        <td>10*3/uL</td>
                     </tr>
                  </table>
               </div>
            </text>
            <status value="final"/>
            <category>
               <coding>
                  <system value="http://terminology.hl7.org/CodeSystem/observation-category"/>
                  <code value="laboratory"/>
               </coding>
            </category>
            <code>
               <coding>
                  <system value="http://loinc.org"/>
                  <code value="777-3"/>
                  <display value="Platelets [#/volume] in Blood by Automated count"/>
               </coding>
               <text value="Platelets [#/volume] in Blood by Automated count"/>
            </code>
            <subject>
               <reference value="urn:uuid:96c4723f-1c51-44af-a4c5-76b8e6962d45"/>
               <display value="Gastone Farnese"/>
            </subject>
            <effectiveDateTime value="2024-01-06T23:10:08Z"/>
            <performer>
               <display value="The Central European Lab"/>
            </performer>
            <valueQuantity>
               <value value="293.3"/>
               <unit value="10*3/uL"/>
               <system value="http://unitsofmeasure.org"/>
               <code value="10*3/uL"/>
            </valueQuantity>
            <referenceRange>
               <low>
                  <value value="150"/>
                  <system value="http://unitsofmeasure.org"/>
                  <code value="10*3/uL"/>
               </low>
            </referenceRange>
            <referenceRange>
               <high>
                  <value value="363"/>
                  <system value="http://unitsofmeasure.org"/>
                  <code value="10*3/uL"/>
               </high>
            </referenceRange>
         </Observation>
      </resource>
   </entry>
   <entry>
      <fullUrl value="urn:uuid:450de69d-fcf1-4ad4-a11a-92df6f03f852"/>
      <resource>
         <Observation>
            <id value="450de69d-fcf1-4ad4-a11a-92df6f03f852"/>
            <meta>
               <profile value="http://hl7.eu/fhir/laboratory/StructureDefinition/Observation-resultslab-eu-lab"/>
            </meta>
            <text>
               <status value="generated"/>
               <div xmlns="http://www.w3.org/1999/xhtml">
                  <table class="hl7__eu__lab__report">
                     <tr>
                        <th>Test</th>
                        <th>07-Jan-2024</th>
                        <th>Reference Range</th>
                        <th>Unit</th>
                     </tr>
                     <tr>
                        <td>Platelet distribution width [Entitic volume] in Blood by Automated count</td>
                        <td>366.9</td>
                        <td>13.4 - 17.4</td>
                        <td>H</td>
                        <td>fL</td>
                     </tr>
                  </table>
               </div>
            </text>
            <status value="final"/>
            <category>
               <coding>
                  <system value="http://terminology.hl7.org/CodeSystem/observation-category"/>
                  <code value="laboratory"/>
               </coding>
            </category>
            <code>
               <coding>
                  <system value="http://loinc.org"/>
                  <code value="32207-3"/>
                  <display value="Platelet distribution width [Entitic volume] in Blood by Automated count"/>
               </coding>
               <text value="Platelet distribution width [Entitic volume] in Blood by Automated count"/>
            </code>
            <subject>
               <reference value="urn:uuid:96c4723f-1c51-44af-a4c5-76b8e6962d45"/>
               <display value="Gastone Farnese"/>
            </subject>
            <effectiveDateTime value="2024-01-06T23:10:08Z"/>
            <performer>
               <display value="The Central European Lab"/>
            </performer>
            <valueQuantity>
               <value value="366.9"/>
               <unit value="fL"/>
               <system value="http://unitsofmeasure.org"/>
               <code value="fL"/>
            </valueQuantity>
            <interpretation>
               <coding>
                  <system value="http://terminology.hl7.org/CodeSystem/v3-ObservationInterpretation"/>
                  <code value="H"/>
                  <display value="High"/>
               </coding>
            </interpretation>
            <referenceRange>
               <low>
                  <value value="13.4"/>
                  <system value="http://unitsofmeasure.org"/>
                  <code value="fL"/>
               </low>
            </referenceRange>
            <referenceRange>
               <high>
                  <value value="17.4"/>
                  <system value="http://unitsofmeasure.org"/>
                  <code value="fL"/>
               </high>
            </referenceRange>
         </Observation>
      </resource>
   </entry>
   <entry>
      <fullUrl value="urn:uuid:da4f5d93-daaa-4241-b993-5069a69758b0"/>
      <resource>
         <Observation>
            <id value="da4f5d93-daaa-4241-b993-5069a69758b0"/>
            <meta>
               <profile value="http://hl7.eu/fhir/laboratory/StructureDefinition/Observation-resultslab-eu-lab"/>
            </meta>
            <text>
               <status value="generated"/>
               <div xmlns="http://www.w3.org/1999/xhtml">
                  <table class="hl7__eu__lab__report">
                     <tr>
                        <th>Test</th>
                        <th>07-Jan-2024</th>
                        <th>Reference Range</th>
                        <th>Unit</th>
                     </tr>
                     <tr>
                        <td>Platelet mean volume [Entitic volume] in Blood by Automated count</td>
                        <td>9.7</td>
                        <td>7.2 - 13.5</td>
                        <td/>
                        <td>fL</td>
                     </tr>
                  </table>
               </div>
            </text>
            <status value="final"/>
            <category>
               <coding>
                  <system value="http://terminology.hl7.org/CodeSystem/observation-category"/>
                  <code value="laboratory"/>
               </coding>
            </category>
            <code>
               <coding>
                  <system value="http://loinc.org"/>
                  <code value="32623-1"/>
                  <display value="Platelet mean volume [Entitic volume] in Blood by Automated count"/>
               </coding>
               <text value="Platelet mean volume [Entitic volume] in Blood by Automated count"/>
            </code>
            <subject>
               <reference value="urn:uuid:96c4723f-1c51-44af-a4c5-76b8e6962d45"/>
               <display value="Gastone Farnese"/>
            </subject>
            <effectiveDateTime value="2024-01-06T23:10:08Z"/>
            <performer>
               <display value="The Central European Lab"/>
            </performer>
            <valueQuantity>
               <value value="9.7"/>
               <unit value="fL"/>
               <system value="http://unitsofmeasure.org"/>
               <code value="fL"/>
            </valueQuantity>
            <referenceRange>
               <low>
                  <value value="7.2"/>
                  <system value="http://unitsofmeasure.org"/>
                  <code value="fL"/>
               </low>
            </referenceRange>
            <referenceRange>
               <high>
                  <value value="13.5"/>
                  <system value="http://unitsofmeasure.org"/>
                  <code value="fL"/>
               </high>
            </referenceRange>
         </Observation>
      </resource>
   </entry>
   <entry>
      <fullUrl value="urn:uuid:90231252-eb6b-4b08-bacf-df47faa61c33"/>
      <resource>
         <Device>
            <id value="90231252-eb6b-4b08-bacf-df47faa61c33"/>
            <text>
               <status value="generated"/>
               <div xmlns="http://www.w3.org/1999/xhtml">SYNDERAI Synthetic Generator v5.0</div>
            </text>
            <status value="active&#34;"/>
            <distinctIdentifier value="synderai-generator-50"/>
            <manufacturer value="SYNDERAI Project"/>
            <deviceName>
               <name value="SYNDERAI Synthetic Generator"/>
               <type value="manufacturer-name"/>
            </deviceName>
            <version>
               <value value="5.0"/>
            </version>
         </Device>
      </resource>
   </entry>
   <entry>
      <fullUrl value="urn:uuid:0bc2f883-221b-4667-8237-f9e53f29ec80"/>
      <resource>
         <Provenance>
            <id value="0bc2f883-221b-4667-8237-f9e53f29ec80"/>
            <text>
               <status value="generated"/>
               <div xmlns="http://www.w3.org/1999/xhtml">Provenance for SYNDERAI Synthetic Example Data Resource</div>
            </text>
            <target>
               <reference value="Patient/96c4723f-1c51-44af-a4c5-76b8e6962d45"/>
            </target>
            <target>
               <reference value="Bundle/2b753596-f833-423d-a0cb-c704fe9ad419"/>
            </target>
            <target>
               <reference value="Composition/7da58d2e-ed2e-4596-96e7-fdca727c7bee"/>
            </target>
            <target>
               <reference value="PractitionerRole/bff23355-7f40-4dd5-8bcd-9d71ccb50188"/>
            </target>
            <target>
               <reference value="Organization/7241233a-36b8-40cc-b1d7-f977bef71a8a"/>
            </target>
            <target>
               <reference value="Practitioner/658fe808-e041-463e-97f3-ae66ce6bc075"/>
            </target>
            <recorded value="2024-01-06T23:10:08Z"/>
            <policy value="https://synderai.net/synderai-synthetic-data-policy"/>
            <reason>
               <text value="Interoperability Testing and Training (non-clinical use)"/>
            </reason>
            <activity>
               <text value="Synthetic Example Data Generation"/>
            </activity>
            <agent>
               <type>
                  <text value="author"/>
               </type>
               <who>
                  <reference value="Device/90231252-eb6b-4b08-bacf-df47faa61c33"/>
               </who>
            </agent>
         </Provenance>
      </resource>
   </entry>
</Bundle>