<Bundle xmlns="http://hl7.org/fhir">
   <id value="53c5821c-387a-4133-bbe0-a23a0d3b09ea"/>
   <meta>
      <profile value="http://hl7.eu/fhir/eps/StructureDefinition/bundle-eu-eps"/>
   </meta>
   <identifier>
      <system value="urn:oid:2.16.840.1.113883.2.51.999"/>
      <value value="75f46540-77a7-4b8d-9538-178788001ecb"/>
      <assigner>
         <display value="HL7 Europe"/>
      </assigner>
   </identifier>
   <type value="document"/>
   <timestamp value="2024-11-19T12:32:46Z"/>
   <entry>
      <fullUrl value="urn:uuid:ab10b12a-88ea-4c81-a890-ddcc8a75f437"/>
      <resource>
         <Composition>
            <id value="ab10b12a-88ea-4c81-a890-ddcc8a75f437"/>
            <meta>
               <profile value="http://hl7.eu/fhir/eps/StructureDefinition/composition-eu-eps"/>
               <security>
                  <system value="http://terminology.hl7.org/CodeSystem/v3-ActReason"/>
                  <code value="HTEST"/>
               </security>
               <security>
                  <system value="http://terminology.hl7.org/CodeSystem/v3-ActReason"/>
                  <code value="TRAIN"/>
               </security>
               <tag>
                  <system value="https://synderai.net/fhir/CodeSystem/tags"/>
                  <code value="synthetic"/>
                  <display value="SYNDERAI Synthetic data"/>
               </tag>
            </meta>
            <identifier>
               <system value="urn:oid:2.16.840.1.113883.2.51.999"/>
               <value value="eb20d7bb-59b2-498e-baa6-da48504322a5"/>
               <assigner>
                  <display value="HL7 Europe"/>
               </assigner>
            </identifier>
            <status value="final"/>
            <type>
               <coding>
                  <system value="http://loinc.org"/>
                  <code value="60591-5"/>
                  <display value="Patient summary Document"/>
               </coding>
               <text value="Patient summary Document"/>
            </type>
            <subject>
               <reference value="urn:uuid:2b9dc153-018a-4001-926f-09408efa362d"/>
               <display value="Leonhard Köhler"/>
            </subject>
            <date value="2024-11-19"/>
            <author>
               <reference value="urn:uuid:3330614f-d755-4c80-b05b-249f2010b550"/>
            </author>
            <title value="European Patient Summary"/>
            <confidentiality value="N"/>
            <custodian>
               <reference value="urn:uuid:23ab459a-81c1-4695-844b-fee01e4867f5"/>
            </custodian>
            <section>
               <title value="Problem list"/>
               <code>
                  <coding>
                     <system value="http://loinc.org"/>
                     <code value="11450-4"/>
                     <display value="Problem list - Reported"/>
                  </coding>
               </code>
               <text>
                  <status value="generated"/>
                  <div xmlns="http://www.w3.org/1999/xhtml">
                     <table class="hl7__ips">
                        <tr>
                           <th>Condition</th>
                           <th>Onset Date</th>
                           <th>Status</th>
                        </tr>
                        <tr>
                           <td>Hyperlipidemia</td>
                           <td>
                              <span class="nb">12-Aug-2016</span>
                           </td>
                           <td>active</td>
                        </tr>
                        <tr>
                           <td>Ischemic heart disease</td>
                           <td>
                              <span class="nb">09-Jul-2010</span>
                           </td>
                           <td>active</td>
                        </tr>
                        <tr>
                           <td>Essential hypertension</td>
                           <td>
                              <span class="nb">16-Jun-2006</span>
                           </td>
                           <td>active</td>
                        </tr>
                        <tr>
                           <td>Osteoarthritis of knee</td>
                           <td>
                              <span class="nb">09-Sep-2003</span>
                           </td>
                           <td>active</td>
                        </tr>
                        <tr>
                           <td>Anemia</td>
                           <td>
                              <span class="nb">12-Jul-1974</span>
                           </td>
                           <td>active</td>
                        </tr>
                        <tr>
                           <td>Prediabetes</td>
                           <td>
                              <span class="nb">09-Jul-1971</span>
                           </td>
                           <td>active</td>
                        </tr>
                     </table>
                  </div>
               </text>
               <entry>
                  <reference value="urn:uuid:ac8e285d-54cd-4a0f-83c5-0fd4562ec34b"/>
               </entry>
               <entry>
                  <reference value="urn:uuid:edfdc209-1d9f-46e0-b189-8782d5e1386e"/>
               </entry>
               <entry>
                  <reference value="urn:uuid:a89c1072-a4f3-4dc3-bb73-84a10ccc6d47"/>
               </entry>
               <entry>
                  <reference value="urn:uuid:fe657ac0-e87c-46ef-a4e0-c208cad4fbaf"/>
               </entry>
               <entry>
                  <reference value="urn:uuid:53a50a8b-eaf8-407d-a251-7c67d481d9df"/>
               </entry>
               <entry>
                  <reference value="urn:uuid:49390d57-e591-49fe-8b0c-59d1405e7eed"/>
               </entry>
            </section>
            <section>
               <title value="Medication list"/>
               <code>
                  <coding>
                     <system value="http://loinc.org"/>
                     <code value="10160-0"/>
                     <display value="History of Medication use Narrative"/>
                  </coding>
               </code>
               <text>
                  <status value="generated"/>
                  <div xmlns="http://www.w3.org/1999/xhtml">
                     <table class="hl7__ips">
                        <tr>
                           <th>Medication</th>
                           <th>Since</th>
                           <th>Form</th>
                           <th>Dosage</th>
                           <th>Reason</th>
                        </tr>
                        <tr>
                           <td>Simvastatin 10 mg oral tablet</td>
                           <td>
                              <span class="nb">2024-10-04</span>
                           </td>
                           <td>-</td>
                           <td>1 tablet (10 mg) by mouth once daily</td>
                           <td>Hyperlipidemia</td>
                        </tr>
                        <tr>
                           <td>Amlodipine (as amlodipine besylate) 2.5 mg oral tablet</td>
                           <td>
                              <span class="nb">2024-09-27</span>
                           </td>
                           <td>-</td>
                           <td>1 tablet (2.5 mg) by mouth once daily</td>
                           <td>Essential hypertension (disorder)</td>
                        </tr>
                        <tr>
                           <td>Hydrochlorothiazide 25 mg oral tablet</td>
                           <td>
                              <span class="nb">2024-09-27</span>
                           </td>
                           <td>-</td>
                           <td>1 tablet (25 mg) by mouth once daily</td>
                           <td>Essential hypertension (disorder)</td>
                        </tr>
                        <tr>
                           <td>Lisinopril 10 mg oral tablet</td>
                           <td>
                              <span class="nb">2024-09-27</span>
                           </td>
                           <td>-</td>
                           <td>1 tablet (10 mg) by mouth once daily</td>
                           <td>Essential hypertension (disorder)</td>
                        </tr>
                        <tr>
                           <td>Clopidogrel (as clopidogrel bisulfate) 75 mg oral tablet</td>
                           <td>
                              <span class="nb">2010-07-16</span>
                           </td>
                           <td>-</td>
                           <td>1 tablet (75 mg) once daily</td>
                           <td>-</td>
                        </tr>
                        <tr>
                           <td>Simvastatin 20 mg oral tablet</td>
                           <td>
                              <span class="nb">2010-07-16</span>
                           </td>
                           <td>-</td>
                           <td>1 tablet (20 mg) by mouth once daily</td>
                           <td>-</td>
                        </tr>
                        <tr>
                           <td>Nitroglycerin 400 microgram/actuation sublingual spray</td>
                           <td>
                              <span class="nb">2010-07-16</span>
                           </td>
                           <td>-</td>
                           <td>400 micrograms per spray, 1 spray under the tongue as needed for chest pain, may repeat every 5 minutes as needed, up to 3 sprays in 15 minutes</td>
                           <td>-</td>
                        </tr>
                        <tr>
                           <td>Metoprolol tartrate (as metoprolol succinate) 100 mg prolonged-release oral tablet</td>
                           <td>
                              <span class="nb">2010-07-16</span>
                           </td>
                           <td>-</td>
                           <td>1 tablet (100 mg) once daily</td>
                           <td>-</td>
                        </tr>
                        <tr>
                           <td>Naproxen sodium 220 mg oral capsule</td>
                           <td>
                              <span class="nb">2003-09-09</span>
                           </td>
                           <td>-</td>
                           <td>1 tablet (220 mg) by mouth every 12 hours as needed</td>
                           <td>Osteoarthritis of knee</td>
                        </tr>
                     </table>
                  </div>
               </text>
               <entry>
                  <reference value="urn:uuid:7480e998-7528-4150-9b06-62587466fae9"/>
               </entry>
               <entry>
                  <reference value="urn:uuid:34f7545e-a953-4bc8-bc8d-035009706e33"/>
               </entry>
               <entry>
                  <reference value="urn:uuid:66afff6a-ee0c-4eed-9bb7-a58e5bcd4c96"/>
               </entry>
               <entry>
                  <reference value="urn:uuid:4c9a0213-33ad-4a6e-90e3-f031f2283ad6"/>
               </entry>
               <entry>
                  <reference value="urn:uuid:669f54e9-ec4b-403e-bc0d-132aa4db273d"/>
               </entry>
               <entry>
                  <reference value="urn:uuid:1c0830c1-80e8-4c1d-a763-eef0a9612b85"/>
               </entry>
               <entry>
                  <reference value="urn:uuid:c2b44426-266e-45ea-bf65-a34c75832887"/>
               </entry>
               <entry>
                  <reference value="urn:uuid:51443a37-dadc-4e91-8b47-8f16afb7d58e"/>
               </entry>
               <entry>
                  <reference value="urn:uuid:826751f2-7aa5-46d5-b5ba-1d7e96dcd944"/>
               </entry>
            </section>
            <section>
               <title value="Immunizations list"/>
               <code>
                  <coding>
                     <system value="http://loinc.org"/>
                     <code value="11369-6"/>
                     <display value="History of Immunization note"/>
                  </coding>
               </code>
               <text>
                  <status value="generated"/>
                  <div xmlns="http://www.w3.org/1999/xhtml">
                     <table class="hl7__ips">
                        <tr>
                           <th>Vaccine</th>
                           <th>Date</th>
                        </tr>
                        <tr>
                           <td>Influenza virus antigen only vaccine product</td>
                           <td>
                              <span class="nb">01-Dec-2023</span>
                           </td>
                        </tr>
                        <tr>
                           <td>SARS-CoV-2 mRNA vaccine</td>
                           <td>
                              <span class="nb">30-Apr-2021</span>
                           </td>
                        </tr>
                        <tr>
                           <td>Clostridium tetani toxoid antigen adsorbed only vaccine product</td>
                           <td>
                              <span class="nb">04-Sep-2020</span>
                           </td>
                        </tr>
                        <tr>
                           <td>Streptococcus pneumoniae Danish serotype 1</td>
                           <td>
                              <span class="nb">07-Aug-2015</span>
                           </td>
                        </tr>
                     </table>
                  </div>
               </text>
               <entry>
                  <reference value="urn:uuid:a8ba8738-2145-41f0-8044-e0687a4099d5"/>
               </entry>
               <entry>
                  <reference value="urn:uuid:e902ef52-ada1-4b97-be52-d6c8fed36257"/>
               </entry>
               <entry>
                  <reference value="urn:uuid:add472ec-2d26-4482-9d3c-65a2fa696c08"/>
               </entry>
               <entry>
                  <reference value="urn:uuid:a1d789c6-0566-49b0-95e5-987616cbf72b"/>
               </entry>
            </section>
            <section>
               <title value="Procedure History list"/>
               <code>
                  <coding>
                     <system value="http://loinc.org"/>
                     <code value="47519-4"/>
                     <display value="History of Procedures Document"/>
                  </coding>
               </code>
               <text>
                  <status value="generated"/>
                  <div xmlns="http://www.w3.org/1999/xhtml">
                     <table class="hl7__ips">
                        <tr>
                           <th>Procedure</th>
                           <th>Date</th>
                           <th>Reason</th>
                        </tr>
                        <tr>
                           <td>Patient evaluation and management</td>
                           <td>
                              <span class="nb">19-Nov-2024</span>
                           </td>
                           <td>-</td>
                        </tr>
                        <tr>
                           <td>Urine specimen collection</td>
                           <td>
                              <span class="nb">19-Nov-2024</span>
                           </td>
                           <td>-</td>
                        </tr>
                        <tr>
                           <td>Patient discharge</td>
                           <td>
                              <span class="nb">19-Nov-2024</span>
                           </td>
                           <td>-</td>
                        </tr>
                        <tr>
                           <td>Taking patient vital signs</td>
                           <td>
                              <span class="nb">19-Nov-2024</span>
                           </td>
                           <td>-</td>
                        </tr>
                        <tr>
                           <td>Antibiotic therapy</td>
                           <td>
                              <span class="nb">19-Nov-2024</span>
                           </td>
                           <td>-</td>
                        </tr>
                        <tr>
                           <td>Triage: emergency center</td>
                           <td>
                              <span class="nb">19-Nov-2024</span>
                           </td>
                           <td>-</td>
                        </tr>
                        <tr>
                           <td>Urinalysis with reflex to microscopy and culture</td>
                           <td>
                              <span class="nb">19-Nov-2024</span>
                           </td>
                           <td>-</td>
                        </tr>
                        <tr>
                           <td>Depression screening</td>
                           <td>
                              <span class="nb">01-Dec-2023</span>
                           </td>
                           <td>-</td>
                        </tr>
                        <tr>
                           <td>Assessment of health and social care needs</td>
                           <td>
                              <span class="nb">01-Dec-2023</span>
                           </td>
                           <td>-</td>
                        </tr>
                        <tr>
                           <td>Assessment using Morse Fall Scale</td>
                           <td>
                              <span class="nb">01-Dec-2023</span>
                           </td>
                           <td>-</td>
                        </tr>
                        <tr>
                           <td>Assessment using AUDIT-C (Alcohol Use Disorders Identification Test - Consumption)</td>
                           <td>
                              <span class="nb">01-Dec-2023</span>
                           </td>
                           <td>-</td>
                        </tr>
                        <tr>
                           <td>Assessment of substance use</td>
                           <td>
                              <span class="nb">01-Dec-2023</span>
                           </td>
                           <td>-</td>
                        </tr>
                        <tr>
                           <td>Depression screening using Patient Health Questionnaire Two-Item score (procedure)</td>
                           <td>
                              <span class="nb">01-Dec-2023</span>
                           </td>
                           <td>-</td>
                        </tr>
                     </table>
                  </div>
               </text>
               <entry>
                  <reference value="urn:uuid:13aad801-add2-4266-92dd-a05ed36bfae3"/>
               </entry>
               <entry>
                  <reference value="urn:uuid:d47b7f46-d416-44d8-80e8-26399bf9ecbb"/>
               </entry>
               <entry>
                  <reference value="urn:uuid:94fef692-fe25-4fee-b77c-97fb7338b0db"/>
               </entry>
               <entry>
                  <reference value="urn:uuid:8fb53004-3520-415a-865b-2ce517f60e64"/>
               </entry>
               <entry>
                  <reference value="urn:uuid:890789da-a69b-465d-9628-cd724243827f"/>
               </entry>
               <entry>
                  <reference value="urn:uuid:a10f4b6b-c71e-42b4-b6d9-22930c93c7cb"/>
               </entry>
               <entry>
                  <reference value="urn:uuid:09302a19-667a-4ece-a1d5-9a37a9739944"/>
               </entry>
               <entry>
                  <reference value="urn:uuid:7534e463-548d-4fc1-ba55-a8ce30248721"/>
               </entry>
               <entry>
                  <reference value="urn:uuid:1f03a6b5-23ce-4bf6-8dfc-73a1c711b67c"/>
               </entry>
               <entry>
                  <reference value="urn:uuid:7d6db49f-942b-488c-9f1a-d60580d15ee2"/>
               </entry>
               <entry>
                  <reference value="urn:uuid:8836b6b3-6d07-4a07-b583-c00835aebc70"/>
               </entry>
               <entry>
                  <reference value="urn:uuid:7132c7ee-0a1c-4049-8aad-4e8e726b09e4"/>
               </entry>
               <entry>
                  <reference value="urn:uuid:ea7264fd-94a5-4c8a-90ab-10b343236882"/>
               </entry>
            </section>
            <section>
               <title value="Allergies and Intolerances"/>
               <code>
                  <coding>
                     <system value="http://loinc.org"/>
                     <code value="48765-2"/>
                     <display value="Allergies and adverse reactions Document"/>
                  </coding>
               </code>
               <text>
                  <status value="generated"/>
                  <div xmlns="http://www.w3.org/1999/xhtml">
                     <table class="hl7__ips">
                        <tr>
                           <th>Allergy/Intolerance</th>
                           <th>Onset Date</th>
                           <th>Status</th>
                           <th>Type</th>
                           <th>Reaction</th>
                        </tr>
                        <tr>
                           <td/>
                           <td>?</td>
                           <td>active</td>
                           <td>?</td>
                           <td/>
                        </tr>
                     </table>
                  </div>
               </text>
               <entry>
                  <reference value="urn:uuid:1c0c2e77-28da-45f2-91df-c1b76f35b776"/>
               </entry>
            </section>
            <section>
               <title value="Care Plan"/>
               <code>
                  <coding>
                     <system value="http://loinc.org"/>
                     <code value="18776-5"/>
                     <display value="Plan of care note"/>
                  </coding>
               </code>
               <text>
                  <status value="generated"/>
                  <div xmlns="http://www.w3.org/1999/xhtml">
                     <table class="hl7__ips">
                        <tr>
                           <th>Active Planned Care / Goals</th>
                           <th>Start Date</th>
                           <th>Reason</th>
                        </tr>
                        <tr>
                           <td>Hyperlipidemia clinical management plan</td>
                           <td>
                              <span class="nb">02-Sep-2016</span>
                           </td>
                           <td>Hyperlipidemia</td>
                        </tr>
                        <tr>
                           <td>
                              <ul>
                                 <li>Achieve LDL cholesterol below 70 mg/dL to reduce cardiovascular risk.</li>
                                 <li>Maintain total cholesterol below 200 mg/dL.</li>
                                 <li>Maintain HDL cholesterol above 40 mg/dL.</li>
                                 <li>Maintain triglycerides below 150 mg/dL.</li>
                              </ul>
                           </td>
                           <td/>
                           <td/>
                        </tr>
                        <tr>
                           <td>Lifestyle education regarding hypertension</td>
                           <td>
                              <span class="nb">16-Jun-2006</span>
                           </td>
                           <td>Essential hypertension (disorder)</td>
                        </tr>
                        <tr>
                           <td>
                              <ul>
                                 <li>Maintain blood pressure below 130/80 mm[Hg] through lifestyle modifications.</li>
                                 <li>Limit daily sodium intake to less than 2.3 g to support blood pressure control.</li>
                                 <li>Engage in at least 150 minutes of moderate-intensity aerobic physical activity per week.</li>
                                 <li>Achieve a 5% reduction in body weight from baseline.</li>
                                 <li>Limit alcohol consumption to no more than 2 standard drinks per day.</li>
                              </ul>
                           </td>
                           <td/>
                           <td/>
                        </tr>
                        <tr>
                           <td>Musculoskeletal care</td>
                           <td>
                              <span class="nb">09-Sep-2003</span>
                           </td>
                           <td>Osteoarthritis of knee</td>
                        </tr>
                        <tr>
                           <td>
                              <ul>
                                 <li>Reduce knee pain severity to a tolerable level to improve mobility and quality of life.</li>
                                 <li>Increase ability to walk and perform daily activities without significant limitation from knee osteoarthritis.</li>
                                 <li>Patient will perform prescribed knee strengthening and flexibility exercises at least 5 days per week.</li>
                              </ul>
                           </td>
                           <td/>
                           <td/>
                        </tr>
                        <tr>
                           <td>Diabetes self management plan</td>
                           <td>
                              <span class="nb">09-Jul-1971</span>
                           </td>
                           <td>Prediabetes</td>
                        </tr>
                        <tr>
                           <td>
                              <ul>
                                 <li>Achieve and maintain Hemoglobin A1c below prediabetes threshold through lifestyle modification.</li>
                                 <li>Achieve and maintain a healthy body weight to reduce risk of progression to diabetes.</li>
                                 <li>Maintain blood pressure below 130/80 mmHg as part of diabetes risk reduction.</li>
                                 <li>Maintain LDL cholesterol below 100 mg/dL to reduce cardiovascular risk.</li>
                              </ul>
                           </td>
                           <td/>
                           <td/>
                        </tr>
                        <tr>
                           <th>Immunization Recommendation</th>
                           <th>Due Date</th>
                           <th>Reason</th>
                        </tr>
                        <tr>
                           <td>Vaccine product containing only Influenza virus antigen (medicinal product)</td>
                           <td>
                              <span class="nb">01-Oct-2025</span>
                           </td>
                           <td>Annual seasonal influenza vaccination</td>
                        </tr>
                     </table>
                  </div>
               </text>
               <entry>
                  <reference value="urn:uuid:e1617cf5-5c58-4894-8953-aa999b44846a"/>
               </entry>
               <entry>
                  <reference value="urn:uuid:e8f5ae01-d9c8-4f33-8cc4-f4bed873ac3d"/>
               </entry>
               <entry>
                  <reference value="urn:uuid:20249a00-5c67-48bb-9ebd-25b6b48031cb"/>
               </entry>
               <entry>
                  <reference value="urn:uuid:472ab2ac-31be-404c-a59a-cfc76e115b93"/>
               </entry>
               <entry>
                  <reference value="urn:uuid:76fe4cdd-2735-4943-9850-e236024f5b66"/>
               </entry>
            </section>
            <section>
               <title value="Vital Signs"/>
               <code>
                  <coding>
                     <system value="http://loinc.org"/>
                     <code value="8716-3"/>
                     <display value="Vital signs note"/>
                  </coding>
               </code>
               <text>
                  <status value="generated"/>
                  <div xmlns="http://www.w3.org/1999/xhtml">
                     <table class="hl7__ips">
                        <tr>
                           <th>Vital Signs</th>
                           <th>2024-11-19</th>
                           <th>2024-09-27</th>
                        </tr>
                        <tr>
                           <td>Diastolic Blood Pressure</td>
                           <td>78.6 mm[Hg]</td>
                           <td>53 mm[Hg]</td>
                        </tr>
                        <tr>
                           <td>Systolic Blood Pressure</td>
                           <td>126.9 mm[Hg]</td>
                           <td>103 mm[Hg]</td>
                        </tr>
                        <tr>
                           <td>Heart rate</td>
                           <td>95 /min</td>
                           <td>72 /min</td>
                        </tr>
                        <tr>
                           <td>Respiratory rate</td>
                           <td>14 /min</td>
                           <td>14 /min</td>
                        </tr>
                        <tr>
                           <td>Oxygen saturation in Arterial blood</td>
                           <td>99.5 %</td>
                           <td>-</td>
                        </tr>
                        <tr>
                           <td>Body temperature</td>
                           <td>36.8 Cel</td>
                           <td>-</td>
                        </tr>
                        <tr>
                           <td>Body Height</td>
                           <td>-</td>
                           <td>185.6 cm</td>
                        </tr>
                        <tr>
                           <td>Pain severity - 0-10 verbal numeric rating [Score] - Reported</td>
                           <td>-</td>
                           <td>3 {score}</td>
                        </tr>
                        <tr>
                           <td>Body Weight</td>
                           <td>-</td>
                           <td>94.3 kg</td>
                        </tr>
                        <tr>
                           <td>Body mass index (BMI) [Ratio]</td>
                           <td>-</td>
                           <td>27.4 kg/m2</td>
                        </tr>
                     </table>
                  </div>
               </text>
               <entry>
                  <reference value="urn:uuid:3c28adcd-ca7a-4efa-8318-d86d62b65a5a"/>
               </entry>
               <entry>
                  <reference value="urn:uuid:9ebfc781-4fa0-49d3-823c-350b25d30251"/>
               </entry>
               <entry>
                  <reference value="urn:uuid:6cdbec4e-94b8-4bb8-9e08-e275c6cf1a8c"/>
               </entry>
               <entry>
                  <reference value="urn:uuid:350ffb5c-6096-4d9a-8efe-d6c5ebd6e4be"/>
               </entry>
               <entry>
                  <reference value="urn:uuid:57276e8c-868a-45eb-9eb6-1f0ad6c1522d"/>
               </entry>
               <entry>
                  <reference value="urn:uuid:602691a1-857a-43cb-bcc3-96dcf62ee6ee"/>
               </entry>
               <entry>
                  <reference value="urn:uuid:e321f85e-23b0-4960-8dee-b4575703ebdd"/>
               </entry>
               <entry>
                  <reference value="urn:uuid:d97ba2ee-4008-4c0d-b394-a7059777a756"/>
               </entry>
               <entry>
                  <reference value="urn:uuid:43afa58d-41d0-4f38-b218-696aefa476e6"/>
               </entry>
               <entry>
                  <reference value="urn:uuid:f56063a3-b3c0-4d92-8ec1-5c9741d4233a"/>
               </entry>
               <entry>
                  <reference value="urn:uuid:028be2d7-90eb-497e-9e7c-757bc0f1e014"/>
               </entry>
               <entry>
                  <reference value="urn:uuid:fc62312d-8b82-4e44-b0b7-a45556b7435d"/>
               </entry>
               <entry>
                  <reference value="urn:uuid:ebdf8e83-c351-41d3-ad5b-9a7ac4144fc6"/>
               </entry>
               <entry>
                  <reference value="urn:uuid:20cb859c-9c0a-4011-bdcf-54c49a270aa4"/>
               </entry>
            </section>
            <section>
               <title value="Relevant diagnostic tests/laboratory data"/>
               <code>
                  <coding>
                     <system value="http://loinc.org"/>
                     <code value="30954-2"/>
                     <display value="Relevant diagnostic tests/laboratory data note"/>
                  </coding>
               </code>
               <text>
                  <status value="generated"/>
                  <div xmlns="http://www.w3.org/1999/xhtml">
                     <table class="hl7__ips">
                        <table class="hl7__ips">
                           <thead>
                              <tr>
                                 <th>Recent Lab Observations</th>
                                 <th>19-NOV-2024</th>
                                 <th>Reference Range</th>
                                 <th>Unit</th>
                              </tr>
                           </thead>
                           <tbody>
                              <tr>
                                 <td>Glucose [Mass/volume] in Urine by Test strip</td>
                                 <td>
                                    <strong>2.9 H</strong>
                                 </td>
                                 <td>0 - 0.8</td>
                                 <td>mg/dL</td>
                              </tr>
                              <tr>
                                 <td>Ketones [Presence] in Urine by Test strip</td>
                                 <td>Urine ketone test negative</td>
                                 <td/>
                                 <td/>
                              </tr>
                              <tr>
                                 <td>Specific gravity of Urine by Test strip</td>
                                 <td>
                                    <strong>1.0 L</strong>
                                 </td>
                                 <td>1.005 - 1.03</td>
                                 <td>{nominal}</td>
                              </tr>
                              <tr>
                                 <td>pH of Urine by Test strip</td>
                                 <td>6.6</td>
                                 <td>4.5 - 7.5</td>
                                 <td>pH</td>
                              </tr>
                              <tr>
                                 <td>Protein [Mass/volume] in Urine by Test strip</td>
                                 <td>
                                    <strong>10.5 L</strong>
                                 </td>
                                 <td>14 - 20</td>
                                 <td>mg/dL</td>
                              </tr>
                              <tr>
                                 <td>Nitrite [Presence] in Urine by Test strip</td>
                                 <td>Urine nitrite positive</td>
                                 <td/>
                                 <td/>
                              </tr>
                              <tr>
                                 <td>Hemoglobin [Presence] in Urine by Test strip</td>
                                 <td>Urine blood test = +</td>
                                 <td/>
                                 <td/>
                              </tr>
                              <tr>
                                 <td>Leukocyte esterase [Presence] in Urine by Test strip</td>
                                 <td>Urine leukocyte test</td>
                                 <td/>
                                 <td/>
                              </tr>
                              <tr>
                                 <td>Leukocytes [#/area] in Urine sediment by Microscopy high power field</td>
                                 <td>
                                    <strong>44.4 H</strong>
                                 </td>
                                 <td>0 - 5</td>
                                 <td>/[HPF]</td>
                              </tr>
                              <tr>
                                 <td>Erythrocytes [#/area] in Urine sediment by Microscopy high power field</td>
                                 <td>2.0</td>
                                 <td>0 - 5</td>
                                 <td>/[HPF]</td>
                              </tr>
                              <tr>
                                 <td>Epithelial cells [#/area] in Urine sediment by Microscopy high power field</td>
                                 <td>0.5</td>
                                 <td>0 - 5</td>
                                 <td>/[HPF]</td>
                              </tr>
                              <tr>
                                 <td>Casts [Presence] in Urine sediment by Light microscopy</td>
                                 <td>Urine microscopy: no casts</td>
                                 <td/>
                                 <td/>
                              </tr>
                              <tr>
                                 <td>Mucus [Presence] in Urine sediment by Light microscopy</td>
                                 <td>Mucus in urine</td>
                                 <td/>
                                 <td/>
                              </tr>
                              <tr>
                                 <td>Bacteria [#/area] in Urine sediment by Microscopy high power field</td>
                                 <td>Finding of presence of bacteria</td>
                                 <td/>
                                 <td/>
                              </tr>
                              <tr>
                                 <td>Bacteria identified in Urine by Culture</td>
                                 <td/>
                                 <td/>
                                 <td/>
                              </tr>
                           </tbody>
                        </table>
                     </table>
                  </div>
               </text>
               <entry>
                  <reference value="urn:uuid:0a5404ef-e33e-4cb8-a846-151b78f221e2"/>
               </entry>
               <entry>
                  <reference value="urn:uuid:650c5623-e799-46c3-98c1-35ad27f209f9"/>
               </entry>
               <entry>
                  <reference value="urn:uuid:940070ab-ae24-43df-b663-5eaa09fe1519"/>
               </entry>
               <entry>
                  <reference value="urn:uuid:9dfb20f8-b66a-49dc-9148-b3772cd082c1"/>
               </entry>
               <entry>
                  <reference value="urn:uuid:bd9109d7-6656-4da3-a7e8-4bc0b8039d86"/>
               </entry>
               <entry>
                  <reference value="urn:uuid:8339f02d-4970-4fe0-864d-cde4a551c0c9"/>
               </entry>
               <entry>
                  <reference value="urn:uuid:3164ae53-4ac1-473a-bc75-62812bd1a8d0"/>
               </entry>
               <entry>
                  <reference value="urn:uuid:20ab5ff9-d37f-45b9-9bfa-6c572e7deb43"/>
               </entry>
               <entry>
                  <reference value="urn:uuid:344ae55f-bea0-4054-82f7-7903284ca31c"/>
               </entry>
               <entry>
                  <reference value="urn:uuid:79d1311a-f0c2-4b8b-bcf6-92b2382a6fc9"/>
               </entry>
               <entry>
                  <reference value="urn:uuid:34bf9223-5e1e-4cea-b94e-eb6bd6d0b868"/>
               </entry>
               <entry>
                  <reference value="urn:uuid:71bb226c-e0fd-4f46-91a9-3f923869e8d4"/>
               </entry>
               <entry>
                  <reference value="urn:uuid:331116c2-68ea-43c8-af9b-1c566465bdff"/>
               </entry>
               <entry>
                  <reference value="urn:uuid:054151ca-6389-4b99-99ca-41b83c5de034"/>
               </entry>
               <entry>
                  <reference value="urn:uuid:8d11d272-3caa-4089-8dc3-d90001301be5"/>
               </entry>
            </section>
            <section>
               <title value="Device Use"/>
               <code>
                  <coding>
                     <system value="http://loinc.org"/>
                     <code value="46264-8"/>
                     <display value="History of medical device use"/>
                  </coding>
               </code>
               <text>
                  <status value="generated"/>
                  <div xmlns="http://www.w3.org/1999/xhtml">
                     <table class="hl7__ips">
                        <tr>
                           <th>Device</th>
                           <th>Date (since)</th>
                        </tr>
                        <tr>
                           <td>Manual wheelchair (physical object)</td>
                           <td>
                              <span class="nb">09-Sep-2003</span>
                           </td>
                        </tr>
                        <tr>
                           <td>Wheelchair accessory (physical object)</td>
                           <td>
                              <span class="nb">09-Sep-2003</span>
                           </td>
                        </tr>
                        <tr>
                           <td>Blood glucose meter (physical object)</td>
                           <td>
                              <span class="nb">09-Jul-1971</span>
                           </td>
                        </tr>
                     </table>
                  </div>
               </text>
               <entry>
                  <reference value="urn:uuid:7d324f1b-8600-4eea-84ca-3747d22c709c"/>
               </entry>
               <entry>
                  <reference value="urn:uuid:c6a81dcd-930c-43f0-aab7-0bcee72edab1"/>
               </entry>
               <entry>
                  <reference value="urn:uuid:140c1490-c279-4f0a-8e25-f0cde69bd4d2"/>
               </entry>
            </section>
         </Composition>
      </resource>
   </entry>
   <entry>
      <fullUrl value="urn:uuid:2b9dc153-018a-4001-926f-09408efa362d"/>
      <resource>
         <Patient>
            <id value="2b9dc153-018a-4001-926f-09408efa362d"/>
            <meta>
               <profile value="http://hl7.eu/fhir/eps/StructureDefinition/patient-eu-eps"/>
               <security>
                  <system value="http://terminology.hl7.org/CodeSystem/v3-ActReason"/>
                  <code value="HTEST"/>
               </security>
               <security>
                  <system value="http://terminology.hl7.org/CodeSystem/v3-ActReason"/>
                  <code value="TRAIN"/>
               </security>
               <tag>
                  <system value="https://synderai.net/fhir/CodeSystem/tags"/>
                  <code value="synthetic"/>
                  <display value="SYNDERAI Synthetic data"/>
               </tag>
            </meta>
            <text>
               <status value="generated"/>
               <div xmlns="http://www.w3.org/1999/xhtml">
                  <table class="hl7__ips">
                     <tr>
                        <td>Leonhard Köhler</td>
                        <td>male</td>
                        <td>19-Dec-1949</td>
                     </tr>
                  </table>
               </div>
            </text>
            <extension url="http://hl7.org/fhir/StructureDefinition/patient-nationality">
               <valueCodeableConcept>
                  <coding>
                     <system value="http://hl7.org/fhir/ValueSet/country"/>
                     <code value="DE"/>
                  </coding>
               </valueCodeableConcept>
            </extension>
            <identifier>
               <type>
                  <coding>
                     <system value="http://terminology.hl7.org/CodeSystem/v2-0203"/>
                     <code value="PT"/>
                  </coding>
               </type>
               <system value="http://ec.europa.eu/identifier/eci"/>
               <value value="5321-442678-4"/>
            </identifier>
            <identifier>
               <type>
                  <coding>
                     <system value="http://terminology.hl7.org/CodeSystem/v2-0203"/>
                     <code value="MR"/>
                  </coding>
               </type>
               <system value="http://local.setting.eu/identifier"/>
               <value value="ffa9f0d8-c016-d46c-e666-000f53715b47"/>
            </identifier>
            <name>
               <family value="Köhler"/>
            </name>
            <name>
               <given value="Leonhard"/>
            </name>
            <name>
               <text value="Leonhard Köhler"/>
            </name>
            <telecom>
               <system value="phone"/>
               <value value="00028839855"/>
            </telecom>
            <gender value="male"/>
            <birthDate value="1949-12-19"/>
            <address>
               <use value="home"/>
               <type value="physical"/>
               <line value="Henckweg 97/34"/>
               <city value="Füssen"/>
               <postalCode value="87629"/>
               <country value="Germany"/>
            </address>
         </Patient>
      </resource>
   </entry>
   <entry>
      <fullUrl value="urn:uuid:3330614f-d755-4c80-b05b-249f2010b550"/>
      <resource>
         <PractitionerRole>
            <id value="3330614f-d755-4c80-b05b-249f2010b550"/>
            <meta>
               <profile value="http://hl7.eu/fhir/base/StructureDefinition/practitionerRole-eu"/>
            </meta>
            <text>
               <status value="generated"/>
               <div xmlns="http://www.w3.org/1999/xhtml">
                  <table class="hl7__ips">Provider Role Id 3330614f-d755-4c80-b05b-249f2010b550</table>
               </div>
            </text>
            <practitioner>
               <reference value="urn:uuid:59201f32-3685-4641-a0fa-77f3cff51135"/>
            </practitioner>
            <organization>
               <reference value="urn:uuid:23ab459a-81c1-4695-844b-fee01e4867f5"/>
            </organization>
         </PractitionerRole>
      </resource>
   </entry>
   <entry>
      <fullUrl value="urn:uuid:59201f32-3685-4641-a0fa-77f3cff51135"/>
      <resource>
         <Practitioner>
            <id value="59201f32-3685-4641-a0fa-77f3cff51135"/>
            <meta>
               <profile value="http://hl7.eu/fhir/base/StructureDefinition/practitioner-eu"/>
            </meta>
            <text>
               <status value="generated"/>
               <div xmlns="http://www.w3.org/1999/xhtml">
                  <table class="hl7__ips">Dr. Hel Ping</table>
               </div>
            </text>
            <name>
               <family value="Ping"/>
               <given value="Hel"/>
               <prefix value="Dr."/>
            </name>
         </Practitioner>
      </resource>
   </entry>
   <entry>
      <fullUrl value="urn:uuid:23ab459a-81c1-4695-844b-fee01e4867f5"/>
      <resource>
         <Organization>
            <id value="23ab459a-81c1-4695-844b-fee01e4867f5"/>
            <meta>
               <profile value="http://hl7.eu/fhir/base/StructureDefinition/organization-eu"/>
            </meta>
            <text>
               <status value="generated"/>
               <div xmlns="http://www.w3.org/1999/xhtml">
                  <table class="hl7__ips">hier ist kein Ärztehaus</table>
               </div>
            </text>
            <identifier>
               <system value="urn:oid:2.16.840.1.113883.2.51.999"/>
               <value value="425107f4-11f5-47e2-a7df-87c39e4bcfc3"/>
               <assigner>
                  <display value="HL7 Europe"/>
               </assigner>
            </identifier>
            <name value="hier ist kein Ärztehaus"/>
            <address>
               <line value="Feistlestraße 2"/>
               <city value="Füssen"/>
               <postalCode value="87629"/>
               <country value="Germany"/>
            </address>
         </Organization>
      </resource>
   </entry>
   <entry>
      <fullUrl value="urn:uuid:ac8e285d-54cd-4a0f-83c5-0fd4562ec34b"/>
      <resource>
         <Condition>
            <id value="ac8e285d-54cd-4a0f-83c5-0fd4562ec34b"/>
            <meta>
               <profile value="http://hl7.org/fhir/uv/ips/StructureDefinition/Condition-uv-ips"/>
            </meta>
            <text>
               <status value="generated"/>
               <div xmlns="http://www.w3.org/1999/xhtml">
                  <table class="hl7__ips">
                     <tr>
                        <td>Hyperlipidemia</td>
                        <td>
                           <span class="nb">12-Aug-2016</span>
                        </td>
                        <td>active</td>
                     </tr>
                  </table>
               </div>
            </text>
            <category>
               <coding>
                  <system value="http://terminology.hl7.org/CodeSystem/condition-category"/>
                  <code value="problem-list-item"/>
                  <display value="Problem List Item"/>
               </coding>
            </category>
            <code>
               <coding>
                  <system value="http://snomed.info/sct"/>
                  <code value="55822004"/>
                  <display value="Hyperlipidemia (disorder)"/>
               </coding>
               <text value="Hyperlipidemia"/>
            </code>
            <subject>
               <reference value="urn:uuid:"/>
               <display value="Leonhard Köhler"/>
            </subject>
            <onsetDateTime value="2016-08-12"/>
            <asserter>
               <reference value="urn:uuid:"/>
               <display value="hier ist kein Ärztehaus"/>
            </asserter>
         </Condition>
      </resource>
   </entry>
   <entry>
      <fullUrl value="urn:uuid:edfdc209-1d9f-46e0-b189-8782d5e1386e"/>
      <resource>
         <Condition>
            <id value="edfdc209-1d9f-46e0-b189-8782d5e1386e"/>
            <meta>
               <profile value="http://hl7.org/fhir/uv/ips/StructureDefinition/Condition-uv-ips"/>
            </meta>
            <text>
               <status value="generated"/>
               <div xmlns="http://www.w3.org/1999/xhtml">
                  <table class="hl7__ips">
                     <tr>
                        <td>Ischemic heart disease</td>
                        <td>
                           <span class="nb">09-Jul-2010</span>
                        </td>
                        <td>active</td>
                     </tr>
                  </table>
               </div>
            </text>
            <category>
               <coding>
                  <system value="http://terminology.hl7.org/CodeSystem/condition-category"/>
                  <code value="problem-list-item"/>
                  <display value="Problem List Item"/>
               </coding>
            </category>
            <code>
               <coding>
                  <system value="http://snomed.info/sct"/>
                  <code value="414545008"/>
                  <display value="Ischemic heart disease (disorder)"/>
               </coding>
               <text value="Ischemic heart disease"/>
            </code>
            <subject>
               <reference value="urn:uuid:"/>
               <display value="Leonhard Köhler"/>
            </subject>
            <onsetDateTime value="2010-07-09"/>
            <asserter>
               <reference value="urn:uuid:"/>
               <display value="hier ist kein Ärztehaus"/>
            </asserter>
         </Condition>
      </resource>
   </entry>
   <entry>
      <fullUrl value="urn:uuid:a89c1072-a4f3-4dc3-bb73-84a10ccc6d47"/>
      <resource>
         <Condition>
            <id value="a89c1072-a4f3-4dc3-bb73-84a10ccc6d47"/>
            <meta>
               <profile value="http://hl7.org/fhir/uv/ips/StructureDefinition/Condition-uv-ips"/>
            </meta>
            <text>
               <status value="generated"/>
               <div xmlns="http://www.w3.org/1999/xhtml">
                  <table class="hl7__ips">
                     <tr>
                        <td>Essential hypertension</td>
                        <td>
                           <span class="nb">16-Jun-2006</span>
                        </td>
                        <td>active</td>
                     </tr>
                  </table>
               </div>
            </text>
            <category>
               <coding>
                  <system value="http://terminology.hl7.org/CodeSystem/condition-category"/>
                  <code value="problem-list-item"/>
                  <display value="Problem List Item"/>
               </coding>
            </category>
            <code>
               <coding>
                  <system value="http://snomed.info/sct"/>
                  <code value="59621000"/>
                  <display value="Essential hypertension (disorder)"/>
               </coding>
               <text value="Essential hypertension"/>
            </code>
            <subject>
               <reference value="urn:uuid:"/>
               <display value="Leonhard Köhler"/>
            </subject>
            <onsetDateTime value="2006-06-16"/>
            <asserter>
               <reference value="urn:uuid:"/>
               <display value="hier ist kein Ärztehaus"/>
            </asserter>
         </Condition>
      </resource>
   </entry>
   <entry>
      <fullUrl value="urn:uuid:fe657ac0-e87c-46ef-a4e0-c208cad4fbaf"/>
      <resource>
         <Condition>
            <id value="fe657ac0-e87c-46ef-a4e0-c208cad4fbaf"/>
            <meta>
               <profile value="http://hl7.org/fhir/uv/ips/StructureDefinition/Condition-uv-ips"/>
            </meta>
            <text>
               <status value="generated"/>
               <div xmlns="http://www.w3.org/1999/xhtml">
                  <table class="hl7__ips">
                     <tr>
                        <td>Osteoarthritis of knee</td>
                        <td>
                           <span class="nb">09-Sep-2003</span>
                        </td>
                        <td>active</td>
                     </tr>
                  </table>
               </div>
            </text>
            <category>
               <coding>
                  <system value="http://terminology.hl7.org/CodeSystem/condition-category"/>
                  <code value="problem-list-item"/>
                  <display value="Problem List Item"/>
               </coding>
            </category>
            <code>
               <coding>
                  <system value="http://snomed.info/sct"/>
                  <code value="239873007"/>
                  <display value="Osteoarthritis of knee (disorder)"/>
               </coding>
               <text value="Osteoarthritis of knee"/>
            </code>
            <subject>
               <reference value="urn:uuid:"/>
               <display value="Leonhard Köhler"/>
            </subject>
            <onsetDateTime value="2003-09-09"/>
            <asserter>
               <reference value="urn:uuid:"/>
               <display value="hier ist kein Ärztehaus"/>
            </asserter>
         </Condition>
      </resource>
   </entry>
   <entry>
      <fullUrl value="urn:uuid:53a50a8b-eaf8-407d-a251-7c67d481d9df"/>
      <resource>
         <Condition>
            <id value="53a50a8b-eaf8-407d-a251-7c67d481d9df"/>
            <meta>
               <profile value="http://hl7.org/fhir/uv/ips/StructureDefinition/Condition-uv-ips"/>
            </meta>
            <text>
               <status value="generated"/>
               <div xmlns="http://www.w3.org/1999/xhtml">
                  <table class="hl7__ips">
                     <tr>
                        <td>Anemia</td>
                        <td>
                           <span class="nb">12-Jul-1974</span>
                        </td>
                        <td>active</td>
                     </tr>
                  </table>
               </div>
            </text>
            <category>
               <coding>
                  <system value="http://terminology.hl7.org/CodeSystem/condition-category"/>
                  <code value="problem-list-item"/>
                  <display value="Problem List Item"/>
               </coding>
            </category>
            <code>
               <coding>
                  <system value="http://snomed.info/sct"/>
                  <code value="271737000"/>
                  <display value="Anemia (disorder)"/>
               </coding>
               <text value="Anemia"/>
            </code>
            <subject>
               <reference value="urn:uuid:"/>
               <display value="Leonhard Köhler"/>
            </subject>
            <onsetDateTime value="1974-07-12"/>
            <asserter>
               <reference value="urn:uuid:"/>
               <display value="hier ist kein Ärztehaus"/>
            </asserter>
         </Condition>
      </resource>
   </entry>
   <entry>
      <fullUrl value="urn:uuid:49390d57-e591-49fe-8b0c-59d1405e7eed"/>
      <resource>
         <Condition>
            <id value="49390d57-e591-49fe-8b0c-59d1405e7eed"/>
            <meta>
               <profile value="http://hl7.org/fhir/uv/ips/StructureDefinition/Condition-uv-ips"/>
            </meta>
            <text>
               <status value="generated"/>
               <div xmlns="http://www.w3.org/1999/xhtml">
                  <table class="hl7__ips">
                     <tr>
                        <td>Prediabetes</td>
                        <td>
                           <span class="nb">09-Jul-1971</span>
                        </td>
                        <td>active</td>
                     </tr>
                  </table>
               </div>
            </text>
            <category>
               <coding>
                  <system value="http://terminology.hl7.org/CodeSystem/condition-category"/>
                  <code value="problem-list-item"/>
                  <display value="Problem List Item"/>
               </coding>
            </category>
            <code>
               <coding>
                  <system value="http://snomed.info/sct"/>
                  <code value="15777000"/>
                  <display value="Prediabetes (disorder)"/>
               </coding>
               <text value="Prediabetes"/>
            </code>
            <subject>
               <reference value="urn:uuid:"/>
               <display value="Leonhard Köhler"/>
            </subject>
            <onsetDateTime value="1971-07-09"/>
            <asserter>
               <reference value="urn:uuid:"/>
               <display value="hier ist kein Ärztehaus"/>
            </asserter>
         </Condition>
      </resource>
   </entry>
   <entry>
      <fullUrl value="urn:uuid:37f4a4b3-f8cb-4d1a-9833-a62096956795"/>
      <resource>
         <Condition>
            <id value="37f4a4b3-f8cb-4d1a-9833-a62096956795"/>
            <meta>
               <profile value="http://hl7.org/fhir/uv/ips/StructureDefinition/Condition-uv-ips"/>
            </meta>
            <text>
               <status value="generated"/>
               <div xmlns="http://www.w3.org/1999/xhtml">
                  <table class="hl7__ips">
                     <tr>
                        <td>
                           <span class="grayedout">Acute infective cystitis</span>
                        </td>
                        <td>
                           <span class="nb">19-Nov-2024 - 20-Nov-2024</span>
                        </td>
                        <td>
                           <span class="grayedout">inactive</span>
                        </td>
                     </tr>
                  </table>
               </div>
            </text>
            <category>
               <coding>
                  <system value="http://terminology.hl7.org/CodeSystem/condition-category"/>
                  <code value="problem-list-item"/>
                  <display value="Problem List Item"/>
               </coding>
            </category>
            <code>
               <coding>
                  <system value="http://snomed.info/sct"/>
                  <code value="307426000"/>
                  <display value="Acute infective cystitis (disorder)"/>
               </coding>
               <text value="Acute infective cystitis"/>
            </code>
            <subject>
               <reference value="urn:uuid:"/>
               <display value="Leonhard Köhler"/>
            </subject>
            <onsetDateTime value="2024-11-19"/>
            <abatementDateTime value="2024-11-20"/>
            <asserter>
               <reference value="urn:uuid:"/>
               <display value="hier ist kein Ärztehaus"/>
            </asserter>
         </Condition>
      </resource>
   </entry>
   <entry>
      <fullUrl value="urn:uuid:060886ba-f3b6-44c0-9418-1b17ea25aac4"/>
      <resource>
         <Condition>
            <id value="060886ba-f3b6-44c0-9418-1b17ea25aac4"/>
            <meta>
               <profile value="http://hl7.org/fhir/uv/ips/StructureDefinition/Condition-uv-ips"/>
            </meta>
            <text>
               <status value="generated"/>
               <div xmlns="http://www.w3.org/1999/xhtml">
                  <table class="hl7__ips">
                     <tr>
                        <td>
                           <span class="grayedout">Streptococcal sore throat</span>
                        </td>
                        <td>
                           <span class="nb">08-Dec-2023 - 21-Dec-2023</span>
                        </td>
                        <td>
                           <span class="grayedout">inactive</span>
                        </td>
                     </tr>
                  </table>
               </div>
            </text>
            <category>
               <coding>
                  <system value="http://terminology.hl7.org/CodeSystem/condition-category"/>
                  <code value="problem-list-item"/>
                  <display value="Problem List Item"/>
               </coding>
            </category>
            <code>
               <coding>
                  <system value="http://snomed.info/sct"/>
                  <code value="43878008"/>
                  <display value="Streptococcal sore throat (disorder)"/>
               </coding>
               <text value="Streptococcal sore throat"/>
            </code>
            <subject>
               <reference value="urn:uuid:"/>
               <display value="Leonhard Köhler"/>
            </subject>
            <onsetDateTime value="2023-12-08"/>
            <abatementDateTime value="2023-12-21"/>
            <asserter>
               <reference value="urn:uuid:"/>
               <display value="hier ist kein Ärztehaus"/>
            </asserter>
         </Condition>
      </resource>
   </entry>
   <entry>
      <fullUrl value="urn:uuid:62e799d4-dc77-4322-aeb1-203ba4677267"/>
      <resource>
         <Condition>
            <id value="62e799d4-dc77-4322-aeb1-203ba4677267"/>
            <meta>
               <profile value="http://hl7.org/fhir/uv/ips/StructureDefinition/Condition-uv-ips"/>
            </meta>
            <text>
               <status value="generated"/>
               <div xmlns="http://www.w3.org/1999/xhtml">
                  <table class="hl7__ips">
                     <tr>
                        <td>
                           <span class="grayedout">Viral sinusitis</span>
                        </td>
                        <td>
                           <span class="nb">25-Feb-2021 - 16-Mar-2021</span>
                        </td>
                        <td>
                           <span class="grayedout">inactive</span>
                        </td>
                     </tr>
                  </table>
               </div>
            </text>
            <category>
               <coding>
                  <system value="http://terminology.hl7.org/CodeSystem/condition-category"/>
                  <code value="problem-list-item"/>
                  <display value="Problem List Item"/>
               </coding>
            </category>
            <code>
               <coding>
                  <system value="http://snomed.info/sct"/>
                  <code value="444814009"/>
                  <display value="Viral sinusitis (disorder)"/>
               </coding>
               <text value="Viral sinusitis"/>
            </code>
            <subject>
               <reference value="urn:uuid:"/>
               <display value="Leonhard Köhler"/>
            </subject>
            <onsetDateTime value="2021-02-25"/>
            <abatementDateTime value="2021-03-16"/>
            <asserter>
               <reference value="urn:uuid:"/>
               <display value="hier ist kein Ärztehaus"/>
            </asserter>
         </Condition>
      </resource>
   </entry>
   <entry>
      <fullUrl value="urn:uuid:9076bfa6-695f-41a4-9809-f0ee0fecf4de"/>
      <resource>
         <Condition>
            <id value="9076bfa6-695f-41a4-9809-f0ee0fecf4de"/>
            <meta>
               <profile value="http://hl7.org/fhir/uv/ips/StructureDefinition/Condition-uv-ips"/>
            </meta>
            <text>
               <status value="generated"/>
               <div xmlns="http://www.w3.org/1999/xhtml">
                  <table class="hl7__ips">
                     <tr>
                        <td>
                           <span class="grayedout">Acute viral pharyngitis</span>
                        </td>
                        <td>
                           <span class="nb">05-Aug-2019 - 15-Aug-2019</span>
                        </td>
                        <td>
                           <span class="grayedout">inactive</span>
                        </td>
                     </tr>
                  </table>
               </div>
            </text>
            <category>
               <coding>
                  <system value="http://terminology.hl7.org/CodeSystem/condition-category"/>
                  <code value="problem-list-item"/>
                  <display value="Problem List Item"/>
               </coding>
            </category>
            <code>
               <coding>
                  <system value="http://snomed.info/sct"/>
                  <code value="195662009"/>
                  <display value="Acute viral pharyngitis (disorder)"/>
               </coding>
               <text value="Acute viral pharyngitis"/>
            </code>
            <subject>
               <reference value="urn:uuid:"/>
               <display value="Leonhard Köhler"/>
            </subject>
            <onsetDateTime value="2019-08-05"/>
            <abatementDateTime value="2019-08-15"/>
            <asserter>
               <reference value="urn:uuid:"/>
               <display value="hier ist kein Ärztehaus"/>
            </asserter>
         </Condition>
      </resource>
   </entry>
   <entry>
      <fullUrl value="urn:uuid:c57bbc02-e671-4d5e-ba0a-7f45b1c7ea51"/>
      <resource>
         <Condition>
            <id value="c57bbc02-e671-4d5e-ba0a-7f45b1c7ea51"/>
            <meta>
               <profile value="http://hl7.org/fhir/uv/ips/StructureDefinition/Condition-uv-ips"/>
            </meta>
            <text>
               <status value="generated"/>
               <div xmlns="http://www.w3.org/1999/xhtml">
                  <table class="hl7__ips">
                     <tr>
                        <td>
                           <span class="grayedout">Acute bronchitis</span>
                        </td>
                        <td>
                           <span class="nb">31-Oct-2016 - 14-Nov-2016</span>
                        </td>
                        <td>
                           <span class="grayedout">inactive</span>
                        </td>
                     </tr>
                  </table>
               </div>
            </text>
            <category>
               <coding>
                  <system value="http://terminology.hl7.org/CodeSystem/condition-category"/>
                  <code value="problem-list-item"/>
                  <display value="Problem List Item"/>
               </coding>
            </category>
            <code>
               <coding>
                  <system value="http://snomed.info/sct"/>
                  <code value="10509002"/>
                  <display value="Acute bronchitis (disorder)"/>
               </coding>
               <text value="Acute bronchitis"/>
            </code>
            <subject>
               <reference value="urn:uuid:"/>
               <display value="Leonhard Köhler"/>
            </subject>
            <onsetDateTime value="2016-10-31"/>
            <abatementDateTime value="2016-11-14"/>
            <asserter>
               <reference value="urn:uuid:"/>
               <display value="hier ist kein Ärztehaus"/>
            </asserter>
         </Condition>
      </resource>
   </entry>
   <entry>
      <fullUrl value="urn:uuid:a468f47e-e82d-4302-ad53-652353479b53"/>
      <resource>
         <Medication>
            <id value="a468f47e-e82d-4302-ad53-652353479b53"/>
            <meta>
               <profile value="http://hl7.eu/fhir/eps/StructureDefinition/Medication-eu-eps"/>
            </meta>
            <text>
               <status value="generated"/>
               <div xmlns="http://www.w3.org/1999/xhtml">Simvastatin 10 mg oral tablet</div>
            </text>
            <code>
               <coding>
                  <system value="http://snomed.info/sct"/>
                  <code value="319996000"/>
                  <display value="Simvastatin 10 mg oral tablet"/>
               </coding>
               <text value="Simvastatin 10 mg oral tablet"/>
            </code>
         </Medication>
      </resource>
   </entry>
   <entry>
      <fullUrl value="urn:uuid:7480e998-7528-4150-9b06-62587466fae9"/>
      <resource>
         <MedicationStatement>
            <id value="7480e998-7528-4150-9b06-62587466fae9"/>
            <meta>
               <profile value="http://hl7.eu/fhir/eps/StructureDefinition/MedicationStatement-eu-eps"/>
            </meta>
            <text>
               <status value="generated"/>
               <div xmlns="http://www.w3.org/1999/xhtml">
                  <table class="hl7__ips first25">
                     <tr>
                        <th>Medication</th>
                        <th>Since</th>
                        <th>Form</th>
                        <th>Dosage</th>
                        <th>Reason</th>
                     </tr>
                     <tr>
                        <td>Simvastatin 10 mg oral tablet</td>
                        <td>
                           <span class="nb">2024-10-04</span>
                        </td>
                        <td>-</td>
                        <td>1 tablet (10 mg) by mouth once daily</td>
                        <td>Hyperlipidemia</td>
                     </tr>
                  </table>
               </div>
            </text>
            <status value="active"/>
            <medicationReference>
               <reference value="urn:uuid:a468f47e-e82d-4302-ad53-652353479b53"/>
               <display value="Simvastatin 10 mg oral tablet"/>
            </medicationReference>
            <subject>
               <reference value="urn:uuid:2b9dc153-018a-4001-926f-09408efa362d"/>
               <display value="Leonhard Köhler"/>
            </subject>
            <effectivePeriod>
               <start value="2024-10-04"/>
            </effectivePeriod>
            <reasonCode>
               <coding>
                  <system value="http://snomed.info/sct"/>
                  <code value="55822004"/>
                  <display value="Hyperlipidemia"/>
               </coding>
            </reasonCode>
            <dosage>
               <text value="1 tablet (10 mg) by mouth once daily"/>
               <timing>
                  <repeat>
                     <frequency value="1"/>
                     <period value="1"/>
                     <periodUnit value="d"/>
                  </repeat>
               </timing>
               <asNeededBoolean value="false"/>
               <doseAndRate>
                  <doseQuantity>
                     <value value="1"/>
                     <unit value="{tbl}"/>
                     <code value="{tbl}"/>
                  </doseQuantity>
               </doseAndRate>
            </dosage>
         </MedicationStatement>
      </resource>
   </entry>
   <entry>
      <fullUrl value="urn:uuid:bf0a8014-8e45-483e-b4b6-0098e04ebd74"/>
      <resource>
         <Medication>
            <id value="bf0a8014-8e45-483e-b4b6-0098e04ebd74"/>
            <meta>
               <profile value="http://hl7.eu/fhir/eps/StructureDefinition/Medication-eu-eps"/>
            </meta>
            <text>
               <status value="generated"/>
               <div xmlns="http://www.w3.org/1999/xhtml">Amlodipine (as amlodipine besylate) 2.5 mg oral tablet</div>
            </text>
            <code>
               <coding>
                  <system value="http://snomed.info/sct"/>
                  <code value="1153431000"/>
                  <display value="Amlodipine (as amlodipine besylate) 2.5 mg oral tablet"/>
               </coding>
               <text value="Amlodipine (as amlodipine besylate) 2.5 mg oral tablet"/>
            </code>
         </Medication>
      </resource>
   </entry>
   <entry>
      <fullUrl value="urn:uuid:34f7545e-a953-4bc8-bc8d-035009706e33"/>
      <resource>
         <MedicationStatement>
            <id value="34f7545e-a953-4bc8-bc8d-035009706e33"/>
            <meta>
               <profile value="http://hl7.eu/fhir/eps/StructureDefinition/MedicationStatement-eu-eps"/>
            </meta>
            <text>
               <status value="generated"/>
               <div xmlns="http://www.w3.org/1999/xhtml">
                  <table class="hl7__ips first25">
                     <tr>
                        <th>Medication</th>
                        <th>Since</th>
                        <th>Form</th>
                        <th>Dosage</th>
                        <th>Reason</th>
                     </tr>
                     <tr>
                        <td>Amlodipine (as amlodipine besylate) 2.5 mg oral tablet</td>
                        <td>
                           <span class="nb">2024-09-27</span>
                        </td>
                        <td>-</td>
                        <td>1 tablet (2.5 mg) by mouth once daily</td>
                        <td>Essential hypertension (disorder)</td>
                     </tr>
                  </table>
               </div>
            </text>
            <status value="active"/>
            <medicationReference>
               <reference value="urn:uuid:bf0a8014-8e45-483e-b4b6-0098e04ebd74"/>
               <display value="Amlodipine (as amlodipine besylate) 2.5 mg oral tablet"/>
            </medicationReference>
            <subject>
               <reference value="urn:uuid:2b9dc153-018a-4001-926f-09408efa362d"/>
               <display value="Leonhard Köhler"/>
            </subject>
            <effectivePeriod>
               <start value="2024-09-27"/>
            </effectivePeriod>
            <reasonCode>
               <coding>
                  <system value="http://snomed.info/sct"/>
                  <code value="59621000"/>
                  <display value="Essential hypertension (disorder)"/>
               </coding>
            </reasonCode>
            <dosage>
               <text value="1 tablet (2.5 mg) by mouth once daily"/>
               <timing>
                  <repeat>
                     <frequency value="1"/>
                     <period value="1"/>
                     <periodUnit value="d"/>
                  </repeat>
               </timing>
               <asNeededBoolean value="false"/>
               <doseAndRate>
                  <doseQuantity>
                     <value value="1"/>
                     <unit value="{tbl}"/>
                     <code value="{tbl}"/>
                  </doseQuantity>
               </doseAndRate>
            </dosage>
         </MedicationStatement>
      </resource>
   </entry>
   <entry>
      <fullUrl value="urn:uuid:d5cc6a3c-5ae4-4599-8d72-dfa4df6095a2"/>
      <resource>
         <Medication>
            <id value="d5cc6a3c-5ae4-4599-8d72-dfa4df6095a2"/>
            <meta>
               <profile value="http://hl7.eu/fhir/eps/StructureDefinition/Medication-eu-eps"/>
            </meta>
            <text>
               <status value="generated"/>
               <div xmlns="http://www.w3.org/1999/xhtml">Hydrochlorothiazide 25 mg oral tablet</div>
            </text>
            <code>
               <coding>
                  <system value="http://snomed.info/sct"/>
                  <code value="376209006"/>
                  <display value="Hydrochlorothiazide 25 mg oral tablet"/>
               </coding>
               <text value="Hydrochlorothiazide 25 mg oral tablet"/>
            </code>
         </Medication>
      </resource>
   </entry>
   <entry>
      <fullUrl value="urn:uuid:66afff6a-ee0c-4eed-9bb7-a58e5bcd4c96"/>
      <resource>
         <MedicationStatement>
            <id value="66afff6a-ee0c-4eed-9bb7-a58e5bcd4c96"/>
            <meta>
               <profile value="http://hl7.eu/fhir/eps/StructureDefinition/MedicationStatement-eu-eps"/>
            </meta>
            <text>
               <status value="generated"/>
               <div xmlns="http://www.w3.org/1999/xhtml">
                  <table class="hl7__ips first25">
                     <tr>
                        <th>Medication</th>
                        <th>Since</th>
                        <th>Form</th>
                        <th>Dosage</th>
                        <th>Reason</th>
                     </tr>
                     <tr>
                        <td>Hydrochlorothiazide 25 mg oral tablet</td>
                        <td>
                           <span class="nb">2024-09-27</span>
                        </td>
                        <td>-</td>
                        <td>1 tablet (25 mg) by mouth once daily</td>
                        <td>Essential hypertension (disorder)</td>
                     </tr>
                  </table>
               </div>
            </text>
            <status value="active"/>
            <medicationReference>
               <reference value="urn:uuid:d5cc6a3c-5ae4-4599-8d72-dfa4df6095a2"/>
               <display value="Hydrochlorothiazide 25 mg oral tablet"/>
            </medicationReference>
            <subject>
               <reference value="urn:uuid:2b9dc153-018a-4001-926f-09408efa362d"/>
               <display value="Leonhard Köhler"/>
            </subject>
            <effectivePeriod>
               <start value="2024-09-27"/>
            </effectivePeriod>
            <reasonCode>
               <coding>
                  <system value="http://snomed.info/sct"/>
                  <code value="59621000"/>
                  <display value="Essential hypertension (disorder)"/>
               </coding>
            </reasonCode>
            <dosage>
               <text value="1 tablet (25 mg) by mouth once daily"/>
               <timing>
                  <repeat>
                     <frequency value="1"/>
                     <period value="1"/>
                     <periodUnit value="d"/>
                  </repeat>
               </timing>
               <asNeededBoolean value="false"/>
               <doseAndRate>
                  <doseQuantity>
                     <value value="1"/>
                     <unit value="{tbl}"/>
                     <code value="{tbl}"/>
                  </doseQuantity>
               </doseAndRate>
            </dosage>
         </MedicationStatement>
      </resource>
   </entry>
   <entry>
      <fullUrl value="urn:uuid:339fc8af-c5aa-4f62-8edc-55e4e3426377"/>
      <resource>
         <Medication>
            <id value="339fc8af-c5aa-4f62-8edc-55e4e3426377"/>
            <meta>
               <profile value="http://hl7.eu/fhir/eps/StructureDefinition/Medication-eu-eps"/>
            </meta>
            <text>
               <status value="generated"/>
               <div xmlns="http://www.w3.org/1999/xhtml">Lisinopril 10 mg oral tablet</div>
            </text>
            <code>
               <coding>
                  <system value="http://snomed.info/sct"/>
                  <code value="318859000"/>
                  <display value="Lisinopril 10 mg oral tablet"/>
               </coding>
               <text value="Lisinopril 10 mg oral tablet"/>
            </code>
         </Medication>
      </resource>
   </entry>
   <entry>
      <fullUrl value="urn:uuid:4c9a0213-33ad-4a6e-90e3-f031f2283ad6"/>
      <resource>
         <MedicationStatement>
            <id value="4c9a0213-33ad-4a6e-90e3-f031f2283ad6"/>
            <meta>
               <profile value="http://hl7.eu/fhir/eps/StructureDefinition/MedicationStatement-eu-eps"/>
            </meta>
            <text>
               <status value="generated"/>
               <div xmlns="http://www.w3.org/1999/xhtml">
                  <table class="hl7__ips first25">
                     <tr>
                        <th>Medication</th>
                        <th>Since</th>
                        <th>Form</th>
                        <th>Dosage</th>
                        <th>Reason</th>
                     </tr>
                     <tr>
                        <td>Lisinopril 10 mg oral tablet</td>
                        <td>
                           <span class="nb">2024-09-27</span>
                        </td>
                        <td>-</td>
                        <td>1 tablet (10 mg) by mouth once daily</td>
                        <td>Essential hypertension (disorder)</td>
                     </tr>
                  </table>
               </div>
            </text>
            <status value="active"/>
            <medicationReference>
               <reference value="urn:uuid:339fc8af-c5aa-4f62-8edc-55e4e3426377"/>
               <display value="Lisinopril 10 mg oral tablet"/>
            </medicationReference>
            <subject>
               <reference value="urn:uuid:2b9dc153-018a-4001-926f-09408efa362d"/>
               <display value="Leonhard Köhler"/>
            </subject>
            <effectivePeriod>
               <start value="2024-09-27"/>
            </effectivePeriod>
            <reasonCode>
               <coding>
                  <system value="http://snomed.info/sct"/>
                  <code value="59621000"/>
                  <display value="Essential hypertension (disorder)"/>
               </coding>
            </reasonCode>
            <dosage>
               <text value="1 tablet (10 mg) by mouth once daily"/>
               <timing>
                  <repeat>
                     <frequency value="1"/>
                     <period value="1"/>
                     <periodUnit value="d"/>
                  </repeat>
               </timing>
               <asNeededBoolean value="false"/>
               <doseAndRate>
                  <doseQuantity>
                     <value value="1"/>
                     <unit value="{tbl}"/>
                     <code value="{tbl}"/>
                  </doseQuantity>
               </doseAndRate>
            </dosage>
         </MedicationStatement>
      </resource>
   </entry>
   <entry>
      <fullUrl value="urn:uuid:7c980d7c-e669-4a90-bc30-cab62822f4d9"/>
      <resource>
         <Medication>
            <id value="7c980d7c-e669-4a90-bc30-cab62822f4d9"/>
            <meta>
               <profile value="http://hl7.eu/fhir/eps/StructureDefinition/Medication-eu-eps"/>
            </meta>
            <text>
               <status value="generated"/>
               <div xmlns="http://www.w3.org/1999/xhtml">Clopidogrel (as clopidogrel bisulfate) 75 mg oral tablet</div>
            </text>
            <code>
               <coding>
                  <system value="http://snomed.info/sct"/>
                  <code value="783586007"/>
                  <display value="Clopidogrel (as clopidogrel bisulfate) 75 mg oral tablet"/>
               </coding>
               <text value="Clopidogrel (as clopidogrel bisulfate) 75 mg oral tablet"/>
            </code>
         </Medication>
      </resource>
   </entry>
   <entry>
      <fullUrl value="urn:uuid:669f54e9-ec4b-403e-bc0d-132aa4db273d"/>
      <resource>
         <MedicationStatement>
            <id value="669f54e9-ec4b-403e-bc0d-132aa4db273d"/>
            <meta>
               <profile value="http://hl7.eu/fhir/eps/StructureDefinition/MedicationStatement-eu-eps"/>
            </meta>
            <text>
               <status value="generated"/>
               <div xmlns="http://www.w3.org/1999/xhtml">
                  <table class="hl7__ips first25">
                     <tr>
                        <th>Medication</th>
                        <th>Since</th>
                        <th>Form</th>
                        <th>Dosage</th>
                        <th>Reason</th>
                     </tr>
                     <tr>
                        <td>Clopidogrel (as clopidogrel bisulfate) 75 mg oral tablet</td>
                        <td>
                           <span class="nb">2010-07-16</span>
                        </td>
                        <td>-</td>
                        <td>1 tablet (75 mg) once daily</td>
                        <td>-</td>
                     </tr>
                  </table>
               </div>
            </text>
            <status value="active"/>
            <medicationReference>
               <reference value="urn:uuid:7c980d7c-e669-4a90-bc30-cab62822f4d9"/>
               <display value="Clopidogrel (as clopidogrel bisulfate) 75 mg oral tablet"/>
            </medicationReference>
            <subject>
               <reference value="urn:uuid:2b9dc153-018a-4001-926f-09408efa362d"/>
               <display value="Leonhard Köhler"/>
            </subject>
            <effectivePeriod>
               <start value="2010-07-16"/>
            </effectivePeriod>
            <dosage>
               <text value="1 tablet (75 mg) once daily"/>
               <timing>
                  <repeat>
                     <frequency value="1"/>
                     <period value="1"/>
                     <periodUnit value="d"/>
                  </repeat>
               </timing>
               <asNeededBoolean value="false"/>
               <doseAndRate>
                  <doseQuantity>
                     <value value="1"/>
                     <unit value="{tbl}"/>
                     <code value="{tbl}"/>
                  </doseQuantity>
               </doseAndRate>
            </dosage>
         </MedicationStatement>
      </resource>
   </entry>
   <entry>
      <fullUrl value="urn:uuid:e91fcd52-f789-4d12-8674-4c7481f3ec9f"/>
      <resource>
         <Medication>
            <id value="e91fcd52-f789-4d12-8674-4c7481f3ec9f"/>
            <meta>
               <profile value="http://hl7.eu/fhir/eps/StructureDefinition/Medication-eu-eps"/>
            </meta>
            <text>
               <status value="generated"/>
               <div xmlns="http://www.w3.org/1999/xhtml">Simvastatin 20 mg oral tablet</div>
            </text>
            <code>
               <coding>
                  <system value="http://snomed.info/sct"/>
                  <code value="319997009"/>
                  <display value="Simvastatin 20 mg oral tablet"/>
               </coding>
               <text value="Simvastatin 20 mg oral tablet"/>
            </code>
         </Medication>
      </resource>
   </entry>
   <entry>
      <fullUrl value="urn:uuid:1c0830c1-80e8-4c1d-a763-eef0a9612b85"/>
      <resource>
         <MedicationStatement>
            <id value="1c0830c1-80e8-4c1d-a763-eef0a9612b85"/>
            <meta>
               <profile value="http://hl7.eu/fhir/eps/StructureDefinition/MedicationStatement-eu-eps"/>
            </meta>
            <text>
               <status value="generated"/>
               <div xmlns="http://www.w3.org/1999/xhtml">
                  <table class="hl7__ips first25">
                     <tr>
                        <th>Medication</th>
                        <th>Since</th>
                        <th>Form</th>
                        <th>Dosage</th>
                        <th>Reason</th>
                     </tr>
                     <tr>
                        <td>Simvastatin 20 mg oral tablet</td>
                        <td>
                           <span class="nb">2010-07-16</span>
                        </td>
                        <td>-</td>
                        <td>1 tablet (20 mg) by mouth once daily</td>
                        <td>-</td>
                     </tr>
                  </table>
               </div>
            </text>
            <status value="active"/>
            <medicationReference>
               <reference value="urn:uuid:e91fcd52-f789-4d12-8674-4c7481f3ec9f"/>
               <display value="Simvastatin 20 mg oral tablet"/>
            </medicationReference>
            <subject>
               <reference value="urn:uuid:2b9dc153-018a-4001-926f-09408efa362d"/>
               <display value="Leonhard Köhler"/>
            </subject>
            <effectivePeriod>
               <start value="2010-07-16"/>
            </effectivePeriod>
            <dosage>
               <text value="1 tablet (20 mg) by mouth once daily"/>
               <timing>
                  <repeat>
                     <frequency value="1"/>
                     <period value="1"/>
                     <periodUnit value="d"/>
                  </repeat>
               </timing>
               <asNeededBoolean value="false"/>
               <doseAndRate>
                  <doseQuantity>
                     <value value="1"/>
                     <unit value="{tbl}"/>
                     <code value="{tbl}"/>
                  </doseQuantity>
               </doseAndRate>
            </dosage>
         </MedicationStatement>
      </resource>
   </entry>
   <entry>
      <fullUrl value="urn:uuid:bfed8cfd-3c12-4e4c-9a6c-64e6e2d47217"/>
      <resource>
         <Medication>
            <id value="bfed8cfd-3c12-4e4c-9a6c-64e6e2d47217"/>
            <meta>
               <profile value="http://hl7.eu/fhir/eps/StructureDefinition/Medication-eu-eps"/>
            </meta>
            <text>
               <status value="generated"/>
               <div xmlns="http://www.w3.org/1999/xhtml">Nitroglycerin 400 microgram/actuation sublingual spray</div>
            </text>
            <code>
               <coding>
                  <system value="http://snomed.info/sct"/>
                  <code value="425176000"/>
                  <display value="Nitroglycerin 400 microgram/actuation sublingual spray"/>
               </coding>
               <text value="Nitroglycerin 400 microgram/actuation sublingual spray"/>
            </code>
         </Medication>
      </resource>
   </entry>
   <entry>
      <fullUrl value="urn:uuid:c2b44426-266e-45ea-bf65-a34c75832887"/>
      <resource>
         <MedicationStatement>
            <id value="c2b44426-266e-45ea-bf65-a34c75832887"/>
            <meta>
               <profile value="http://hl7.eu/fhir/eps/StructureDefinition/MedicationStatement-eu-eps"/>
            </meta>
            <text>
               <status value="generated"/>
               <div xmlns="http://www.w3.org/1999/xhtml">
                  <table class="hl7__ips first25">
                     <tr>
                        <th>Medication</th>
                        <th>Since</th>
                        <th>Form</th>
                        <th>Dosage</th>
                        <th>Reason</th>
                     </tr>
                     <tr>
                        <td>Nitroglycerin 400 microgram/actuation sublingual spray</td>
                        <td>
                           <span class="nb">2010-07-16</span>
                        </td>
                        <td>-</td>
                        <td>400 micrograms per spray, 1 spray under the tongue as needed for chest pain, may repeat every 5 minutes as needed, up to 3 sprays in 15 minutes</td>
                        <td>-</td>
                     </tr>
                  </table>
               </div>
            </text>
            <status value="active"/>
            <medicationReference>
               <reference value="urn:uuid:bfed8cfd-3c12-4e4c-9a6c-64e6e2d47217"/>
               <display value="Nitroglycerin 400 microgram/actuation sublingual spray"/>
            </medicationReference>
            <subject>
               <reference value="urn:uuid:2b9dc153-018a-4001-926f-09408efa362d"/>
               <display value="Leonhard Köhler"/>
            </subject>
            <effectivePeriod>
               <start value="2010-07-16"/>
            </effectivePeriod>
            <dosage>
               <text value="400 micrograms per spray, 1 spray under the tongue as needed for chest pain, may repeat every 5 minutes as needed, up to 3 sprays in 15 minutes"/>
               <timing>
                  <repeat>
                     <frequency value="1"/>
                     <period value="5"/>
                     <periodUnit value="min"/>
                  </repeat>
               </timing>
               <asNeededBoolean value="true"/>
               <doseAndRate>
                  <doseQuantity>
                     <value value="400"/>
                     <unit value="microgram"/>
                     <code value="ug"/>
                  </doseQuantity>
               </doseAndRate>
            </dosage>
         </MedicationStatement>
      </resource>
   </entry>
   <entry>
      <fullUrl value="urn:uuid:cde1b16c-c372-4d7d-a34e-d2f0008e4ca9"/>
      <resource>
         <Medication>
            <id value="cde1b16c-c372-4d7d-a34e-d2f0008e4ca9"/>
            <meta>
               <profile value="http://hl7.eu/fhir/eps/StructureDefinition/Medication-eu-eps"/>
            </meta>
            <text>
               <status value="generated"/>
               <div xmlns="http://www.w3.org/1999/xhtml">Metoprolol tartrate (as metoprolol succinate) 100 mg prolonged-release oral tablet</div>
            </text>
            <code>
               <coding>
                  <system value="http://snomed.info/sct"/>
                  <code value="879980009"/>
                  <display value="Metoprolol tartrate (as metoprolol succinate) 100 mg prolonged-release oral tablet"/>
               </coding>
               <text value="Metoprolol tartrate (as metoprolol succinate) 100 mg prolonged-release oral tablet"/>
            </code>
         </Medication>
      </resource>
   </entry>
   <entry>
      <fullUrl value="urn:uuid:51443a37-dadc-4e91-8b47-8f16afb7d58e"/>
      <resource>
         <MedicationStatement>
            <id value="51443a37-dadc-4e91-8b47-8f16afb7d58e"/>
            <meta>
               <profile value="http://hl7.eu/fhir/eps/StructureDefinition/MedicationStatement-eu-eps"/>
            </meta>
            <text>
               <status value="generated"/>
               <div xmlns="http://www.w3.org/1999/xhtml">
                  <table class="hl7__ips first25">
                     <tr>
                        <th>Medication</th>
                        <th>Since</th>
                        <th>Form</th>
                        <th>Dosage</th>
                        <th>Reason</th>
                     </tr>
                     <tr>
                        <td>Metoprolol tartrate (as metoprolol succinate) 100 mg prolonged-release oral tablet</td>
                        <td>
                           <span class="nb">2010-07-16</span>
                        </td>
                        <td>-</td>
                        <td>1 tablet (100 mg) once daily</td>
                        <td>-</td>
                     </tr>
                  </table>
               </div>
            </text>
            <status value="active"/>
            <medicationReference>
               <reference value="urn:uuid:cde1b16c-c372-4d7d-a34e-d2f0008e4ca9"/>
               <display value="Metoprolol tartrate (as metoprolol succinate) 100 mg prolonged-release oral tablet"/>
            </medicationReference>
            <subject>
               <reference value="urn:uuid:2b9dc153-018a-4001-926f-09408efa362d"/>
               <display value="Leonhard Köhler"/>
            </subject>
            <effectivePeriod>
               <start value="2010-07-16"/>
            </effectivePeriod>
            <dosage>
               <text value="1 tablet (100 mg) once daily"/>
               <timing>
                  <repeat>
                     <frequency value="1"/>
                     <period value="1"/>
                     <periodUnit value="d"/>
                  </repeat>
               </timing>
               <asNeededBoolean value="false"/>
               <doseAndRate>
                  <doseQuantity>
                     <value value="1"/>
                     <unit value="{tbl}"/>
                     <code value="{tbl}"/>
                  </doseQuantity>
               </doseAndRate>
            </dosage>
         </MedicationStatement>
      </resource>
   </entry>
   <entry>
      <fullUrl value="urn:uuid:9ddca968-dd01-4b67-843b-8a9f218f08fa"/>
      <resource>
         <Medication>
            <id value="9ddca968-dd01-4b67-843b-8a9f218f08fa"/>
            <meta>
               <profile value="http://hl7.eu/fhir/eps/StructureDefinition/Medication-eu-eps"/>
            </meta>
            <text>
               <status value="generated"/>
               <div xmlns="http://www.w3.org/1999/xhtml">Naproxen sodium 220 mg oral capsule</div>
            </text>
            <code>
               <coding>
                  <system value="http://snomed.info/sct"/>
                  <code value="420276008"/>
                  <display value="Naproxen sodium 220 mg oral capsule"/>
               </coding>
               <text value="Naproxen sodium 220 mg oral capsule"/>
            </code>
         </Medication>
      </resource>
   </entry>
   <entry>
      <fullUrl value="urn:uuid:826751f2-7aa5-46d5-b5ba-1d7e96dcd944"/>
      <resource>
         <MedicationStatement>
            <id value="826751f2-7aa5-46d5-b5ba-1d7e96dcd944"/>
            <meta>
               <profile value="http://hl7.eu/fhir/eps/StructureDefinition/MedicationStatement-eu-eps"/>
            </meta>
            <text>
               <status value="generated"/>
               <div xmlns="http://www.w3.org/1999/xhtml">
                  <table class="hl7__ips first25">
                     <tr>
                        <th>Medication</th>
                        <th>Since</th>
                        <th>Form</th>
                        <th>Dosage</th>
                        <th>Reason</th>
                     </tr>
                     <tr>
                        <td>Naproxen sodium 220 mg oral capsule</td>
                        <td>
                           <span class="nb">2003-09-09</span>
                        </td>
                        <td>-</td>
                        <td>1 tablet (220 mg) by mouth every 12 hours as needed</td>
                        <td>Osteoarthritis of knee</td>
                     </tr>
                  </table>
               </div>
            </text>
            <status value="active"/>
            <medicationReference>
               <reference value="urn:uuid:9ddca968-dd01-4b67-843b-8a9f218f08fa"/>
               <display value="Naproxen sodium 220 mg oral capsule"/>
            </medicationReference>
            <subject>
               <reference value="urn:uuid:2b9dc153-018a-4001-926f-09408efa362d"/>
               <display value="Leonhard Köhler"/>
            </subject>
            <effectivePeriod>
               <start value="2003-09-09"/>
            </effectivePeriod>
            <reasonCode>
               <coding>
                  <system value="http://snomed.info/sct"/>
                  <code value="239873007"/>
                  <display value="Osteoarthritis of knee"/>
               </coding>
            </reasonCode>
            <dosage>
               <text value="1 tablet (220 mg) by mouth every 12 hours as needed"/>
               <timing>
                  <repeat>
                     <frequency value="2"/>
                     <period value="1"/>
                     <periodUnit value="d"/>
                  </repeat>
               </timing>
               <asNeededBoolean value="true"/>
               <doseAndRate>
                  <doseQuantity>
                     <value value="1"/>
                     <unit value="{tbl}"/>
                     <system value="$ucum"/>
                     <code value="{tbl}"/>
                  </doseQuantity>
               </doseAndRate>
            </dosage>
         </MedicationStatement>
      </resource>
   </entry>
   <entry>
      <fullUrl value="urn:uuid:a8ba8738-2145-41f0-8044-e0687a4099d5"/>
      <resource>
         <Immunization>
            <id value="a8ba8738-2145-41f0-8044-e0687a4099d5"/>
            <meta>
               <profile value="http://hl7.org/fhir/uv/ips/StructureDefinition/Immunization-uv-ips"/>
            </meta>
            <text>
               <status value="generated"/>
               <div xmlns="http://www.w3.org/1999/xhtml">
                  <table class="hl7__ips">
                     <tr>
                        <td>Influenza virus antigen only vaccine product</td>
                        <td>
                           <span class="nb">01-Dec-2023</span>
                        </td>
                     </tr>
                  </table>
               </div>
            </text>
            <status value="completed"/>
            <vaccineCode>
               <coding>
                  <system value="http://snomed.info/sct"/>
                  <code value="1181000221105"/>
                  <display value="Vaccine product containing Influenza virus antigen"/>
               </coding>
               <coding>
                  <system value="http://www.whocc.no/atc"/>
                  <code value="J07BB02"/>
                  <display value="Influenza, inactivated, split virus"/>
               </coding>
               <text value="Influenza virus antigen only vaccine product"/>
            </vaccineCode>
            <patient>
               <reference value="urn:uuid:2b9dc153-018a-4001-926f-09408efa362d"/>
               <display value="Leonhard Köhler"/>
            </patient>
            <occurrenceDateTime value="2023-12-01"/>
            <lotNumber value="PN-NzLB6"/>
            <expirationDate value="2024-01-20"/>
            <site>
               <coding>
                  <system value="http://snomed.info/sct"/>
                  <code value="244979005"/>
                  <display value="Entire muscle of upper arm"/>
               </coding>
               <text value="Entire muscle of upper arm"/>
            </site>
            <route>
               <coding>
                  <system value="http://snomed.info/sct"/>
                  <code value="78421000"/>
                  <display value="Intramuscular route"/>
               </coding>
               <text value="Intramuscular route"/>
            </route>
         </Immunization>
      </resource>
   </entry>
   <entry>
      <fullUrl value="urn:uuid:e902ef52-ada1-4b97-be52-d6c8fed36257"/>
      <resource>
         <Immunization>
            <id value="e902ef52-ada1-4b97-be52-d6c8fed36257"/>
            <meta>
               <profile value="http://hl7.org/fhir/uv/ips/StructureDefinition/Immunization-uv-ips"/>
            </meta>
            <text>
               <status value="generated"/>
               <div xmlns="http://www.w3.org/1999/xhtml">
                  <table class="hl7__ips">
                     <tr>
                        <td>SARS-CoV-2 mRNA vaccine</td>
                        <td>
                           <span class="nb">30-Apr-2021</span>
                        </td>
                     </tr>
                  </table>
               </div>
            </text>
            <status value="completed"/>
            <vaccineCode>
               <coding>
                  <system value="http://snomed.info/sct"/>
                  <code value="1119349007"/>
                  <display value="Vaccine product containing SARS-CoV-2 mRNA"/>
               </coding>
               <coding>
                  <system value="http://www.whocc.no/atc"/>
                  <code value="J07BX03"/>
                  <display value="COVID-19 mRNA vaccines"/>
               </coding>
               <text value="SARS-CoV-2 mRNA vaccine"/>
            </vaccineCode>
            <patient>
               <reference value="urn:uuid:2b9dc153-018a-4001-926f-09408efa362d"/>
               <display value="Leonhard Köhler"/>
            </patient>
            <occurrenceDateTime value="2021-04-30"/>
            <lotNumber value="BT-j7Mk93QC"/>
            <expirationDate value="2022-04-06"/>
            <site>
               <coding>
                  <system value="http://snomed.info/sct"/>
                  <code value="244979005"/>
                  <display value="Entire muscle of upper arm"/>
               </coding>
               <text value="Entire muscle of upper arm"/>
            </site>
            <route>
               <coding>
                  <system value="http://snomed.info/sct"/>
                  <code value="78421000"/>
                  <display value="Intramuscular route"/>
               </coding>
               <text value="Intramuscular route"/>
            </route>
         </Immunization>
      </resource>
   </entry>
   <entry>
      <fullUrl value="urn:uuid:add472ec-2d26-4482-9d3c-65a2fa696c08"/>
      <resource>
         <Immunization>
            <id value="add472ec-2d26-4482-9d3c-65a2fa696c08"/>
            <meta>
               <profile value="http://hl7.org/fhir/uv/ips/StructureDefinition/Immunization-uv-ips"/>
            </meta>
            <text>
               <status value="generated"/>
               <div xmlns="http://www.w3.org/1999/xhtml">
                  <table class="hl7__ips">
                     <tr>
                        <td>Clostridium tetani toxoid antigen adsorbed only vaccine product</td>
                        <td>
                           <span class="nb">04-Sep-2020</span>
                        </td>
                     </tr>
                  </table>
               </div>
            </text>
            <status value="completed"/>
            <vaccineCode>
               <coding>
                  <system value="http://snomed.info/sct"/>
                  <code value="777725002"/>
                  <display value="Vaccine product containing only Clostridium tetani toxoid antigen adsorbed"/>
               </coding>
               <coding>
                  <system value="http://www.whocc.no/atc"/>
                  <code value="J07AM51"/>
                  <display value="Diphtheria-tetanus vaccines, adult type"/>
               </coding>
               <text value="Clostridium tetani toxoid antigen adsorbed only vaccine product"/>
            </vaccineCode>
            <patient>
               <reference value="urn:uuid:2b9dc153-018a-4001-926f-09408efa362d"/>
               <display value="Leonhard Köhler"/>
            </patient>
            <occurrenceDateTime value="2020-09-04"/>
            <lotNumber value="YJ-trEsp3"/>
            <expirationDate value="2020-10-06"/>
            <site>
               <coding>
                  <system value="http://snomed.info/sct"/>
                  <code value="244979005"/>
                  <display value="Entire muscle of upper arm"/>
               </coding>
               <text value="Entire muscle of upper arm"/>
            </site>
            <route>
               <coding>
                  <system value="http://snomed.info/sct"/>
                  <code value="78421000"/>
                  <display value="Intramuscular route"/>
               </coding>
               <text value="Intramuscular route"/>
            </route>
         </Immunization>
      </resource>
   </entry>
   <entry>
      <fullUrl value="urn:uuid:a1d789c6-0566-49b0-95e5-987616cbf72b"/>
      <resource>
         <Immunization>
            <id value="a1d789c6-0566-49b0-95e5-987616cbf72b"/>
            <meta>
               <profile value="http://hl7.org/fhir/uv/ips/StructureDefinition/Immunization-uv-ips"/>
            </meta>
            <text>
               <status value="generated"/>
               <div xmlns="http://www.w3.org/1999/xhtml">
                  <table class="hl7__ips">
                     <tr>
                        <td>Streptococcus pneumoniae Danish serotype 1</td>
                        <td>
                           <span class="nb">07-Aug-2015</span>
                        </td>
                     </tr>
                  </table>
               </div>
            </text>
            <status value="completed"/>
            <vaccineCode>
               <coding>
                  <system value="http://snomed.info/sct"/>
                  <code value="1252709000"/>
                  <display value="Vaccine product containing Streptococcus pneumoniae capsular polysaccharide antigens conjugated"/>
               </coding>
               <coding>
                  <system value="http://www.whocc.no/atc"/>
                  <code value="J07AL01"/>
                  <display value="Pneumococcal polysaccharide vaccines"/>
               </coding>
               <text value="Streptococcus pneumoniae Danish serotype 1"/>
            </vaccineCode>
            <patient>
               <reference value="urn:uuid:2b9dc153-018a-4001-926f-09408efa362d"/>
               <display value="Leonhard Köhler"/>
            </patient>
            <occurrenceDateTime value="2015-08-07"/>
            <lotNumber value="XE-bTJSSZLa"/>
            <expirationDate value="2015-10-29"/>
            <site>
               <coding>
                  <system value="http://snomed.info/sct"/>
                  <code value="244979005"/>
                  <display value="Entire muscle of upper arm"/>
               </coding>
               <text value="Entire muscle of upper arm"/>
            </site>
            <route>
               <coding>
                  <system value="http://snomed.info/sct"/>
                  <code value="78421000"/>
                  <display value="Intramuscular route"/>
               </coding>
               <text value="Intramuscular route"/>
            </route>
         </Immunization>
      </resource>
   </entry>
   <entry>
      <fullUrl value="urn:uuid:13aad801-add2-4266-92dd-a05ed36bfae3"/>
      <resource>
         <Procedure>
            <id value="13aad801-add2-4266-92dd-a05ed36bfae3"/>
            <meta>
               <profile value="http://hl7.org/fhir/uv/ips/StructureDefinition/Procedure-uv-ips"/>
            </meta>
            <text>
               <status value="generated"/>
               <div xmlns="http://www.w3.org/1999/xhtml">
                  <table class="hl7__ips">
                     <tr>
                        <td>Patient evaluation and management</td>
                        <td>
                           <span class="nb">19-Nov-2024</span>
                        </td>
                        <td>-</td>
                     </tr>
                  </table>
               </div>
            </text>
            <status value="completed"/>
            <code>
               <coding>
                  <system value="http://snomed.info/sct"/>
                  <code value="14736009"/>
                  <display value="History and physical examination with evaluation and management of patient (procedure)"/>
               </coding>
               <text value="Patient evaluation and management"/>
            </code>
            <subject>
               <reference value="urn:uuid:"/>
               <display value="Leonhard Köhler"/>
            </subject>
            <performedDateTime value="2024-11-19"/>
         </Procedure>
      </resource>
   </entry>
   <entry>
      <fullUrl value="urn:uuid:d47b7f46-d416-44d8-80e8-26399bf9ecbb"/>
      <resource>
         <Procedure>
            <id value="d47b7f46-d416-44d8-80e8-26399bf9ecbb"/>
            <meta>
               <profile value="http://hl7.org/fhir/uv/ips/StructureDefinition/Procedure-uv-ips"/>
            </meta>
            <text>
               <status value="generated"/>
               <div xmlns="http://www.w3.org/1999/xhtml">
                  <table class="hl7__ips">
                     <tr>
                        <td>Urine specimen collection</td>
                        <td>
                           <span class="nb">19-Nov-2024</span>
                        </td>
                        <td>-</td>
                     </tr>
                  </table>
               </div>
            </text>
            <status value="completed"/>
            <code>
               <coding>
                  <system value="http://snomed.info/sct"/>
                  <code value="57617002"/>
                  <display value="Urine specimen collection (procedure)"/>
               </coding>
               <text value="Urine specimen collection"/>
            </code>
            <subject>
               <reference value="urn:uuid:"/>
               <display value="Leonhard Köhler"/>
            </subject>
            <performedDateTime value="2024-11-19"/>
         </Procedure>
      </resource>
   </entry>
   <entry>
      <fullUrl value="urn:uuid:94fef692-fe25-4fee-b77c-97fb7338b0db"/>
      <resource>
         <Procedure>
            <id value="94fef692-fe25-4fee-b77c-97fb7338b0db"/>
            <meta>
               <profile value="http://hl7.org/fhir/uv/ips/StructureDefinition/Procedure-uv-ips"/>
            </meta>
            <text>
               <status value="generated"/>
               <div xmlns="http://www.w3.org/1999/xhtml">
                  <table class="hl7__ips">
                     <tr>
                        <td>Patient discharge</td>
                        <td>
                           <span class="nb">19-Nov-2024</span>
                        </td>
                        <td>-</td>
                     </tr>
                  </table>
               </div>
            </text>
            <status value="completed"/>
            <code>
               <coding>
                  <system value="http://snomed.info/sct"/>
                  <code value="58000006"/>
                  <display value="Patient discharge (procedure)"/>
               </coding>
               <text value="Patient discharge"/>
            </code>
            <subject>
               <reference value="urn:uuid:"/>
               <display value="Leonhard Köhler"/>
            </subject>
            <performedDateTime value="2024-11-19"/>
         </Procedure>
      </resource>
   </entry>
   <entry>
      <fullUrl value="urn:uuid:8fb53004-3520-415a-865b-2ce517f60e64"/>
      <resource>
         <Procedure>
            <id value="8fb53004-3520-415a-865b-2ce517f60e64"/>
            <meta>
               <profile value="http://hl7.org/fhir/uv/ips/StructureDefinition/Procedure-uv-ips"/>
            </meta>
            <text>
               <status value="generated"/>
               <div xmlns="http://www.w3.org/1999/xhtml">
                  <table class="hl7__ips">
                     <tr>
                        <td>Taking patient vital signs</td>
                        <td>
                           <span class="nb">19-Nov-2024</span>
                        </td>
                        <td>-</td>
                     </tr>
                  </table>
               </div>
            </text>
            <status value="completed"/>
            <code>
               <coding>
                  <system value="http://snomed.info/sct"/>
                  <code value="61746007"/>
                  <display value="Taking patient vital signs (procedure)"/>
               </coding>
               <text value="Taking patient vital signs"/>
            </code>
            <subject>
               <reference value="urn:uuid:"/>
               <display value="Leonhard Köhler"/>
            </subject>
            <performedDateTime value="2024-11-19"/>
         </Procedure>
      </resource>
   </entry>
   <entry>
      <fullUrl value="urn:uuid:890789da-a69b-465d-9628-cd724243827f"/>
      <resource>
         <Procedure>
            <id value="890789da-a69b-465d-9628-cd724243827f"/>
            <meta>
               <profile value="http://hl7.org/fhir/uv/ips/StructureDefinition/Procedure-uv-ips"/>
            </meta>
            <text>
               <status value="generated"/>
               <div xmlns="http://www.w3.org/1999/xhtml">
                  <table class="hl7__ips">
                     <tr>
                        <td>Antibiotic therapy</td>
                        <td>
                           <span class="nb">19-Nov-2024</span>
                        </td>
                        <td>-</td>
                     </tr>
                  </table>
               </div>
            </text>
            <status value="completed"/>
            <code>
               <coding>
                  <system value="http://snomed.info/sct"/>
                  <code value="281789004"/>
                  <display value="Antibiotic therapy (procedure)"/>
               </coding>
               <text value="Antibiotic therapy"/>
            </code>
            <subject>
               <reference value="urn:uuid:"/>
               <display value="Leonhard Köhler"/>
            </subject>
            <performedDateTime value="2024-11-19"/>
         </Procedure>
      </resource>
   </entry>
   <entry>
      <fullUrl value="urn:uuid:a10f4b6b-c71e-42b4-b6d9-22930c93c7cb"/>
      <resource>
         <Procedure>
            <id value="a10f4b6b-c71e-42b4-b6d9-22930c93c7cb"/>
            <meta>
               <profile value="http://hl7.org/fhir/uv/ips/StructureDefinition/Procedure-uv-ips"/>
            </meta>
            <text>
               <status value="generated"/>
               <div xmlns="http://www.w3.org/1999/xhtml">
                  <table class="hl7__ips">
                     <tr>
                        <td>Triage: emergency center</td>
                        <td>
                           <span class="nb">19-Nov-2024</span>
                        </td>
                        <td>-</td>
                     </tr>
                  </table>
               </div>
            </text>
            <status value="completed"/>
            <code>
               <coding>
                  <system value="http://snomed.info/sct"/>
                  <code value="386478007"/>
                  <display value="Triage emergency center (procedure)"/>
               </coding>
               <text value="Triage: emergency center"/>
            </code>
            <subject>
               <reference value="urn:uuid:"/>
               <display value="Leonhard Köhler"/>
            </subject>
            <performedDateTime value="2024-11-19"/>
         </Procedure>
      </resource>
   </entry>
   <entry>
      <fullUrl value="urn:uuid:09302a19-667a-4ece-a1d5-9a37a9739944"/>
      <resource>
         <Procedure>
            <id value="09302a19-667a-4ece-a1d5-9a37a9739944"/>
            <meta>
               <profile value="http://hl7.org/fhir/uv/ips/StructureDefinition/Procedure-uv-ips"/>
            </meta>
            <text>
               <status value="generated"/>
               <div xmlns="http://www.w3.org/1999/xhtml">
                  <table class="hl7__ips">
                     <tr>
                        <td>Urinalysis with reflex to microscopy and culture</td>
                        <td>
                           <span class="nb">19-Nov-2024</span>
                        </td>
                        <td>-</td>
                     </tr>
                  </table>
               </div>
            </text>
            <status value="completed"/>
            <code>
               <coding>
                  <system value="http://snomed.info/sct"/>
                  <code value="441550005"/>
                  <display value="Urinalysis with reflex to microscopy and culture (procedure)"/>
               </coding>
               <text value="Urinalysis with reflex to microscopy and culture"/>
            </code>
            <subject>
               <reference value="urn:uuid:"/>
               <display value="Leonhard Köhler"/>
            </subject>
            <performedDateTime value="2024-11-19"/>
         </Procedure>
      </resource>
   </entry>
   <entry>
      <fullUrl value="urn:uuid:7534e463-548d-4fc1-ba55-a8ce30248721"/>
      <resource>
         <Procedure>
            <id value="7534e463-548d-4fc1-ba55-a8ce30248721"/>
            <meta>
               <profile value="http://hl7.org/fhir/uv/ips/StructureDefinition/Procedure-uv-ips"/>
            </meta>
            <text>
               <status value="generated"/>
               <div xmlns="http://www.w3.org/1999/xhtml">
                  <table class="hl7__ips">
                     <tr>
                        <td>Depression screening</td>
                        <td>
                           <span class="nb">01-Dec-2023</span>
                        </td>
                        <td>-</td>
                     </tr>
                  </table>
               </div>
            </text>
            <status value="completed"/>
            <code>
               <coding>
                  <system value="http://snomed.info/sct"/>
                  <code value="171207006"/>
                  <display value="Depression screening (procedure)"/>
               </coding>
               <text value="Depression screening"/>
            </code>
            <subject>
               <reference value="urn:uuid:"/>
               <display value="Leonhard Köhler"/>
            </subject>
            <performedDateTime value="2023-12-01"/>
         </Procedure>
      </resource>
   </entry>
   <entry>
      <fullUrl value="urn:uuid:1f03a6b5-23ce-4bf6-8dfc-73a1c711b67c"/>
      <resource>
         <Procedure>
            <id value="1f03a6b5-23ce-4bf6-8dfc-73a1c711b67c"/>
            <meta>
               <profile value="http://hl7.org/fhir/uv/ips/StructureDefinition/Procedure-uv-ips"/>
            </meta>
            <text>
               <status value="generated"/>
               <div xmlns="http://www.w3.org/1999/xhtml">
                  <table class="hl7__ips">
                     <tr>
                        <td>Assessment of health and social care needs</td>
                        <td>
                           <span class="nb">01-Dec-2023</span>
                        </td>
                        <td>-</td>
                     </tr>
                  </table>
               </div>
            </text>
            <status value="completed"/>
            <code>
               <coding>
                  <system value="http://snomed.info/sct"/>
                  <code value="710824005"/>
                  <display value="Assessment of health and social care needs (procedure)"/>
               </coding>
               <text value="Assessment of health and social care needs"/>
            </code>
            <subject>
               <reference value="urn:uuid:"/>
               <display value="Leonhard Köhler"/>
            </subject>
            <performedDateTime value="2023-12-01"/>
         </Procedure>
      </resource>
   </entry>
   <entry>
      <fullUrl value="urn:uuid:7d6db49f-942b-488c-9f1a-d60580d15ee2"/>
      <resource>
         <Procedure>
            <id value="7d6db49f-942b-488c-9f1a-d60580d15ee2"/>
            <meta>
               <profile value="http://hl7.org/fhir/uv/ips/StructureDefinition/Procedure-uv-ips"/>
            </meta>
            <text>
               <status value="generated"/>
               <div xmlns="http://www.w3.org/1999/xhtml">
                  <table class="hl7__ips">
                     <tr>
                        <td>Assessment using Morse Fall Scale</td>
                        <td>
                           <span class="nb">01-Dec-2023</span>
                        </td>
                        <td>-</td>
                     </tr>
                  </table>
               </div>
            </text>
            <status value="completed"/>
            <code>
               <coding>
                  <system value="http://snomed.info/sct"/>
                  <code value="762993000"/>
                  <display value="Assessment using Morse Fall Scale (procedure)"/>
               </coding>
               <text value="Assessment using Morse Fall Scale"/>
            </code>
            <subject>
               <reference value="urn:uuid:"/>
               <display value="Leonhard Köhler"/>
            </subject>
            <performedDateTime value="2023-12-01"/>
         </Procedure>
      </resource>
   </entry>
   <entry>
      <fullUrl value="urn:uuid:8836b6b3-6d07-4a07-b583-c00835aebc70"/>
      <resource>
         <Procedure>
            <id value="8836b6b3-6d07-4a07-b583-c00835aebc70"/>
            <meta>
               <profile value="http://hl7.org/fhir/uv/ips/StructureDefinition/Procedure-uv-ips"/>
            </meta>
            <text>
               <status value="generated"/>
               <div xmlns="http://www.w3.org/1999/xhtml">
                  <table class="hl7__ips">
                     <tr>
                        <td>Assessment using AUDIT-C (Alcohol Use Disorders Identification Test - Consumption)</td>
                        <td>
                           <span class="nb">01-Dec-2023</span>
                        </td>
                        <td>-</td>
                     </tr>
                  </table>
               </div>
            </text>
            <status value="completed"/>
            <code>
               <coding>
                  <system value="http://snomed.info/sct"/>
                  <code value="763302001"/>
                  <display value="Assessment using Alcohol Use Disorders Identification Test - Consumption (procedure)"/>
               </coding>
               <text value="Assessment using AUDIT-C (Alcohol Use Disorders Identification Test - Consumption)"/>
            </code>
            <subject>
               <reference value="urn:uuid:"/>
               <display value="Leonhard Köhler"/>
            </subject>
            <performedDateTime value="2023-12-01"/>
         </Procedure>
      </resource>
   </entry>
   <entry>
      <fullUrl value="urn:uuid:7132c7ee-0a1c-4049-8aad-4e8e726b09e4"/>
      <resource>
         <Procedure>
            <id value="7132c7ee-0a1c-4049-8aad-4e8e726b09e4"/>
            <meta>
               <profile value="http://hl7.org/fhir/uv/ips/StructureDefinition/Procedure-uv-ips"/>
            </meta>
            <text>
               <status value="generated"/>
               <div xmlns="http://www.w3.org/1999/xhtml">
                  <table class="hl7__ips">
                     <tr>
                        <td>Assessment of substance use</td>
                        <td>
                           <span class="nb">01-Dec-2023</span>
                        </td>
                        <td>-</td>
                     </tr>
                  </table>
               </div>
            </text>
            <status value="completed"/>
            <code>
               <coding>
                  <system value="http://snomed.info/sct"/>
                  <code value="428211000124100"/>
                  <display value="Assessment of substance use (procedure)"/>
               </coding>
               <text value="Assessment of substance use"/>
            </code>
            <subject>
               <reference value="urn:uuid:"/>
               <display value="Leonhard Köhler"/>
            </subject>
            <performedDateTime value="2023-12-01"/>
         </Procedure>
      </resource>
   </entry>
   <entry>
      <fullUrl value="urn:uuid:ea7264fd-94a5-4c8a-90ab-10b343236882"/>
      <resource>
         <Procedure>
            <id value="ea7264fd-94a5-4c8a-90ab-10b343236882"/>
            <meta>
               <profile value="http://hl7.org/fhir/uv/ips/StructureDefinition/Procedure-uv-ips"/>
            </meta>
            <text>
               <status value="generated"/>
               <div xmlns="http://www.w3.org/1999/xhtml">
                  <table class="hl7__ips">
                     <tr>
                        <td>Depression screening using Patient Health Questionnaire Two-Item score (procedure)</td>
                        <td>
                           <span class="nb">01-Dec-2023</span>
                        </td>
                        <td>-</td>
                     </tr>
                  </table>
               </div>
            </text>
            <status value="completed"/>
            <code>
               <coding>
                  <system value="http://snomed.info/sct"/>
                  <code value="454711000124102"/>
                  <display value="Depression screening using Patient Health Questionnaire Two-Item score (procedure)"/>
               </coding>
            </code>
            <subject>
               <reference value="urn:uuid:"/>
               <display value="Leonhard Köhler"/>
            </subject>
            <performedDateTime value="2023-12-01"/>
         </Procedure>
      </resource>
   </entry>
   <entry>
      <fullUrl value="urn:uuid:1c0c2e77-28da-45f2-91df-c1b76f35b776"/>
      <resource>
         <AllergyIntolerance>
            <id value="1c0c2e77-28da-45f2-91df-c1b76f35b776"/>
            <meta>
               <profile value="http://hl7.eu/fhir/eps/StructureDefinition/allergyIntolerance-eu-eps"/>
            </meta>
            <text>
               <status value="generated"/>
               <div xmlns="http://www.w3.org/1999/xhtml">
                  <table class="hl7__ips">
                     <tr>
                        <th>Allergy/Intolerance</th>
                        <th>Onset Date</th>
                        <th>Status</th>
                        <th>Type</th>
                        <th>Reaction</th>
                     </tr>
                     <tr>
                        <td/>
                        <td>?</td>
                        <td>active</td>
                        <td>?</td>
                        <td/>
                     </tr>
                  </table>
               </div>
            </text>
            <clinicalStatus>
               <coding>
                  <system value="http://terminology.hl7.org/CodeSystem/allergyintolerance-clinical"/>
                  <code value="active"/>
               </coding>
            </clinicalStatus>
            <verificationStatus>
               <coding>
                  <system value="http://terminology.hl7.org/CodeSystem/allergyintolerance-verification"/>
                  <code value="confirmed"/>
               </coding>
            </verificationStatus>
            <code>
               <text/>
            </code>
            <patient>
               <reference value="urn:uuid:2b9dc153-018a-4001-926f-09408efa362d"/>
               <display value="Leonhard Köhler"/>
            </patient>
            <onsetDateTime>
               <extension url="http://hl7.org/fhir/StructureDefinition/data-absent-reason">
                  <valueCode value="unknown"/>
               </extension>
            </onsetDateTime>
         </AllergyIntolerance>
      </resource>
   </entry>
   <entry>
      <fullUrl value="urn:uuid:e1617cf5-5c58-4894-8953-aa999b44846a"/>
      <resource>
         <CarePlan>
            <id value="e1617cf5-5c58-4894-8953-aa999b44846a"/>
            <text>
               <status value="generated"/>
               <div xmlns="http://www.w3.org/1999/xhtml">
                  <table class="hl7__ips first25">
                     <tr>
                        <th>Active Planned Care / Goals</th>
                        <th>Start Date</th>
                        <th>Reason</th>
                     </tr>
                     <tr>
                        <td>Hyperlipidemia clinical management plan</td>
                        <td>
                           <span class="nb">02-Sep-2016</span>
                        </td>
                        <td>Hyperlipidemia</td>
                     </tr>
                     <tr>
                        <td>
                           <ul>
                              <li>Achieve LDL cholesterol below 70 mg/dL to reduce cardiovascular risk.</li>
                              <li>Maintain total cholesterol below 200 mg/dL.</li>
                              <li>Maintain HDL cholesterol above 40 mg/dL.</li>
                              <li>Maintain triglycerides below 150 mg/dL.</li>
                           </ul>
                        </td>
                        <td/>
                        <td/>
                     </tr>
                  </table>
               </div>
            </text>
            <status value="active"/>
            <intent value="plan"/>
            <category>
               <coding>
                  <system value="http://terminology.hl7.org/CodeSystem/care-plan-category"/>
                  <code value="assess-plan"/>
                  <display value="Assessment and Plan"/>
               </coding>
            </category>
            <subject>
               <reference value="urn:uuid:2b9dc153-018a-4001-926f-09408efa362d"/>
               <display value="Leonhard Köhler"/>
            </subject>
            <period>
               <start value="2016-09-02"/>
            </period>
            <goal>
               <reference value="urn:uuid:baf8233b-62a0-4304-839f-0b951292bab0"/>
            </goal>
            <goal>
               <reference value="urn:uuid:2bbff8ab-2abc-45fc-8773-3dd6ed6a722f"/>
            </goal>
            <goal>
               <reference value="urn:uuid:6cc0add5-1baa-418a-8158-94ac9e71c47a"/>
            </goal>
            <goal>
               <reference value="urn:uuid:45d9a445-9cba-4f5a-a633-28588b1474d2"/>
            </goal>
            <activity>
               <detail>
                  <kind value="Appointment"/>
                  <code>
                     <coding>
                        <system value="http://snomed.info/sct"/>
                        <code value="736285004"/>
                        <display value="Hyperlipidemia clinical management plan (record artifact)"/>
                     </coding>
                  </code>
                  <reasonCode>
                     <coding>
                        <system value="http://snomed.info/sct"/>
                        <code value="55822004"/>
                        <display value="Hyperlipidemia"/>
                     </coding>
                  </reasonCode>
                  <status value="unknown"/>
                  <description value="Hyperlipidemia clinical management plan"/>
               </detail>
            </activity>
         </CarePlan>
      </resource>
   </entry>
   <entry>
      <fullUrl value="urn:uuid:e8f5ae01-d9c8-4f33-8cc4-f4bed873ac3d"/>
      <resource>
         <CarePlan>
            <id value="e8f5ae01-d9c8-4f33-8cc4-f4bed873ac3d"/>
            <text>
               <status value="generated"/>
               <div xmlns="http://www.w3.org/1999/xhtml">
                  <table class="hl7__ips first25">
                     <tr>
                        <th>Active Planned Care / Goals</th>
                        <th>Start Date</th>
                        <th>Reason</th>
                     </tr>
                     <tr>
                        <td>Lifestyle education regarding hypertension</td>
                        <td>
                           <span class="nb">16-Jun-2006</span>
                        </td>
                        <td>Essential hypertension (disorder)</td>
                     </tr>
                     <tr>
                        <td>
                           <ul>
                              <li>Maintain blood pressure below 130/80 mm[Hg] through lifestyle modifications.</li>
                              <li>Limit daily sodium intake to less than 2.3 g to support blood pressure control.</li>
                              <li>Engage in at least 150 minutes of moderate-intensity aerobic physical activity per week.</li>
                              <li>Achieve a 5% reduction in body weight from baseline.</li>
                              <li>Limit alcohol consumption to no more than 2 standard drinks per day.</li>
                           </ul>
                        </td>
                        <td/>
                        <td/>
                     </tr>
                  </table>
               </div>
            </text>
            <status value="active"/>
            <intent value="plan"/>
            <category>
               <coding>
                  <system value="http://terminology.hl7.org/CodeSystem/care-plan-category"/>
                  <code value="assess-plan"/>
                  <display value="Assessment and Plan"/>
               </coding>
            </category>
            <subject>
               <reference value="urn:uuid:2b9dc153-018a-4001-926f-09408efa362d"/>
               <display value="Leonhard Köhler"/>
            </subject>
            <period>
               <start value="2006-06-16"/>
            </period>
            <goal>
               <reference value="urn:uuid:9130f32f-b612-41dd-8ad1-4ffc1fe077a8"/>
            </goal>
            <goal>
               <reference value="urn:uuid:f87fa109-e8ba-4e7c-97af-e058bf27b893"/>
            </goal>
            <goal>
               <reference value="urn:uuid:9a0635f4-3f8c-4808-b38b-6f5155447e3a"/>
            </goal>
            <goal>
               <reference value="urn:uuid:871dfbd5-8902-4607-863e-266712627fc1"/>
            </goal>
            <goal>
               <reference value="urn:uuid:63d2a3cd-1025-43e4-96a8-17b479039065"/>
            </goal>
            <activity>
               <detail>
                  <kind value="Appointment"/>
                  <code>
                     <coding>
                        <system value="http://snomed.info/sct"/>
                        <code value="443402002"/>
                        <display value="Lifestyle education regarding hypertension (procedure)"/>
                     </coding>
                  </code>
                  <reasonCode>
                     <coding>
                        <system value="http://snomed.info/sct"/>
                        <code value="59621000"/>
                        <display value="Essential hypertension (disorder)"/>
                     </coding>
                  </reasonCode>
                  <status value="unknown"/>
                  <description value="Lifestyle education regarding hypertension"/>
               </detail>
            </activity>
         </CarePlan>
      </resource>
   </entry>
   <entry>
      <fullUrl value="urn:uuid:20249a00-5c67-48bb-9ebd-25b6b48031cb"/>
      <resource>
         <CarePlan>
            <id value="20249a00-5c67-48bb-9ebd-25b6b48031cb"/>
            <text>
               <status value="generated"/>
               <div xmlns="http://www.w3.org/1999/xhtml">
                  <table class="hl7__ips first25">
                     <tr>
                        <th>Active Planned Care / Goals</th>
                        <th>Start Date</th>
                        <th>Reason</th>
                     </tr>
                     <tr>
                        <td>Musculoskeletal care</td>
                        <td>
                           <span class="nb">09-Sep-2003</span>
                        </td>
                        <td>Osteoarthritis of knee</td>
                     </tr>
                     <tr>
                        <td>
                           <ul>
                              <li>Reduce knee pain severity to a tolerable level to improve mobility and quality of life.</li>
                              <li>Increase ability to walk and perform daily activities without significant limitation from knee osteoarthritis.</li>
                              <li>Patient will perform prescribed knee strengthening and flexibility exercises at least 5 days per week.</li>
                           </ul>
                        </td>
                        <td/>
                        <td/>
                     </tr>
                  </table>
               </div>
            </text>
            <status value="active"/>
            <intent value="plan"/>
            <category>
               <coding>
                  <system value="http://terminology.hl7.org/CodeSystem/care-plan-category"/>
                  <code value="assess-plan"/>
                  <display value="Assessment and Plan"/>
               </coding>
            </category>
            <subject>
               <reference value="urn:uuid:2b9dc153-018a-4001-926f-09408efa362d"/>
               <display value="Leonhard Köhler"/>
            </subject>
            <period>
               <start value="2003-09-09"/>
            </period>
            <goal>
               <reference value="urn:uuid:64cb17e5-4d4f-4697-879f-03662c0617e3"/>
            </goal>
            <goal>
               <reference value="urn:uuid:edb2e377-60d4-4385-ba84-b05f1943e979"/>
            </goal>
            <goal>
               <reference value="urn:uuid:3a9b6fac-2208-4a59-94e7-73298e1f300e"/>
            </goal>
            <activity>
               <detail>
                  <kind value="Appointment"/>
                  <code>
                     <coding>
                        <system value="http://snomed.info/sct"/>
                        <code value="408869004"/>
                        <display value="Musculoskeletal care (regime/therapy)"/>
                     </coding>
                  </code>
                  <reasonCode>
                     <coding>
                        <system value="http://snomed.info/sct"/>
                        <code value="239873007"/>
                        <display value="Osteoarthritis of knee"/>
                     </coding>
                  </reasonCode>
                  <status value="unknown"/>
                  <description value="Musculoskeletal care"/>
               </detail>
            </activity>
         </CarePlan>
      </resource>
   </entry>
   <entry>
      <fullUrl value="urn:uuid:472ab2ac-31be-404c-a59a-cfc76e115b93"/>
      <resource>
         <CarePlan>
            <id value="472ab2ac-31be-404c-a59a-cfc76e115b93"/>
            <text>
               <status value="generated"/>
               <div xmlns="http://www.w3.org/1999/xhtml">
                  <table class="hl7__ips first25">
                     <tr>
                        <th>Active Planned Care / Goals</th>
                        <th>Start Date</th>
                        <th>Reason</th>
                     </tr>
                     <tr>
                        <td>Diabetes self management plan</td>
                        <td>
                           <span class="nb">09-Jul-1971</span>
                        </td>
                        <td>Prediabetes</td>
                     </tr>
                     <tr>
                        <td>
                           <ul>
                              <li>Achieve and maintain Hemoglobin A1c below prediabetes threshold through lifestyle modification.</li>
                              <li>Achieve and maintain a healthy body weight to reduce risk of progression to diabetes.</li>
                              <li>Maintain blood pressure below 130/80 mmHg as part of diabetes risk reduction.</li>
                              <li>Maintain LDL cholesterol below 100 mg/dL to reduce cardiovascular risk.</li>
                           </ul>
                        </td>
                        <td/>
                        <td/>
                     </tr>
                  </table>
               </div>
            </text>
            <status value="active"/>
            <intent value="plan"/>
            <category>
               <coding>
                  <system value="http://terminology.hl7.org/CodeSystem/care-plan-category"/>
                  <code value="assess-plan"/>
                  <display value="Assessment and Plan"/>
               </coding>
            </category>
            <subject>
               <reference value="urn:uuid:2b9dc153-018a-4001-926f-09408efa362d"/>
               <display value="Leonhard Köhler"/>
            </subject>
            <period>
               <start value="1971-07-09"/>
            </period>
            <goal>
               <reference value="urn:uuid:95ade39a-5b17-40d9-a422-97b42167f59d"/>
            </goal>
            <goal>
               <reference value="urn:uuid:3a97a7b7-9180-4176-bbe5-0e0a04aabbee"/>
            </goal>
            <goal>
               <reference value="urn:uuid:c94c6371-0752-41c8-b180-dc4fb17cb02a"/>
            </goal>
            <goal>
               <reference value="urn:uuid:8b3d64c0-db5a-4e2c-b1fc-56b775c2dd1b"/>
            </goal>
            <activity>
               <detail>
                  <kind value="Appointment"/>
                  <code>
                     <coding>
                        <system value="http://snomed.info/sct"/>
                        <code value="698360004"/>
                        <display value="Diabetes self management plan (qualifier value)"/>
                     </coding>
                  </code>
                  <reasonCode>
                     <coding>
                        <system value="http://snomed.info/sct"/>
                        <code value="15777000"/>
                        <display value="Prediabetes"/>
                     </coding>
                  </reasonCode>
                  <status value="unknown"/>
                  <description value="Diabetes self management plan"/>
               </detail>
            </activity>
         </CarePlan>
      </resource>
   </entry>
   <entry>
      <fullUrl value="urn:uuid:76fe4cdd-2735-4943-9850-e236024f5b66"/>
      <resource>
         <ImmunizationRecommendation>
            <id value="76fe4cdd-2735-4943-9850-e236024f5b66"/>
            <text>
               <status value="generated"/>
               <div xmlns="http://www.w3.org/1999/xhtml">
                  <table class="hl7__ips">
                     <tr>
                        <td>Vaccine product containing only Influenza virus antigen (medicinal product)</td>
                        <td>
                           <span class="nb">01-Oct-2025</span>
                        </td>
                        <td>Annual seasonal influenza vaccination</td>
                     </tr>
                  </table>
               </div>
            </text>
            <patient>
               <reference value="urn:uuid:2b9dc153-018a-4001-926f-09408efa362d"/>
               <display value="Leonhard Köhler"/>
            </patient>
            <date value="2025-10-22"/>
            <recommendation>
               <vaccineCode>
                  <coding>
                     <system value="http://snomed.info/sct"/>
                     <code value="1181000221105"/>
                     <display value="Vaccine product containing only Influenza virus antigen (medicinal product)"/>
                  </coding>
               </vaccineCode>
               <targetDisease>
                  <coding>
                     <system value="http://snomed.info/sct"/>
                     <code value="6142004"/>
                     <display value="Influenza (disorder)"/>
                  </coding>
               </targetDisease>
               <forecastStatus>
                  <coding>
                     <system value="http://terminology.hl7.org/CodeSystem/immunization-recommendation-status"/>
                     <code value="due"/>
                     <display value="Due"/>
                  </coding>
               </forecastStatus>
               <dateCriterion>
                  <code>
                     <coding>
                        <system value="http://loinc.org"/>
                        <code value="30980-7"/>
                        <display value="Date vaccine due"/>
                     </coding>
                  </code>
                  <value value="2025-10-01"/>
               </dateCriterion>
               <series value="Annual seasonal influenza vaccination"/>
            </recommendation>
         </ImmunizationRecommendation>
      </resource>
   </entry>
   <entry>
      <fullUrl value="urn:uuid:3c28adcd-ca7a-4efa-8318-d86d62b65a5a"/>
      <resource>
         <Observation>
            <id value="3c28adcd-ca7a-4efa-8318-d86d62b65a5a"/>
            <meta>
               <profile value="http://hl7.org/fhir/StructureDefinition/vitalsigns"/>
            </meta>
            <text>
               <status value="generated"/>
               <div xmlns="http://www.w3.org/1999/xhtml">
                  <table class="hl7__ips">
                     <tr>
                        <th>Vital Sign</th>
                        <th>Date</th>
                        <th>Measurement</th>
                     </tr>
                     <tr>
                        <td>Diastolic Blood Pressure</td>
                        <td>19-Nov-2024</td>
                        <td>78.6 mm[Hg]</td>
                     </tr>
                  </table>
               </div>
            </text>
            <status value="final"/>
            <category>
               <coding>
                  <system value="http://terminology.hl7.org/CodeSystem/observation-category"/>
                  <code value="vital-signs"/>
                  <display value="Vital Signs"/>
               </coding>
            </category>
            <code>
               <coding>
                  <system value="http://loinc.org"/>
                  <code value="$8462-4"/>
                  <display value="Diastolic Blood Pressure"/>
               </coding>
            </code>
            <subject>
               <reference value="urn:uuid:2b9dc153-018a-4001-926f-09408efa362d"/>
               <display value="Leonhard Köhler"/>
            </subject>
            <effectiveDateTime value="2024-11-19"/>
            <valueQuantity>
               <value value="78.6"/>
               <unit value="mm[Hg]"/>
               <code value="mm[Hg]"/>
            </valueQuantity>
         </Observation>
      </resource>
   </entry>
   <entry>
      <fullUrl value="urn:uuid:9ebfc781-4fa0-49d3-823c-350b25d30251"/>
      <resource>
         <Observation>
            <id value="9ebfc781-4fa0-49d3-823c-350b25d30251"/>
            <meta>
               <profile value="http://hl7.org/fhir/StructureDefinition/vitalsigns"/>
            </meta>
            <text>
               <status value="generated"/>
               <div xmlns="http://www.w3.org/1999/xhtml">
                  <table class="hl7__ips">
                     <tr>
                        <th>Vital Sign</th>
                        <th>Date</th>
                        <th>Measurement</th>
                     </tr>
                     <tr>
                        <td>Systolic Blood Pressure</td>
                        <td>19-Nov-2024</td>
                        <td>126.9 mm[Hg]</td>
                     </tr>
                  </table>
               </div>
            </text>
            <status value="final"/>
            <category>
               <coding>
                  <system value="http://terminology.hl7.org/CodeSystem/observation-category"/>
                  <code value="vital-signs"/>
                  <display value="Vital Signs"/>
               </coding>
            </category>
            <code>
               <coding>
                  <system value="http://loinc.org"/>
                  <code value="$8480-6"/>
                  <display value="Systolic Blood Pressure"/>
               </coding>
            </code>
            <subject>
               <reference value="urn:uuid:2b9dc153-018a-4001-926f-09408efa362d"/>
               <display value="Leonhard Köhler"/>
            </subject>
            <effectiveDateTime value="2024-11-19"/>
            <valueQuantity>
               <value value="126.9"/>
               <unit value="mm[Hg]"/>
               <code value="mm[Hg]"/>
            </valueQuantity>
         </Observation>
      </resource>
   </entry>
   <entry>
      <fullUrl value="urn:uuid:6cdbec4e-94b8-4bb8-9e08-e275c6cf1a8c"/>
      <resource>
         <Observation>
            <id value="6cdbec4e-94b8-4bb8-9e08-e275c6cf1a8c"/>
            <meta>
               <profile value="http://hl7.org/fhir/StructureDefinition/vitalsigns"/>
            </meta>
            <text>
               <status value="generated"/>
               <div xmlns="http://www.w3.org/1999/xhtml">
                  <table class="hl7__ips">
                     <tr>
                        <th>Vital Sign</th>
                        <th>Date</th>
                        <th>Measurement</th>
                     </tr>
                     <tr>
                        <td>Heart rate</td>
                        <td>19-Nov-2024</td>
                        <td>95 /min</td>
                     </tr>
                  </table>
               </div>
            </text>
            <status value="final"/>
            <category>
               <coding>
                  <system value="http://terminology.hl7.org/CodeSystem/observation-category"/>
                  <code value="vital-signs"/>
                  <display value="Vital Signs"/>
               </coding>
            </category>
            <code>
               <coding>
                  <system value="http://loinc.org"/>
                  <code value="$8867-4"/>
                  <display value="Heart rate"/>
               </coding>
            </code>
            <subject>
               <reference value="urn:uuid:2b9dc153-018a-4001-926f-09408efa362d"/>
               <display value="Leonhard Köhler"/>
            </subject>
            <effectiveDateTime value="2024-11-19"/>
            <valueQuantity>
               <value value="95"/>
               <unit value="/min"/>
               <code value="/min"/>
            </valueQuantity>
         </Observation>
      </resource>
   </entry>
   <entry>
      <fullUrl value="urn:uuid:350ffb5c-6096-4d9a-8efe-d6c5ebd6e4be"/>
      <resource>
         <Observation>
            <id value="350ffb5c-6096-4d9a-8efe-d6c5ebd6e4be"/>
            <meta>
               <profile value="http://hl7.org/fhir/StructureDefinition/vitalsigns"/>
            </meta>
            <text>
               <status value="generated"/>
               <div xmlns="http://www.w3.org/1999/xhtml">
                  <table class="hl7__ips">
                     <tr>
                        <th>Vital Sign</th>
                        <th>Date</th>
                        <th>Measurement</th>
                     </tr>
                     <tr>
                        <td>Respiratory rate</td>
                        <td>19-Nov-2024</td>
                        <td>14 /min</td>
                     </tr>
                  </table>
               </div>
            </text>
            <status value="final"/>
            <category>
               <coding>
                  <system value="http://terminology.hl7.org/CodeSystem/observation-category"/>
                  <code value="vital-signs"/>
                  <display value="Vital Signs"/>
               </coding>
            </category>
            <code>
               <coding>
                  <system value="http://loinc.org"/>
                  <code value="$9279-1"/>
                  <display value="Respiratory rate"/>
               </coding>
            </code>
            <subject>
               <reference value="urn:uuid:2b9dc153-018a-4001-926f-09408efa362d"/>
               <display value="Leonhard Köhler"/>
            </subject>
            <effectiveDateTime value="2024-11-19"/>
            <valueQuantity>
               <value value="14"/>
               <unit value="/min"/>
               <code value="/min"/>
            </valueQuantity>
         </Observation>
      </resource>
   </entry>
   <entry>
      <fullUrl value="urn:uuid:57276e8c-868a-45eb-9eb6-1f0ad6c1522d"/>
      <resource>
         <Observation>
            <id value="57276e8c-868a-45eb-9eb6-1f0ad6c1522d"/>
            <meta>
               <profile value="http://hl7.org/fhir/StructureDefinition/vitalsigns"/>
            </meta>
            <text>
               <status value="generated"/>
               <div xmlns="http://www.w3.org/1999/xhtml">
                  <table class="hl7__ips">
                     <tr>
                        <th>Vital Sign</th>
                        <th>Date</th>
                        <th>Measurement</th>
                     </tr>
                     <tr>
                        <td>Oxygen saturation in Arterial blood</td>
                        <td>19-Nov-2024</td>
                        <td>99.5 %</td>
                     </tr>
                  </table>
               </div>
            </text>
            <status value="final"/>
            <category>
               <coding>
                  <system value="http://terminology.hl7.org/CodeSystem/observation-category"/>
                  <code value="vital-signs"/>
                  <display value="Vital Signs"/>
               </coding>
            </category>
            <code>
               <coding>
                  <system value="http://loinc.org"/>
                  <code value="$2708-6"/>
                  <display value="Oxygen saturation in Arterial blood"/>
               </coding>
            </code>
            <subject>
               <reference value="urn:uuid:2b9dc153-018a-4001-926f-09408efa362d"/>
               <display value="Leonhard Köhler"/>
            </subject>
            <effectiveDateTime value="2024-11-19"/>
            <valueQuantity>
               <value value="99.5"/>
               <unit value="%"/>
               <code value="%"/>
            </valueQuantity>
         </Observation>
      </resource>
   </entry>
   <entry>
      <fullUrl value="urn:uuid:602691a1-857a-43cb-bcc3-96dcf62ee6ee"/>
      <resource>
         <Observation>
            <id value="602691a1-857a-43cb-bcc3-96dcf62ee6ee"/>
            <meta>
               <profile value="http://hl7.org/fhir/StructureDefinition/vitalsigns"/>
            </meta>
            <text>
               <status value="generated"/>
               <div xmlns="http://www.w3.org/1999/xhtml">
                  <table class="hl7__ips">
                     <tr>
                        <th>Vital Sign</th>
                        <th>Date</th>
                        <th>Measurement</th>
                     </tr>
                     <tr>
                        <td>Body temperature</td>
                        <td>19-Nov-2024</td>
                        <td>36.8 Cel</td>
                     </tr>
                  </table>
               </div>
            </text>
            <status value="final"/>
            <category>
               <coding>
                  <system value="http://terminology.hl7.org/CodeSystem/observation-category"/>
                  <code value="vital-signs"/>
                  <display value="Vital Signs"/>
               </coding>
            </category>
            <code>
               <coding>
                  <system value="http://loinc.org"/>
                  <code value="$8310-5"/>
                  <display value="Body temperature"/>
               </coding>
            </code>
            <subject>
               <reference value="urn:uuid:2b9dc153-018a-4001-926f-09408efa362d"/>
               <display value="Leonhard Köhler"/>
            </subject>
            <effectiveDateTime value="2024-11-19"/>
            <valueQuantity>
               <value value="36.8"/>
               <unit value="Cel"/>
               <code value="Cel"/>
            </valueQuantity>
         </Observation>
      </resource>
   </entry>
   <entry>
      <fullUrl value="urn:uuid:e321f85e-23b0-4960-8dee-b4575703ebdd"/>
      <resource>
         <Observation>
            <id value="e321f85e-23b0-4960-8dee-b4575703ebdd"/>
            <meta>
               <profile value="http://hl7.org/fhir/StructureDefinition/vitalsigns"/>
            </meta>
            <text>
               <status value="generated"/>
               <div xmlns="http://www.w3.org/1999/xhtml">
                  <table class="hl7__ips">
                     <tr>
                        <th>Vital Sign</th>
                        <th>Date</th>
                        <th>Measurement</th>
                     </tr>
                     <tr>
                        <td>Body Height</td>
                        <td>27-Sep-2024</td>
                        <td>185.6 cm</td>
                     </tr>
                  </table>
               </div>
            </text>
            <status value="final"/>
            <category>
               <coding>
                  <system value="http://terminology.hl7.org/CodeSystem/observation-category"/>
                  <code value="vital-signs"/>
                  <display value="Vital Signs"/>
               </coding>
            </category>
            <code>
               <coding>
                  <system value="http://loinc.org"/>
                  <code value="$8302-2"/>
                  <display value="Body Height"/>
               </coding>
            </code>
            <subject>
               <reference value="urn:uuid:2b9dc153-018a-4001-926f-09408efa362d"/>
               <display value="Leonhard Köhler"/>
            </subject>
            <effectiveDateTime value="2024-09-27"/>
            <valueQuantity>
               <value value="185.6"/>
               <unit value="cm"/>
               <code value="cm"/>
            </valueQuantity>
         </Observation>
      </resource>
   </entry>
   <entry>
      <fullUrl value="urn:uuid:d97ba2ee-4008-4c0d-b394-a7059777a756"/>
      <resource>
         <Observation>
            <id value="d97ba2ee-4008-4c0d-b394-a7059777a756"/>
            <meta>
               <profile value="http://hl7.org/fhir/StructureDefinition/vitalsigns"/>
            </meta>
            <text>
               <status value="generated"/>
               <div xmlns="http://www.w3.org/1999/xhtml">
                  <table class="hl7__ips">
                     <tr>
                        <th>Vital Sign</th>
                        <th>Date</th>
                        <th>Measurement</th>
                     </tr>
                     <tr>
                        <td>Pain severity - 0-10 verbal numeric rating [Score] - Reported</td>
                        <td>27-Sep-2024</td>
                        <td>3 {score}</td>
                     </tr>
                  </table>
               </div>
            </text>
            <status value="final"/>
            <category>
               <coding>
                  <system value="http://terminology.hl7.org/CodeSystem/observation-category"/>
                  <code value="vital-signs"/>
                  <display value="Vital Signs"/>
               </coding>
            </category>
            <code>
               <coding>
                  <system value="http://loinc.org"/>
                  <code value="$72514-3"/>
                  <display value="Pain severity - 0-10 verbal numeric rating [Score] - Reported"/>
               </coding>
            </code>
            <subject>
               <reference value="urn:uuid:2b9dc153-018a-4001-926f-09408efa362d"/>
               <display value="Leonhard Köhler"/>
            </subject>
            <effectiveDateTime value="2024-09-27"/>
            <valueQuantity>
               <value value="3"/>
               <unit value="{score}"/>
               <code value="{score}"/>
            </valueQuantity>
         </Observation>
      </resource>
   </entry>
   <entry>
      <fullUrl value="urn:uuid:43afa58d-41d0-4f38-b218-696aefa476e6"/>
      <resource>
         <Observation>
            <id value="43afa58d-41d0-4f38-b218-696aefa476e6"/>
            <meta>
               <profile value="http://hl7.org/fhir/StructureDefinition/vitalsigns"/>
            </meta>
            <text>
               <status value="generated"/>
               <div xmlns="http://www.w3.org/1999/xhtml">
                  <table class="hl7__ips">
                     <tr>
                        <th>Vital Sign</th>
                        <th>Date</th>
                        <th>Measurement</th>
                     </tr>
                     <tr>
                        <td>Body Weight</td>
                        <td>27-Sep-2024</td>
                        <td>94.3 kg</td>
                     </tr>
                  </table>
               </div>
            </text>
            <status value="final"/>
            <category>
               <coding>
                  <system value="http://terminology.hl7.org/CodeSystem/observation-category"/>
                  <code value="vital-signs"/>
                  <display value="Vital Signs"/>
               </coding>
            </category>
            <code>
               <coding>
                  <system value="http://loinc.org"/>
                  <code value="$29463-7"/>
                  <display value="Body Weight"/>
               </coding>
            </code>
            <subject>
               <reference value="urn:uuid:2b9dc153-018a-4001-926f-09408efa362d"/>
               <display value="Leonhard Köhler"/>
            </subject>
            <effectiveDateTime value="2024-09-27"/>
            <valueQuantity>
               <value value="94.3"/>
               <unit value="kg"/>
               <code value="kg"/>
            </valueQuantity>
         </Observation>
      </resource>
   </entry>
   <entry>
      <fullUrl value="urn:uuid:f56063a3-b3c0-4d92-8ec1-5c9741d4233a"/>
      <resource>
         <Observation>
            <id value="f56063a3-b3c0-4d92-8ec1-5c9741d4233a"/>
            <meta>
               <profile value="http://hl7.org/fhir/StructureDefinition/vitalsigns"/>
            </meta>
            <text>
               <status value="generated"/>
               <div xmlns="http://www.w3.org/1999/xhtml">
                  <table class="hl7__ips">
                     <tr>
                        <th>Vital Sign</th>
                        <th>Date</th>
                        <th>Measurement</th>
                     </tr>
                     <tr>
                        <td>Body mass index (BMI) [Ratio]</td>
                        <td>27-Sep-2024</td>
                        <td>27.4 kg/m2</td>
                     </tr>
                  </table>
               </div>
            </text>
            <status value="final"/>
            <category>
               <coding>
                  <system value="http://terminology.hl7.org/CodeSystem/observation-category"/>
                  <code value="vital-signs"/>
                  <display value="Vital Signs"/>
               </coding>
            </category>
            <code>
               <coding>
                  <system value="http://loinc.org"/>
                  <code value="$39156-5"/>
                  <display value="Body mass index (BMI) [Ratio]"/>
               </coding>
            </code>
            <subject>
               <reference value="urn:uuid:2b9dc153-018a-4001-926f-09408efa362d"/>
               <display value="Leonhard Köhler"/>
            </subject>
            <effectiveDateTime value="2024-09-27"/>
            <valueQuantity>
               <value value="27.4"/>
               <unit value="kg/m2"/>
               <code value="kg/m2"/>
            </valueQuantity>
         </Observation>
      </resource>
   </entry>
   <entry>
      <fullUrl value="urn:uuid:028be2d7-90eb-497e-9e7c-757bc0f1e014"/>
      <resource>
         <Observation>
            <id value="028be2d7-90eb-497e-9e7c-757bc0f1e014"/>
            <meta>
               <profile value="http://hl7.org/fhir/StructureDefinition/vitalsigns"/>
            </meta>
            <text>
               <status value="generated"/>
               <div xmlns="http://www.w3.org/1999/xhtml">
                  <table class="hl7__ips">
                     <tr>
                        <th>Vital Sign</th>
                        <th>Date</th>
                        <th>Measurement</th>
                     </tr>
                     <tr>
                        <td>Diastolic Blood Pressure</td>
                        <td>27-Sep-2024</td>
                        <td>53 mm[Hg]</td>
                     </tr>
                  </table>
               </div>
            </text>
            <status value="final"/>
            <category>
               <coding>
                  <system value="http://terminology.hl7.org/CodeSystem/observation-category"/>
                  <code value="vital-signs"/>
                  <display value="Vital Signs"/>
               </coding>
            </category>
            <code>
               <coding>
                  <system value="http://loinc.org"/>
                  <code value="$8462-4"/>
                  <display value="Diastolic Blood Pressure"/>
               </coding>
            </code>
            <subject>
               <reference value="urn:uuid:2b9dc153-018a-4001-926f-09408efa362d"/>
               <display value="Leonhard Köhler"/>
            </subject>
            <effectiveDateTime value="2024-09-27"/>
            <valueQuantity>
               <value value="53"/>
               <unit value="mm[Hg]"/>
               <code value="mm[Hg]"/>
            </valueQuantity>
         </Observation>
      </resource>
   </entry>
   <entry>
      <fullUrl value="urn:uuid:fc62312d-8b82-4e44-b0b7-a45556b7435d"/>
      <resource>
         <Observation>
            <id value="fc62312d-8b82-4e44-b0b7-a45556b7435d"/>
            <meta>
               <profile value="http://hl7.org/fhir/StructureDefinition/vitalsigns"/>
            </meta>
            <text>
               <status value="generated"/>
               <div xmlns="http://www.w3.org/1999/xhtml">
                  <table class="hl7__ips">
                     <tr>
                        <th>Vital Sign</th>
                        <th>Date</th>
                        <th>Measurement</th>
                     </tr>
                     <tr>
                        <td>Systolic Blood Pressure</td>
                        <td>27-Sep-2024</td>
                        <td>103 mm[Hg]</td>
                     </tr>
                  </table>
               </div>
            </text>
            <status value="final"/>
            <category>
               <coding>
                  <system value="http://terminology.hl7.org/CodeSystem/observation-category"/>
                  <code value="vital-signs"/>
                  <display value="Vital Signs"/>
               </coding>
            </category>
            <code>
               <coding>
                  <system value="http://loinc.org"/>
                  <code value="$8480-6"/>
                  <display value="Systolic Blood Pressure"/>
               </coding>
            </code>
            <subject>
               <reference value="urn:uuid:2b9dc153-018a-4001-926f-09408efa362d"/>
               <display value="Leonhard Köhler"/>
            </subject>
            <effectiveDateTime value="2024-09-27"/>
            <valueQuantity>
               <value value="103"/>
               <unit value="mm[Hg]"/>
               <code value="mm[Hg]"/>
            </valueQuantity>
         </Observation>
      </resource>
   </entry>
   <entry>
      <fullUrl value="urn:uuid:ebdf8e83-c351-41d3-ad5b-9a7ac4144fc6"/>
      <resource>
         <Observation>
            <id value="ebdf8e83-c351-41d3-ad5b-9a7ac4144fc6"/>
            <meta>
               <profile value="http://hl7.org/fhir/StructureDefinition/vitalsigns"/>
            </meta>
            <text>
               <status value="generated"/>
               <div xmlns="http://www.w3.org/1999/xhtml">
                  <table class="hl7__ips">
                     <tr>
                        <th>Vital Sign</th>
                        <th>Date</th>
                        <th>Measurement</th>
                     </tr>
                     <tr>
                        <td>Heart rate</td>
                        <td>27-Sep-2024</td>
                        <td>72 /min</td>
                     </tr>
                  </table>
               </div>
            </text>
            <status value="final"/>
            <category>
               <coding>
                  <system value="http://terminology.hl7.org/CodeSystem/observation-category"/>
                  <code value="vital-signs"/>
                  <display value="Vital Signs"/>
               </coding>
            </category>
            <code>
               <coding>
                  <system value="http://loinc.org"/>
                  <code value="$8867-4"/>
                  <display value="Heart rate"/>
               </coding>
            </code>
            <subject>
               <reference value="urn:uuid:2b9dc153-018a-4001-926f-09408efa362d"/>
               <display value="Leonhard Köhler"/>
            </subject>
            <effectiveDateTime value="2024-09-27"/>
            <valueQuantity>
               <value value="72"/>
               <unit value="/min"/>
               <code value="/min"/>
            </valueQuantity>
         </Observation>
      </resource>
   </entry>
   <entry>
      <fullUrl value="urn:uuid:20cb859c-9c0a-4011-bdcf-54c49a270aa4"/>
      <resource>
         <Observation>
            <id value="20cb859c-9c0a-4011-bdcf-54c49a270aa4"/>
            <meta>
               <profile value="http://hl7.org/fhir/StructureDefinition/vitalsigns"/>
            </meta>
            <text>
               <status value="generated"/>
               <div xmlns="http://www.w3.org/1999/xhtml">
                  <table class="hl7__ips">
                     <tr>
                        <th>Vital Sign</th>
                        <th>Date</th>
                        <th>Measurement</th>
                     </tr>
                     <tr>
                        <td>Respiratory rate</td>
                        <td>27-Sep-2024</td>
                        <td>14 /min</td>
                     </tr>
                  </table>
               </div>
            </text>
            <status value="final"/>
            <category>
               <coding>
                  <system value="http://terminology.hl7.org/CodeSystem/observation-category"/>
                  <code value="vital-signs"/>
                  <display value="Vital Signs"/>
               </coding>
            </category>
            <code>
               <coding>
                  <system value="http://loinc.org"/>
                  <code value="$9279-1"/>
                  <display value="Respiratory rate"/>
               </coding>
            </code>
            <subject>
               <reference value="urn:uuid:2b9dc153-018a-4001-926f-09408efa362d"/>
               <display value="Leonhard Köhler"/>
            </subject>
            <effectiveDateTime value="2024-09-27"/>
            <valueQuantity>
               <value value="14"/>
               <unit value="/min"/>
               <code value="/min"/>
            </valueQuantity>
         </Observation>
      </resource>
   </entry>
   <entry>
      <fullUrl value="urn:uuid:0a5404ef-e33e-4cb8-a846-151b78f221e2"/>
      <resource>
         <Observation>
            <id value="0a5404ef-e33e-4cb8-a846-151b78f221e2"/>
            <meta>
               <profile value="http://hl7.eu/fhir/laboratory/StructureDefinition/Observation-resultslab-eu-lab"/>
            </meta>
            <text>
               <status value="generated"/>
               <div xmlns="http://www.w3.org/1999/xhtml">
                  <table class="hl7__eu__lab__report">
                     <tr>
                        <th>Test</th>
                        <th>19-Nov-2024</th>
                        <th>Reference Range</th>
                        <th>Unit</th>
                     </tr>
                     <tr>
                        <td>Glucose [Mass/volume] in Urine by Test strip</td>
                        <td>2.9</td>
                        <td>0 - 0.8</td>
                        <td>H</td>
                        <td>mg/dL</td>
                     </tr>
                  </table>
               </div>
            </text>
            <status value="final"/>
            <category>
               <coding>
                  <system value="http://terminology.hl7.org/CodeSystem/observation-category"/>
                  <code value="laboratory"/>
               </coding>
            </category>
            <code>
               <coding>
                  <system value="http://loinc.org"/>
                  <code value="5792-7"/>
                  <display value="Glucose [Mass/volume] in Urine by Test strip"/>
               </coding>
               <text value="Glucose [Mass/volume] in Urine by Test strip"/>
            </code>
            <subject>
               <reference value="urn:uuid:2b9dc153-018a-4001-926f-09408efa362d"/>
               <display value="Leonhard Köhler"/>
            </subject>
            <effectiveDateTime value="2024-11-19T12:32:46Z"/>
            <performer>
               <display value="The Central European Lab"/>
            </performer>
            <valueQuantity>
               <value value="2.9"/>
               <unit value="mg/dL"/>
               <system value="http://unitsofmeasure.org"/>
               <code value="mg/dL"/>
            </valueQuantity>
            <interpretation>
               <coding>
                  <system value="http://terminology.hl7.org/CodeSystem/v3-ObservationInterpretation"/>
                  <code value="H"/>
                  <display value="High"/>
               </coding>
            </interpretation>
            <referenceRange>
               <low>
                  <value value="0"/>
                  <system value="http://unitsofmeasure.org"/>
                  <code value="mg/dL"/>
               </low>
            </referenceRange>
            <referenceRange>
               <high>
                  <value value="0.8"/>
                  <system value="http://unitsofmeasure.org"/>
                  <code value="mg/dL"/>
               </high>
            </referenceRange>
         </Observation>
      </resource>
   </entry>
   <entry>
      <fullUrl value="urn:uuid:650c5623-e799-46c3-98c1-35ad27f209f9"/>
      <resource>
         <Observation>
            <id value="650c5623-e799-46c3-98c1-35ad27f209f9"/>
            <meta>
               <profile value="http://hl7.eu/fhir/laboratory/StructureDefinition/Observation-resultslab-eu-lab"/>
            </meta>
            <text>
               <status value="generated"/>
               <div xmlns="http://www.w3.org/1999/xhtml">
                  <table class="hl7__eu__lab__report">
                     <tr>
                        <th>Test</th>
                        <th>19-Nov-2024</th>
                        <th>Reference Range</th>
                        <th>Unit</th>
                     </tr>
                     <tr>
                        <td>Ketones [Presence] in Urine by Test strip</td>
                     </tr>
                  </table>
               </div>
            </text>
            <status value="final"/>
            <category>
               <coding>
                  <system value="http://terminology.hl7.org/CodeSystem/observation-category"/>
                  <code value="laboratory"/>
               </coding>
            </category>
            <code>
               <coding>
                  <system value="http://loinc.org"/>
                  <code value="2514-8"/>
                  <display value="Ketones [Presence] in Urine by Test strip"/>
               </coding>
               <text value="Ketones [Presence] in Urine by Test strip"/>
            </code>
            <subject>
               <reference value="urn:uuid:2b9dc153-018a-4001-926f-09408efa362d"/>
               <display value="Leonhard Köhler"/>
            </subject>
            <effectiveDateTime value="2024-11-19T12:32:46Z"/>
            <performer>
               <display value="The Central European Lab"/>
            </performer>
         </Observation>
      </resource>
   </entry>
   <entry>
      <fullUrl value="urn:uuid:940070ab-ae24-43df-b663-5eaa09fe1519"/>
      <resource>
         <Observation>
            <id value="940070ab-ae24-43df-b663-5eaa09fe1519"/>
            <meta>
               <profile value="http://hl7.eu/fhir/laboratory/StructureDefinition/Observation-resultslab-eu-lab"/>
            </meta>
            <text>
               <status value="generated"/>
               <div xmlns="http://www.w3.org/1999/xhtml">
                  <table class="hl7__eu__lab__report">
                     <tr>
                        <th>Test</th>
                        <th>19-Nov-2024</th>
                        <th>Reference Range</th>
                        <th>Unit</th>
                     </tr>
                     <tr>
                        <td>Specific gravity of Urine by Test strip</td>
                        <td>1.0</td>
                        <td>1.005 - 1.03</td>
                        <td>L</td>
                        <td>{nominal}</td>
                     </tr>
                  </table>
               </div>
            </text>
            <status value="final"/>
            <category>
               <coding>
                  <system value="http://terminology.hl7.org/CodeSystem/observation-category"/>
                  <code value="laboratory"/>
               </coding>
            </category>
            <code>
               <coding>
                  <system value="http://loinc.org"/>
                  <code value="5811-5"/>
                  <display value="Specific gravity of Urine by Test strip"/>
               </coding>
               <text value="Specific gravity of Urine by Test strip"/>
            </code>
            <subject>
               <reference value="urn:uuid:2b9dc153-018a-4001-926f-09408efa362d"/>
               <display value="Leonhard Köhler"/>
            </subject>
            <effectiveDateTime value="2024-11-19T12:32:46Z"/>
            <performer>
               <display value="The Central European Lab"/>
            </performer>
            <valueQuantity>
               <value value="1"/>
               <unit value="{nominal}"/>
               <system value="http://unitsofmeasure.org"/>
               <code value="{nominal}"/>
            </valueQuantity>
            <interpretation>
               <coding>
                  <system value="http://terminology.hl7.org/CodeSystem/v3-ObservationInterpretation"/>
                  <code value="L"/>
                  <display value="Low"/>
               </coding>
            </interpretation>
            <referenceRange>
               <low>
                  <value value="1.005"/>
                  <system value="http://unitsofmeasure.org"/>
                  <code value="g/mL"/>
               </low>
            </referenceRange>
            <referenceRange>
               <high>
                  <value value="1.03"/>
                  <system value="http://unitsofmeasure.org"/>
                  <code value="g/mL"/>
               </high>
            </referenceRange>
         </Observation>
      </resource>
   </entry>
   <entry>
      <fullUrl value="urn:uuid:9dfb20f8-b66a-49dc-9148-b3772cd082c1"/>
      <resource>
         <Observation>
            <id value="9dfb20f8-b66a-49dc-9148-b3772cd082c1"/>
            <meta>
               <profile value="http://hl7.eu/fhir/laboratory/StructureDefinition/Observation-resultslab-eu-lab"/>
            </meta>
            <text>
               <status value="generated"/>
               <div xmlns="http://www.w3.org/1999/xhtml">
                  <table class="hl7__eu__lab__report">
                     <tr>
                        <th>Test</th>
                        <th>19-Nov-2024</th>
                        <th>Reference Range</th>
                        <th>Unit</th>
                     </tr>
                     <tr>
                        <td>pH of Urine by Test strip</td>
                        <td>6.6</td>
                        <td>4.5 - 7.5</td>
                        <td/>
                        <td>pH</td>
                     </tr>
                  </table>
               </div>
            </text>
            <status value="final"/>
            <category>
               <coding>
                  <system value="http://terminology.hl7.org/CodeSystem/observation-category"/>
                  <code value="laboratory"/>
               </coding>
            </category>
            <code>
               <coding>
                  <system value="http://loinc.org"/>
                  <code value="5803-2"/>
                  <display value="pH of Urine by Test strip"/>
               </coding>
               <text value="pH of Urine by Test strip"/>
            </code>
            <subject>
               <reference value="urn:uuid:2b9dc153-018a-4001-926f-09408efa362d"/>
               <display value="Leonhard Köhler"/>
            </subject>
            <effectiveDateTime value="2024-11-19T12:32:46Z"/>
            <performer>
               <display value="The Central European Lab"/>
            </performer>
            <valueQuantity>
               <value value="6.6"/>
               <unit value="pH"/>
               <system value="http://unitsofmeasure.org"/>
               <code value="pH"/>
            </valueQuantity>
            <referenceRange>
               <low>
                  <value value="4.5"/>
                  <system value="http://unitsofmeasure.org"/>
                  <code value="pH"/>
               </low>
            </referenceRange>
            <referenceRange>
               <high>
                  <value value="7.5"/>
                  <system value="http://unitsofmeasure.org"/>
                  <code value="pH"/>
               </high>
            </referenceRange>
         </Observation>
      </resource>
   </entry>
   <entry>
      <fullUrl value="urn:uuid:bd9109d7-6656-4da3-a7e8-4bc0b8039d86"/>
      <resource>
         <Observation>
            <id value="bd9109d7-6656-4da3-a7e8-4bc0b8039d86"/>
            <meta>
               <profile value="http://hl7.eu/fhir/laboratory/StructureDefinition/Observation-resultslab-eu-lab"/>
            </meta>
            <text>
               <status value="generated"/>
               <div xmlns="http://www.w3.org/1999/xhtml">
                  <table class="hl7__eu__lab__report">
                     <tr>
                        <th>Test</th>
                        <th>19-Nov-2024</th>
                        <th>Reference Range</th>
                        <th>Unit</th>
                     </tr>
                     <tr>
                        <td>Protein [Mass/volume] in Urine by Test strip</td>
                        <td>10.5</td>
                        <td>14 - 20</td>
                        <td>L</td>
                        <td>mg/dL</td>
                     </tr>
                  </table>
               </div>
            </text>
            <status value="final"/>
            <category>
               <coding>
                  <system value="http://terminology.hl7.org/CodeSystem/observation-category"/>
                  <code value="laboratory"/>
               </coding>
            </category>
            <code>
               <coding>
                  <system value="http://loinc.org"/>
                  <code value="5804-0"/>
                  <display value="Protein [Mass/volume] in Urine by Test strip"/>
               </coding>
               <text value="Protein [Mass/volume] in Urine by Test strip"/>
            </code>
            <subject>
               <reference value="urn:uuid:2b9dc153-018a-4001-926f-09408efa362d"/>
               <display value="Leonhard Köhler"/>
            </subject>
            <effectiveDateTime value="2024-11-19T12:32:46Z"/>
            <performer>
               <display value="The Central European Lab"/>
            </performer>
            <valueQuantity>
               <value value="10.5"/>
               <unit value="mg/dL"/>
               <system value="http://unitsofmeasure.org"/>
               <code value="mg/dL"/>
            </valueQuantity>
            <interpretation>
               <coding>
                  <system value="http://terminology.hl7.org/CodeSystem/v3-ObservationInterpretation"/>
                  <code value="L"/>
                  <display value="Low"/>
               </coding>
            </interpretation>
            <referenceRange>
               <low>
                  <value value="14"/>
                  <system value="http://unitsofmeasure.org"/>
                  <code value="mg/dL"/>
               </low>
            </referenceRange>
            <referenceRange>
               <high>
                  <value value="20"/>
                  <system value="http://unitsofmeasure.org"/>
                  <code value="mg/dL"/>
               </high>
            </referenceRange>
         </Observation>
      </resource>
   </entry>
   <entry>
      <fullUrl value="urn:uuid:8339f02d-4970-4fe0-864d-cde4a551c0c9"/>
      <resource>
         <Observation>
            <id value="8339f02d-4970-4fe0-864d-cde4a551c0c9"/>
            <meta>
               <profile value="http://hl7.eu/fhir/laboratory/StructureDefinition/Observation-resultslab-eu-lab"/>
            </meta>
            <text>
               <status value="generated"/>
               <div xmlns="http://www.w3.org/1999/xhtml">
                  <table class="hl7__eu__lab__report">
                     <tr>
                        <th>Test</th>
                        <th>19-Nov-2024</th>
                        <th>Reference Range</th>
                        <th>Unit</th>
                     </tr>
                     <tr>
                        <td>Nitrite [Presence] in Urine by Test strip</td>
                     </tr>
                  </table>
               </div>
            </text>
            <status value="final"/>
            <category>
               <coding>
                  <system value="http://terminology.hl7.org/CodeSystem/observation-category"/>
                  <code value="laboratory"/>
               </coding>
            </category>
            <code>
               <coding>
                  <system value="http://loinc.org"/>
                  <code value="5802-4"/>
                  <display value="Nitrite [Presence] in Urine by Test strip"/>
               </coding>
               <text value="Nitrite [Presence] in Urine by Test strip"/>
            </code>
            <subject>
               <reference value="urn:uuid:2b9dc153-018a-4001-926f-09408efa362d"/>
               <display value="Leonhard Köhler"/>
            </subject>
            <effectiveDateTime value="2024-11-19T12:32:46Z"/>
            <performer>
               <display value="The Central European Lab"/>
            </performer>
         </Observation>
      </resource>
   </entry>
   <entry>
      <fullUrl value="urn:uuid:3164ae53-4ac1-473a-bc75-62812bd1a8d0"/>
      <resource>
         <Observation>
            <id value="3164ae53-4ac1-473a-bc75-62812bd1a8d0"/>
            <meta>
               <profile value="http://hl7.eu/fhir/laboratory/StructureDefinition/Observation-resultslab-eu-lab"/>
            </meta>
            <text>
               <status value="generated"/>
               <div xmlns="http://www.w3.org/1999/xhtml">
                  <table class="hl7__eu__lab__report">
                     <tr>
                        <th>Test</th>
                        <th>19-Nov-2024</th>
                        <th>Reference Range</th>
                        <th>Unit</th>
                     </tr>
                     <tr>
                        <td>Hemoglobin [Presence] in Urine by Test strip</td>
                     </tr>
                  </table>
               </div>
            </text>
            <status value="final"/>
            <category>
               <coding>
                  <system value="http://terminology.hl7.org/CodeSystem/observation-category"/>
                  <code value="laboratory"/>
               </coding>
            </category>
            <code>
               <coding>
                  <system value="http://loinc.org"/>
                  <code value="5794-3"/>
                  <display value="Hemoglobin [Presence] in Urine by Test strip"/>
               </coding>
               <text value="Hemoglobin [Presence] in Urine by Test strip"/>
            </code>
            <subject>
               <reference value="urn:uuid:2b9dc153-018a-4001-926f-09408efa362d"/>
               <display value="Leonhard Köhler"/>
            </subject>
            <effectiveDateTime value="2024-11-19T12:32:46Z"/>
            <performer>
               <display value="The Central European Lab"/>
            </performer>
         </Observation>
      </resource>
   </entry>
   <entry>
      <fullUrl value="urn:uuid:20ab5ff9-d37f-45b9-9bfa-6c572e7deb43"/>
      <resource>
         <Observation>
            <id value="20ab5ff9-d37f-45b9-9bfa-6c572e7deb43"/>
            <meta>
               <profile value="http://hl7.eu/fhir/laboratory/StructureDefinition/Observation-resultslab-eu-lab"/>
            </meta>
            <text>
               <status value="generated"/>
               <div xmlns="http://www.w3.org/1999/xhtml">
                  <table class="hl7__eu__lab__report">
                     <tr>
                        <th>Test</th>
                        <th>19-Nov-2024</th>
                        <th>Reference Range</th>
                        <th>Unit</th>
                     </tr>
                     <tr>
                        <td>Leukocyte esterase [Presence] in Urine by Test strip</td>
                     </tr>
                  </table>
               </div>
            </text>
            <status value="final"/>
            <category>
               <coding>
                  <system value="http://terminology.hl7.org/CodeSystem/observation-category"/>
                  <code value="laboratory"/>
               </coding>
            </category>
            <code>
               <coding>
                  <system value="http://loinc.org"/>
                  <code value="5799-2"/>
                  <display value="Leukocyte esterase [Presence] in Urine by Test strip"/>
               </coding>
               <text value="Leukocyte esterase [Presence] in Urine by Test strip"/>
            </code>
            <subject>
               <reference value="urn:uuid:2b9dc153-018a-4001-926f-09408efa362d"/>
               <display value="Leonhard Köhler"/>
            </subject>
            <effectiveDateTime value="2024-11-19T12:32:46Z"/>
            <performer>
               <display value="The Central European Lab"/>
            </performer>
         </Observation>
      </resource>
   </entry>
   <entry>
      <fullUrl value="urn:uuid:344ae55f-bea0-4054-82f7-7903284ca31c"/>
      <resource>
         <Observation>
            <id value="344ae55f-bea0-4054-82f7-7903284ca31c"/>
            <meta>
               <profile value="http://hl7.eu/fhir/laboratory/StructureDefinition/Observation-resultslab-eu-lab"/>
            </meta>
            <text>
               <status value="generated"/>
               <div xmlns="http://www.w3.org/1999/xhtml">
                  <table class="hl7__eu__lab__report">
                     <tr>
                        <th>Test</th>
                        <th>19-Nov-2024</th>
                        <th>Reference Range</th>
                        <th>Unit</th>
                     </tr>
                     <tr>
                        <td>Leukocytes [#/area] in Urine sediment by Microscopy high power field</td>
                        <td>44.4</td>
                        <td>0 - 5</td>
                        <td>H</td>
                        <td>/[HPF]</td>
                     </tr>
                  </table>
               </div>
            </text>
            <status value="final"/>
            <category>
               <coding>
                  <system value="http://terminology.hl7.org/CodeSystem/observation-category"/>
                  <code value="laboratory"/>
               </coding>
            </category>
            <code>
               <coding>
                  <system value="http://loinc.org"/>
                  <code value="5821-4"/>
                  <display value="Leukocytes [#/area] in Urine sediment by Microscopy high power field"/>
               </coding>
               <text value="Leukocytes [#/area] in Urine sediment by Microscopy high power field"/>
            </code>
            <subject>
               <reference value="urn:uuid:2b9dc153-018a-4001-926f-09408efa362d"/>
               <display value="Leonhard Köhler"/>
            </subject>
            <effectiveDateTime value="2024-11-19T12:32:46Z"/>
            <performer>
               <display value="The Central European Lab"/>
            </performer>
            <valueQuantity>
               <value value="44.4"/>
               <unit value="/[HPF]"/>
               <system value="http://unitsofmeasure.org"/>
               <code value="/[HPF]"/>
            </valueQuantity>
            <interpretation>
               <coding>
                  <system value="http://terminology.hl7.org/CodeSystem/v3-ObservationInterpretation"/>
                  <code value="H"/>
                  <display value="High"/>
               </coding>
            </interpretation>
            <referenceRange>
               <low>
                  <value value="0"/>
                  <system value="http://unitsofmeasure.org"/>
                  <code value="#/area"/>
               </low>
            </referenceRange>
            <referenceRange>
               <high>
                  <value value="5"/>
                  <system value="http://unitsofmeasure.org"/>
                  <code value="#/area"/>
               </high>
            </referenceRange>
         </Observation>
      </resource>
   </entry>
   <entry>
      <fullUrl value="urn:uuid:79d1311a-f0c2-4b8b-bcf6-92b2382a6fc9"/>
      <resource>
         <Observation>
            <id value="79d1311a-f0c2-4b8b-bcf6-92b2382a6fc9"/>
            <meta>
               <profile value="http://hl7.eu/fhir/laboratory/StructureDefinition/Observation-resultslab-eu-lab"/>
            </meta>
            <text>
               <status value="generated"/>
               <div xmlns="http://www.w3.org/1999/xhtml">
                  <table class="hl7__eu__lab__report">
                     <tr>
                        <th>Test</th>
                        <th>19-Nov-2024</th>
                        <th>Reference Range</th>
                        <th>Unit</th>
                     </tr>
                     <tr>
                        <td>Erythrocytes [#/area] in Urine sediment by Microscopy high power field</td>
                        <td>2.0</td>
                        <td>0 - 5</td>
                        <td/>
                        <td>/[HPF]</td>
                     </tr>
                  </table>
               </div>
            </text>
            <status value="final"/>
            <category>
               <coding>
                  <system value="http://terminology.hl7.org/CodeSystem/observation-category"/>
                  <code value="laboratory"/>
               </coding>
            </category>
            <code>
               <coding>
                  <system value="http://loinc.org"/>
                  <code value="13945-1"/>
                  <display value="Erythrocytes [#/area] in Urine sediment by Microscopy high power field"/>
               </coding>
               <text value="Erythrocytes [#/area] in Urine sediment by Microscopy high power field"/>
            </code>
            <subject>
               <reference value="urn:uuid:2b9dc153-018a-4001-926f-09408efa362d"/>
               <display value="Leonhard Köhler"/>
            </subject>
            <effectiveDateTime value="2024-11-19T12:32:46Z"/>
            <performer>
               <display value="The Central European Lab"/>
            </performer>
            <valueQuantity>
               <value value="2"/>
               <unit value="/[HPF]"/>
               <system value="http://unitsofmeasure.org"/>
               <code value="/[HPF]"/>
            </valueQuantity>
            <referenceRange>
               <low>
                  <value value="0"/>
                  <system value="http://unitsofmeasure.org"/>
                  <code value="[#/area]"/>
               </low>
            </referenceRange>
            <referenceRange>
               <high>
                  <value value="5"/>
                  <system value="http://unitsofmeasure.org"/>
                  <code value="[#/area]"/>
               </high>
            </referenceRange>
         </Observation>
      </resource>
   </entry>
   <entry>
      <fullUrl value="urn:uuid:34bf9223-5e1e-4cea-b94e-eb6bd6d0b868"/>
      <resource>
         <Observation>
            <id value="34bf9223-5e1e-4cea-b94e-eb6bd6d0b868"/>
            <meta>
               <profile value="http://hl7.eu/fhir/laboratory/StructureDefinition/Observation-resultslab-eu-lab"/>
            </meta>
            <text>
               <status value="generated"/>
               <div xmlns="http://www.w3.org/1999/xhtml">
                  <table class="hl7__eu__lab__report">
                     <tr>
                        <th>Test</th>
                        <th>19-Nov-2024</th>
                        <th>Reference Range</th>
                        <th>Unit</th>
                     </tr>
                     <tr>
                        <td>Epithelial cells [#/area] in Urine sediment by Microscopy high power field</td>
                        <td>0.5</td>
                        <td>0 - 5</td>
                        <td/>
                        <td>/[HPF]</td>
                     </tr>
                  </table>
               </div>
            </text>
            <status value="final"/>
            <category>
               <coding>
                  <system value="http://terminology.hl7.org/CodeSystem/observation-category"/>
                  <code value="laboratory"/>
               </coding>
            </category>
            <code>
               <coding>
                  <system value="http://loinc.org"/>
                  <code value="5787-7"/>
                  <display value="Epithelial cells [#/area] in Urine sediment by Microscopy high power field"/>
               </coding>
               <text value="Epithelial cells [#/area] in Urine sediment by Microscopy high power field"/>
            </code>
            <subject>
               <reference value="urn:uuid:2b9dc153-018a-4001-926f-09408efa362d"/>
               <display value="Leonhard Köhler"/>
            </subject>
            <effectiveDateTime value="2024-11-19T12:32:46Z"/>
            <performer>
               <display value="The Central European Lab"/>
            </performer>
            <valueQuantity>
               <value value="0.5"/>
               <unit value="/[HPF]"/>
               <system value="http://unitsofmeasure.org"/>
               <code value="/[HPF]"/>
            </valueQuantity>
            <referenceRange>
               <low>
                  <value value="0"/>
                  <system value="http://unitsofmeasure.org"/>
                  <code value="#/area"/>
               </low>
            </referenceRange>
            <referenceRange>
               <high>
                  <value value="5"/>
                  <system value="http://unitsofmeasure.org"/>
                  <code value="#/area"/>
               </high>
            </referenceRange>
         </Observation>
      </resource>
   </entry>
   <entry>
      <fullUrl value="urn:uuid:71bb226c-e0fd-4f46-91a9-3f923869e8d4"/>
      <resource>
         <Observation>
            <id value="71bb226c-e0fd-4f46-91a9-3f923869e8d4"/>
            <meta>
               <profile value="http://hl7.eu/fhir/laboratory/StructureDefinition/Observation-resultslab-eu-lab"/>
            </meta>
            <text>
               <status value="generated"/>
               <div xmlns="http://www.w3.org/1999/xhtml">
                  <table class="hl7__eu__lab__report">
                     <tr>
                        <th>Test</th>
                        <th>19-Nov-2024</th>
                        <th>Reference Range</th>
                        <th>Unit</th>
                     </tr>
                     <tr>
                        <td>Casts [Presence] in Urine sediment by Light microscopy</td>
                     </tr>
                  </table>
               </div>
            </text>
            <status value="final"/>
            <category>
               <coding>
                  <system value="http://terminology.hl7.org/CodeSystem/observation-category"/>
                  <code value="laboratory"/>
               </coding>
            </category>
            <code>
               <coding>
                  <system value="http://loinc.org"/>
                  <code value="24124-0"/>
                  <display value="Casts [Presence] in Urine sediment by Light microscopy"/>
               </coding>
               <text value="Casts [Presence] in Urine sediment by Light microscopy"/>
            </code>
            <subject>
               <reference value="urn:uuid:2b9dc153-018a-4001-926f-09408efa362d"/>
               <display value="Leonhard Köhler"/>
            </subject>
            <effectiveDateTime value="2024-11-19T12:32:46Z"/>
            <performer>
               <display value="The Central European Lab"/>
            </performer>
         </Observation>
      </resource>
   </entry>
   <entry>
      <fullUrl value="urn:uuid:331116c2-68ea-43c8-af9b-1c566465bdff"/>
      <resource>
         <Observation>
            <id value="331116c2-68ea-43c8-af9b-1c566465bdff"/>
            <meta>
               <profile value="http://hl7.eu/fhir/laboratory/StructureDefinition/Observation-resultslab-eu-lab"/>
            </meta>
            <text>
               <status value="generated"/>
               <div xmlns="http://www.w3.org/1999/xhtml">
                  <table class="hl7__eu__lab__report">
                     <tr>
                        <th>Test</th>
                        <th>19-Nov-2024</th>
                        <th>Reference Range</th>
                        <th>Unit</th>
                     </tr>
                     <tr>
                        <td>Mucus [Presence] in Urine sediment by Light microscopy</td>
                     </tr>
                  </table>
               </div>
            </text>
            <status value="final"/>
            <category>
               <coding>
                  <system value="http://terminology.hl7.org/CodeSystem/observation-category"/>
                  <code value="laboratory"/>
               </coding>
            </category>
            <code>
               <coding>
                  <system value="http://loinc.org"/>
                  <code value="8247-9"/>
                  <display value="Mucus [Presence] in Urine sediment by Light microscopy"/>
               </coding>
               <text value="Mucus [Presence] in Urine sediment by Light microscopy"/>
            </code>
            <subject>
               <reference value="urn:uuid:2b9dc153-018a-4001-926f-09408efa362d"/>
               <display value="Leonhard Köhler"/>
            </subject>
            <effectiveDateTime value="2024-11-19T12:32:46Z"/>
            <performer>
               <display value="The Central European Lab"/>
            </performer>
         </Observation>
      </resource>
   </entry>
   <entry>
      <fullUrl value="urn:uuid:054151ca-6389-4b99-99ca-41b83c5de034"/>
      <resource>
         <Observation>
            <id value="054151ca-6389-4b99-99ca-41b83c5de034"/>
            <meta>
               <profile value="http://hl7.eu/fhir/laboratory/StructureDefinition/Observation-resultslab-eu-lab"/>
            </meta>
            <text>
               <status value="generated"/>
               <div xmlns="http://www.w3.org/1999/xhtml">
                  <table class="hl7__eu__lab__report">
                     <tr>
                        <th>Test</th>
                        <th>19-Nov-2024</th>
                        <th>Reference Range</th>
                        <th>Unit</th>
                     </tr>
                     <tr>
                        <td>Bacteria [#/area] in Urine sediment by Microscopy high power field</td>
                     </tr>
                  </table>
               </div>
            </text>
            <status value="final"/>
            <category>
               <coding>
                  <system value="http://terminology.hl7.org/CodeSystem/observation-category"/>
                  <code value="laboratory"/>
               </coding>
            </category>
            <code>
               <coding>
                  <system value="http://loinc.org"/>
                  <code value="5769-5"/>
                  <display value="Bacteria [#/area] in Urine sediment by Microscopy high power field"/>
               </coding>
               <text value="Bacteria [#/area] in Urine sediment by Microscopy high power field"/>
            </code>
            <subject>
               <reference value="urn:uuid:2b9dc153-018a-4001-926f-09408efa362d"/>
               <display value="Leonhard Köhler"/>
            </subject>
            <effectiveDateTime value="2024-11-19T12:32:46Z"/>
            <performer>
               <display value="The Central European Lab"/>
            </performer>
         </Observation>
      </resource>
   </entry>
   <entry>
      <fullUrl value="urn:uuid:8d11d272-3caa-4089-8dc3-d90001301be5"/>
      <resource>
         <Observation>
            <id value="8d11d272-3caa-4089-8dc3-d90001301be5"/>
            <meta>
               <profile value="http://hl7.eu/fhir/laboratory/StructureDefinition/Observation-resultslab-eu-lab"/>
            </meta>
            <text>
               <status value="generated"/>
               <div xmlns="http://www.w3.org/1999/xhtml">
                  <table class="hl7__eu__lab__report">
                     <tr>
                        <th>Test</th>
                        <th>19-Nov-2024</th>
                        <th>Reference Range</th>
                        <th>Unit</th>
                     </tr>
                     <tr>
                        <td>Bacteria identified in Urine by Culture</td>
                     </tr>
                  </table>
               </div>
            </text>
            <status value="final"/>
            <category>
               <coding>
                  <system value="http://terminology.hl7.org/CodeSystem/observation-category"/>
                  <code value="laboratory"/>
               </coding>
            </category>
            <code>
               <coding>
                  <system value="http://loinc.org"/>
                  <code value="630-4"/>
                  <display value="Bacteria identified in Urine by Culture"/>
               </coding>
               <text value="Bacteria identified in Urine by Culture"/>
            </code>
            <subject>
               <reference value="urn:uuid:2b9dc153-018a-4001-926f-09408efa362d"/>
               <display value="Leonhard Köhler"/>
            </subject>
            <effectiveDateTime value="2024-11-19T12:32:46Z"/>
            <performer>
               <display value="The Central European Lab"/>
            </performer>
         </Observation>
      </resource>
   </entry>
   <entry>
      <fullUrl value="urn:uuid:7d324f1b-8600-4eea-84ca-3747d22c709c"/>
      <resource>
         <DeviceUseStatement>
            <id value="7d324f1b-8600-4eea-84ca-3747d22c709c"/>
            <meta>
               <profile value="http://hl7.eu/fhir/eps/StructureDefinition/deviceUseStatement-eu-eps"/>
            </meta>
            <text>
               <status value="generated"/>
               <div xmlns="http://www.w3.org/1999/xhtml">
                  <table class="hl7__ips">
                     <tr>
                        <td>Manual wheelchair (physical object)</td>
                        <td>
                           <span class="nb">09-Sep-2003</span>
                        </td>
                     </tr>
                  </table>
               </div>
            </text>
            <status value="active"/>
            <subject>
               <reference value="urn:uuid:2b9dc153-018a-4001-926f-09408efa362d"/>
               <display value="Leonhard Köhler"/>
            </subject>
            <timingPeriod>
               <start value="2003-09-09"/>
            </timingPeriod>
            <device>
               <reference value="urn:uuid:e2654b88-7d95-4166-adb3-864df65c41d2"/>
               <display value="Manual wheelchair (physical object)"/>
            </device>
         </DeviceUseStatement>
      </resource>
   </entry>
   <entry>
      <fullUrl value="urn:uuid:e2654b88-7d95-4166-adb3-864df65c41d2"/>
      <resource>
         <Device>
            <id value="e2654b88-7d95-4166-adb3-864df65c41d2"/>
            <meta>
               <profile value="http://hl7.eu/fhir/eps/StructureDefinition/device-eu-eps"/>
            </meta>
            <udiCarrier id="(01)70663183357609(11)030819(17)280902(10)143535581(21)246111"/>
            <status value="active"/>
            <type>
               <coding>
                  <system value="http://snomed.info/sct"/>
                  <code value="228869008"/>
                  <display value="Manual wheelchair (physical object)"/>
               </coding>
            </type>
            <patient>
               <reference value="urn:uuid:2b9dc153-018a-4001-926f-09408efa362d"/>
               <display value="Leonhard Köhler"/>
            </patient>
         </Device>
      </resource>
   </entry>
   <entry>
      <fullUrl value="urn:uuid:c6a81dcd-930c-43f0-aab7-0bcee72edab1"/>
      <resource>
         <DeviceUseStatement>
            <id value="c6a81dcd-930c-43f0-aab7-0bcee72edab1"/>
            <meta>
               <profile value="http://hl7.eu/fhir/eps/StructureDefinition/deviceUseStatement-eu-eps"/>
            </meta>
            <text>
               <status value="generated"/>
               <div xmlns="http://www.w3.org/1999/xhtml">
                  <table class="hl7__ips">
                     <tr>
                        <td>Wheelchair accessory (physical object)</td>
                        <td>
                           <span class="nb">09-Sep-2003</span>
                        </td>
                     </tr>
                  </table>
               </div>
            </text>
            <status value="active"/>
            <subject>
               <reference value="urn:uuid:2b9dc153-018a-4001-926f-09408efa362d"/>
               <display value="Leonhard Köhler"/>
            </subject>
            <timingPeriod>
               <start value="2003-09-09"/>
            </timingPeriod>
            <device>
               <reference value="urn:uuid:f45f2884-1878-4175-b844-693491e4c949"/>
               <display value="Wheelchair accessory (physical object)"/>
            </device>
         </DeviceUseStatement>
      </resource>
   </entry>
   <entry>
      <fullUrl value="urn:uuid:f45f2884-1878-4175-b844-693491e4c949"/>
      <resource>
         <Device>
            <id value="f45f2884-1878-4175-b844-693491e4c949"/>
            <meta>
               <profile value="http://hl7.eu/fhir/eps/StructureDefinition/device-eu-eps"/>
            </meta>
            <udiCarrier id="(01)23149141006049(11)030819(17)280902(10)103481(21)35258792016208931"/>
            <status value="active"/>
            <type>
               <coding>
                  <system value="http://snomed.info/sct"/>
                  <code value="705417005"/>
                  <display value="Wheelchair accessory (physical object)"/>
               </coding>
            </type>
            <patient>
               <reference value="urn:uuid:2b9dc153-018a-4001-926f-09408efa362d"/>
               <display value="Leonhard Köhler"/>
            </patient>
         </Device>
      </resource>
   </entry>
   <entry>
      <fullUrl value="urn:uuid:140c1490-c279-4f0a-8e25-f0cde69bd4d2"/>
      <resource>
         <DeviceUseStatement>
            <id value="140c1490-c279-4f0a-8e25-f0cde69bd4d2"/>
            <meta>
               <profile value="http://hl7.eu/fhir/eps/StructureDefinition/deviceUseStatement-eu-eps"/>
            </meta>
            <text>
               <status value="generated"/>
               <div xmlns="http://www.w3.org/1999/xhtml">
                  <table class="hl7__ips">
                     <tr>
                        <td>Blood glucose meter (physical object)</td>
                        <td>
                           <span class="nb">09-Jul-1971</span>
                        </td>
                     </tr>
                  </table>
               </div>
            </text>
            <status value="active"/>
            <subject>
               <reference value="urn:uuid:2b9dc153-018a-4001-926f-09408efa362d"/>
               <display value="Leonhard Köhler"/>
            </subject>
            <timingPeriod>
               <start value="1971-07-09"/>
            </timingPeriod>
            <device>
               <reference value="urn:uuid:37fa5d7c-e141-49fa-97eb-52a354ef802c"/>
               <display value="Blood glucose meter (physical object)"/>
            </device>
         </DeviceUseStatement>
      </resource>
   </entry>
   <entry>
      <fullUrl value="urn:uuid:37fa5d7c-e141-49fa-97eb-52a354ef802c"/>
      <resource>
         <Device>
            <id value="37fa5d7c-e141-49fa-97eb-52a354ef802c"/>
            <meta>
               <profile value="http://hl7.eu/fhir/eps/StructureDefinition/device-eu-eps"/>
            </meta>
            <udiCarrier id="(01)75427931722607(11)710618(17)960702(10)2638659220821773(21)3665252"/>
            <status value="active"/>
            <type>
               <coding>
                  <system value="http://snomed.info/sct"/>
                  <code value="337414009"/>
                  <display value="Blood glucose meter (physical object)"/>
               </coding>
            </type>
            <patient>
               <reference value="urn:uuid:2b9dc153-018a-4001-926f-09408efa362d"/>
               <display value="Leonhard Köhler"/>
            </patient>
         </Device>
      </resource>
   </entry>
   <entry>
      <fullUrl value="urn:uuid:a8b15a07-ce11-492e-930f-964a16d85da7"/>
      <resource>
         <Device>
            <id value="a8b15a07-ce11-492e-930f-964a16d85da7"/>
            <text>
               <status value="generated"/>
               <div xmlns="http://www.w3.org/1999/xhtml">SYNDERAI Synthetic Generator v5.0</div>
            </text>
            <status value="active&#34;"/>
            <distinctIdentifier value="synderai-generator-50"/>
            <manufacturer value="SYNDERAI Project"/>
            <deviceName>
               <name value="SYNDERAI Synthetic Generator"/>
               <type value="manufacturer-name"/>
            </deviceName>
            <version>
               <value value="5.0"/>
            </version>
         </Device>
      </resource>
   </entry>
   <entry>
      <fullUrl value="urn:uuid:36b5de03-d57f-41cf-8220-5c87264e9223"/>
      <resource>
         <Provenance>
            <id value="36b5de03-d57f-41cf-8220-5c87264e9223"/>
            <text>
               <status value="generated"/>
               <div xmlns="http://www.w3.org/1999/xhtml">Provenance for SYNDERAI Synthetic Example Data Resource</div>
            </text>
            <target>
               <reference value="Patient/2b9dc153-018a-4001-926f-09408efa362d"/>
            </target>
            <target>
               <reference value="Bundle/53c5821c-387a-4133-bbe0-a23a0d3b09ea"/>
            </target>
            <target>
               <reference value="Composition/ab10b12a-88ea-4c81-a890-ddcc8a75f437"/>
            </target>
            <target>
               <reference value="PractitionerRole/3330614f-d755-4c80-b05b-249f2010b550"/>
            </target>
            <target>
               <reference value="Organization/23ab459a-81c1-4695-844b-fee01e4867f5"/>
            </target>
            <target>
               <reference value="Practitioner/59201f32-3685-4641-a0fa-77f3cff51135"/>
            </target>
            <recorded value="2024-11-19T12:32:46Z"/>
            <policy value="https://synderai.net/synderai-synthetic-data-policy"/>
            <reason>
               <text value="Interoperability Testing and Training (non-clinical use)"/>
            </reason>
            <activity>
               <text value="Synthetic Example Data Generation"/>
            </activity>
            <agent>
               <type>
                  <text value="author"/>
               </type>
               <who>
                  <reference value="Device/a8b15a07-ce11-492e-930f-964a16d85da7"/>
               </who>
            </agent>
         </Provenance>
      </resource>
   </entry>
</Bundle>