{
  "resourceType": "Bundle",
  "id": "bde5f9ec-1418-4f11-b279-31f26a68676d",
  "meta": {
    "profile": [
      "http://hl7.eu/fhir/eps/StructureDefinition/bundle-eu-eps"
    ]
  },
  "identifier": {
    "assigner": {
      "display": "HL7 Europe"
    },
    "system": "urn:oid:2.16.840.1.113883.2.51.999",
    "value": "e32a3eb5-9702-44df-b75d-051c81318d47"
  },
  "entry": [
    {
      "fullUrl": "urn:uuid:815a857f-b50b-4576-b6fb-aa9d061ecc64",
      "resource": {
        "resourceType": "Composition",
        "id": "815a857f-b50b-4576-b6fb-aa9d061ecc64",
        "meta": {
          "security": [
            {
              "system": "http://terminology.hl7.org/CodeSystem/v3-ActReason",
              "code": "HTEST"
            },
            {
              "system": "http://terminology.hl7.org/CodeSystem/v3-ActReason",
              "code": "TRAIN"
            }
          ],
          "tag": [
            {
              "system": "https://synderai.net/fhir/CodeSystem/tags",
              "code": "synthetic",
              "display": "SYNDERAI Synthetic data"
            }
          ],
          "profile": [
            "http://hl7.eu/fhir/eps/StructureDefinition/composition-eu-eps"
          ]
        },
        "identifier": {
          "assigner": {
            "display": "HL7 Europe"
          },
          "system": "urn:oid:2.16.840.1.113883.2.51.999",
          "value": "2ab3abcd-9278-4fcb-a7d3-0715cd716d11"
        },
        "type": {
          "coding": [
            {
              "system": "http://loinc.org",
              "code": "60591-5",
              "display": "Patient summary Document"
            }
          ],
          "text": "Patient summary Document"
        },
        "author": [
          {
            "reference": "urn:uuid:8b62a1d5-7ac0-4a61-a64b-5637d749b532"
          }
        ],
        "section": [
          {
            "text": {
              "status": "generated",
              "div": "<div xmlns=\"http://www.w3.org/1999/xhtml\"><table class=\"hl7__ips\"><tr><th>Condition</th><th>Onset Date</th><th>Status</th></tr><tr><td>Osteoporosis</td><td><span class=\"nb\">21-Oct-2018</span></td><td>active</td></tr><tr><td>Chronic sinusitis</td><td><span class=\"nb\">31-May-1999</span></td><td>active</td></tr><tr><td>Hyperlipidemia</td><td><span class=\"nb\">07-May-1989</span></td><td>active</td></tr><tr><td>Anemia</td><td><span class=\"nb\">06-Jul-1963</span></td><td>active</td></tr><tr><td>Prediabetes</td><td><span class=\"nb\">02-Jul-1960</span></td><td>active</td></tr><tr><td>Seizure disorder</td><td><span class=\"nb\">19-Apr-1953</span></td><td>active</td></tr></table></div>"
            },
            "entry": [
              {
                "reference": "urn:uuid:be122bac-0f74-49c1-a271-c27b12f7fba0"
              },
              {
                "reference": "urn:uuid:7375b0ea-2772-4f94-a269-98693aa8d829"
              },
              {
                "reference": "urn:uuid:a10854fd-3915-41ab-a1e8-268fae495b4f"
              },
              {
                "reference": "urn:uuid:62180c07-ab4a-4d0c-9601-a3097c315602"
              },
              {
                "reference": "urn:uuid:5fea60f3-8ae1-4ac8-94b6-2238cfb2d10f"
              },
              {
                "reference": "urn:uuid:8240bfd8-8502-4c7f-b66d-056e29caad87"
              }
            ],
            "code": {
              "coding": [
                {
                  "system": "http://loinc.org",
                  "code": "11450-4",
                  "display": "Problem list - Reported"
                }
              ]
            },
            "title": "Problem list"
          },
          {
            "text": {
              "status": "generated",
              "div": "<div xmlns=\"http://www.w3.org/1999/xhtml\"><table class=\"hl7__ips\"><tr><th>Medication</th><th>Since</th><th>Form</th><th>Dosage</th><th>Reason</th></tr><tr><td>Simvastatin 10 mg oral tablet</td><td><span class=\"nb\">2024-11-30</span></td><td>-</td><td>1 tablet (10 mg) by mouth once daily</td><td>Hyperlipidemia</td></tr><tr><td>Alendronic acid (as alendronate sodium) 10 mg oral tablet</td><td><span class=\"nb\">2024-11-23</span></td><td>-</td><td>1 tablet (10 mg) once daily</td><td>Osteoporosis (disorder)</td></tr></table></div>"
            },
            "entry": [
              {
                "reference": "urn:uuid:2e2ca888-29a1-41cd-930c-c24dd074e0f6"
              },
              {
                "reference": "urn:uuid:d538f4cc-1846-41dc-83a2-0d7a9bfa1b5f"
              }
            ],
            "code": {
              "coding": [
                {
                  "system": "http://loinc.org",
                  "code": "10160-0",
                  "display": "History of Medication use Narrative"
                }
              ]
            },
            "title": "Medication list"
          },
          {
            "text": {
              "status": "generated",
              "div": "<div xmlns=\"http://www.w3.org/1999/xhtml\"><table class=\"hl7__ips\"><tr><th>Vaccine</th><th>Date</th></tr><tr><td>Influenza virus antigen only vaccine product</td><td><span class=\"nb\">23-Nov-2024</span></td></tr><tr><td>SARS-CoV-2 mRNA vaccine</td><td><span class=\"nb\">05-Jun-2021</span></td></tr><tr><td>Clostridium tetani toxoid antigen adsorbed only vaccine product</td><td><span class=\"nb\">26-Oct-2019</span></td></tr></table></div>"
            },
            "entry": [
              {
                "reference": "urn:uuid:b1b9aa59-702e-493a-be68-42760514b26e"
              },
              {
                "reference": "urn:uuid:5bed6127-0df9-4d34-842f-6ca61f76c84c"
              },
              {
                "reference": "urn:uuid:ba7ad52f-87a0-47b2-9b8e-39d6550a140e"
              }
            ],
            "code": {
              "coding": [
                {
                  "system": "http://loinc.org",
                  "code": "11369-6",
                  "display": "History of Immunization note"
                }
              ]
            },
            "title": "Immunizations list"
          },
          {
            "text": {
              "status": "generated",
              "div": "<div xmlns=\"http://www.w3.org/1999/xhtml\"><table class=\"hl7__ips\"><tr><th>Procedure</th><th>Date</th><th>Reason</th></tr><tr><td>Suture open wound</td><td><span class=\"nb\">30-Jun-2023</span></td><td>Laceration of hand</td></tr><tr><td>Pre-discharge assessment</td><td><span class=\"nb\">09-May-2021</span></td><td>-</td></tr><tr><td>Discharge from skilled nursing facility (procedure)</td><td><span class=\"nb\">09-May-2021</span></td><td>-</td></tr><tr><td>Nursing care/supplementary surveillance</td><td><span class=\"nb\">08-May-2021</span></td><td>-</td></tr><tr><td>Physical therapy procedure</td><td><span class=\"nb\">06-May-2021</span></td><td>-</td></tr><tr><td>Radiography of humerus</td><td><span class=\"nb\">01-May-2021</span></td><td>-</td></tr><tr><td>History AND physical examination</td><td><span class=\"nb\">01-May-2021</span></td><td>-</td></tr><tr><td>Bone immobilization</td><td><span class=\"nb\">01-May-2021</span></td><td>Fracture of forearm</td></tr><tr><td>Initial patient assessment</td><td><span class=\"nb\">01-May-2021</span></td><td>-</td></tr><tr><td>Development of individualized plan of care</td><td><span class=\"nb\">01-May-2021</span></td><td>-</td></tr><tr><td>Occupational therapy</td><td><span class=\"nb\">05-Mar-2020</span></td><td>-</td></tr><tr><td>Care regimes assessment</td><td><span class=\"nb\">04-Mar-2020</span></td><td>-</td></tr><tr><td>Professional / ancillary services care</td><td><span class=\"nb\">26-Feb-2020</span></td><td>-</td></tr><tr><td>Radiography of wrist</td><td><span class=\"nb\">16-Feb-2020</span></td><td>-</td></tr></table></div>"
            },
            "entry": [
              {
                "reference": "urn:uuid:59d4eec1-b40b-4c26-b888-f1b894f9779c"
              },
              {
                "reference": "urn:uuid:13d62578-1bba-4996-bf67-531e36f1cda3"
              },
              {
                "reference": "urn:uuid:10f1bc48-d9ce-4844-87b3-7d2408991616"
              },
              {
                "reference": "urn:uuid:6459f50d-b7f8-4254-868d-b388d973e6ff"
              },
              {
                "reference": "urn:uuid:5ee90d57-7b43-4e56-8791-7233d55e96c0"
              },
              {
                "reference": "urn:uuid:a8abb798-c89d-4d84-a021-92d56ea01685"
              },
              {
                "reference": "urn:uuid:17f94d95-c3a4-4832-b599-508ca2f0676f"
              },
              {
                "reference": "urn:uuid:838401c8-7f0c-4ff2-a2d5-761a83ec19a0"
              },
              {
                "reference": "urn:uuid:c5cb5218-5abe-4090-a80f-9ab906209c5e"
              },
              {
                "reference": "urn:uuid:f98b5aaa-2f02-46c7-a419-ee02002589de"
              },
              {
                "reference": "urn:uuid:27f9c16f-629c-4f30-ac97-d7e4f55eb5ee"
              },
              {
                "reference": "urn:uuid:53eaf495-e163-4d1c-a6b8-dcb02a5aedfc"
              },
              {
                "reference": "urn:uuid:d5921009-afe9-4894-8d89-1097e57aa528"
              },
              {
                "reference": "urn:uuid:95dfbea3-1943-4cd2-85aa-02e360ffe5be"
              }
            ],
            "code": {
              "coding": [
                {
                  "system": "http://loinc.org",
                  "code": "47519-4",
                  "display": "History of Procedures Document"
                }
              ]
            },
            "title": "Procedure History list"
          },
          {
            "text": {
              "status": "generated",
              "div": "<div xmlns=\"http://www.w3.org/1999/xhtml\"><table class=\"hl7__ips\"><tr><th>Allergy/Intolerance</th><th>Onset Date</th><th>Status</th><th>Type</th><th>Reaction</th></tr><tr><td>Inadequate digital access affecting health care</td><td><span class=\"nb\">2025-10-22</span></td><td>active</td><td>environment</td><td></td></tr></table></div>"
            },
            "entry": [
              {
                "reference": "urn:uuid:e7388923-4025-448a-ab94-f4ee1d3695b3"
              }
            ],
            "code": {
              "coding": [
                {
                  "system": "http://loinc.org",
                  "code": "48765-2",
                  "display": "Allergies and adverse reactions Document"
                }
              ]
            },
            "title": "Allergies and Intolerances"
          },
          {
            "text": {
              "status": "generated",
              "div": "<div xmlns=\"http://www.w3.org/1999/xhtml\"><table class=\"hl7__ips\"><tr><th>Active Planned Care / Goals</th><th>Start Date</th><th>Reason</th></tr><tr><td>Hyperlipidemia clinical management plan</td><td><span class=\"nb\">28-May-1989</span></td><td>Hyperlipidemia</td></tr><tr><td><ul><li>Achieve LDL cholesterol less than 2.6 mmol/L</li><li>Achieve total cholesterol less than 5.2 mmol/L</li><li>Maintain HDL cholesterol greater than 1.3 mmol/L</li><li>Achieve triglycerides less than 1.7 mmol/L</li></ul></td><td></td><td></td></tr><tr><td>Diabetes self management plan</td><td><span class=\"nb\">02-Jul-1960</span></td><td>Prediabetes</td></tr><tr><td><ul><li>Patient will implement and maintain a diabetes self-management plan to reduce risk of progression from prediabetes.</li><li>Patient will achieve and maintain a healthy weight as part of diabetes self-management.</li><li>Patient will engage in at least 150 minutes of moderate-intensity physical activity per week.</li></ul></td><td></td><td></td></tr><tr><th>Immunization Recommendation</th><th>Due Date</th><th>Reason</th></tr><tr><td>Vaccine product containing only Influenza virus antigen (medicinal product)</td><td><span class=\"nb\">01-Oct-2025</span></td><td>Annual seasonal influenza vaccination</td></tr></table></div>"
            },
            "entry": [
              {
                "reference": "urn:uuid:ddc2c776-97c6-4634-b253-3d4d9d197ee0"
              },
              {
                "reference": "urn:uuid:5af4b0e2-98cc-4c23-8164-00585bbeaf34"
              },
              {
                "reference": "urn:uuid:3b21d93b-54a1-432b-bfb3-99aec17c9181"
              }
            ],
            "code": {
              "coding": [
                {
                  "system": "http://loinc.org",
                  "code": "18776-5",
                  "display": "Plan of care note"
                }
              ]
            },
            "title": "Care Plan"
          },
          {
            "text": {
              "status": "generated",
              "div": "<div xmlns=\"http://www.w3.org/1999/xhtml\"><table class=\"hl7__ips\"><tr><th>Vital Signs</th><th>2024-11-23</th><th>2023-11-18</th></tr><tr><td>Body Height</td><td>166.9 cm</td><td>166.9 cm</td></tr><tr><td>Pain severity - 0-10 verbal numeric rating [Score] - Reported</td><td>4 {score}</td><td>0 {score}</td></tr><tr><td>Body Weight</td><td>76.6 kg</td><td>76.6 kg</td></tr><tr><td>Body mass index (BMI) [Ratio]</td><td>27.5 kg/m2</td><td>27.5 kg/m2</td></tr><tr><td>Diastolic Blood Pressure</td><td>83 mm[Hg]</td><td>75 mm[Hg]</td></tr><tr><td>Systolic Blood Pressure</td><td>124 mm[Hg]</td><td>127 mm[Hg]</td></tr><tr><td>Heart rate</td><td>92 /min</td><td>81 /min</td></tr><tr><td>Respiratory rate</td><td>13 /min</td><td>15 /min</td></tr></table></div>"
            },
            "entry": [
              {
                "reference": "urn:uuid:0a15f1fe-0821-463f-a689-6a286c882718"
              },
              {
                "reference": "urn:uuid:57949397-0280-4904-bf38-0cbfbf43ef81"
              },
              {
                "reference": "urn:uuid:4aa62438-1871-4b3c-8704-b6be9379378c"
              },
              {
                "reference": "urn:uuid:d925615b-6b2d-4d63-98d8-70b189300d7a"
              },
              {
                "reference": "urn:uuid:4675870a-36d6-4197-bf7f-da4c34bc6445"
              },
              {
                "reference": "urn:uuid:f92a86ba-e432-4b4f-8a69-ff6b20e2fb9a"
              },
              {
                "reference": "urn:uuid:5ac1d0b0-99c1-4cf8-8988-e26b97202baa"
              },
              {
                "reference": "urn:uuid:58031562-5132-4949-8dff-4a5fe85f9279"
              },
              {
                "reference": "urn:uuid:75641c35-14ce-45d8-9e35-de708503a34f"
              },
              {
                "reference": "urn:uuid:532ed21d-a3e4-44ae-a86b-2933f1e2b17b"
              },
              {
                "reference": "urn:uuid:e9b3d19f-a942-45c2-a21c-a178e7803275"
              },
              {
                "reference": "urn:uuid:f0a52b20-a1df-455a-9558-f47dcfe287e4"
              },
              {
                "reference": "urn:uuid:ecedcc77-995a-44ad-b1c4-a8e965cea375"
              },
              {
                "reference": "urn:uuid:fcffc7f6-8d29-4d24-b659-435f34a6688c"
              },
              {
                "reference": "urn:uuid:fcf39641-0cd9-4f79-be2a-1d1b316116a7"
              },
              {
                "reference": "urn:uuid:61623983-68af-4165-adf2-5039b900277d"
              }
            ],
            "code": {
              "coding": [
                {
                  "system": "http://loinc.org",
                  "code": "8716-3",
                  "display": "Vital signs note"
                }
              ]
            },
            "title": "Vital Signs"
          },
          {
            "text": {
              "status": "generated",
              "div": "<div xmlns=\"http://www.w3.org/1999/xhtml\"><table class=\"hl7__ips\"><table class=\"hl7__ips\"><thead><tr><th>Recent Lab Observations</th><th>30-NOV-2024</th><th>Reference&#xA0;Range</th><th>Unit</th></tr></thead><tbody><tr><td>Glucose [Mass/volume] in Blood</td><td>86.2</td><td>70 - 140</td><td>mg/dL</td></tr><tr><td>Urea nitrogen [Mass/volume] in Blood</td><td>15.0</td><td>7 - 25</td><td>mg/dL</td></tr><tr><td>Creatinine [Mass/volume] in Blood</td><td><strong>2.7 H</strong></td><td>0.6 - 1.1</td><td>mg/dL</td></tr><tr><td>Calcium [Mass/volume] in Blood</td><td>8.6</td><td>8.6 - 10.4</td><td>mg/dL</td></tr><tr><td>Sodium [Moles/volume] in Blood</td><td>142.2</td><td>135 - 145</td><td>mmol/L</td></tr><tr><td>Potassium [Moles/volume] in Blood</td><td>5.0</td><td>3.5 - 5.3</td><td>mmol/L</td></tr><tr><td>Chloride [Moles/volume] in Blood</td><td>106.8</td><td>98 - 108</td><td>mmol/L</td></tr><tr><td>Carbon dioxide, total [Moles/volume] in Blood</td><td><strong>20.6 L</strong></td><td>22 - 32</td><td>mmol/L</td></tr><tr><td>Protein [Mass/volume] in Serum or Plasma</td><td>6.7</td><td>6.6 - 8.3</td><td>g/dL</td></tr><tr><td>Albumin [Mass/volume] in Serum or Plasma</td><td>4.0</td><td>3.5 - 5.5</td><td>g/dL</td></tr><tr><td>Globulin [Mass/volume] in Serum by calculation</td><td>2.2</td><td>2.2 - 3.7</td><td>g/L</td></tr><tr><td>Bilirubin.total [Mass/volume] in Serum or Plasma</td><td>0.3</td><td>0.3 - 1.2</td><td>mg/dL</td></tr><tr><td>Alkaline phosphatase [Enzymatic activity/volume] in Serum or Plasma</td><td>44.6</td><td>40 - 130</td><td>U/L</td></tr><tr><td>Alanine aminotransferase [Enzymatic activity/volume] in Serum or Plasma</td><td>43.4</td><td>7 - 55</td><td>U/L</td></tr><tr><td>Aspartate aminotransferase [Enzymatic activity/volume] in Serum or Plasma</td><td>15.6</td><td>10 - 40</td><td>U/L</td></tr><tr><td>Cholesterol [Mass/volume] in Serum or Plasma</td><td><strong>204.8 H</strong></td><td>125 - 200</td><td>mg/dL</td></tr><tr><td>Triglyceride [Mass/volume] in Serum or Plasma</td><td>151.8</td><td>10 - 175</td><td>mg/dL</td></tr><tr><td>Cholesterol in LDL [Mass/volume] in Serum or Plasma by Direct assay</td><td>100.8</td><td>0 - 130</td><td>mg/dL</td></tr><tr><td>Cholesterol in HDL [Mass/volume] in Serum or Plasma</td><td><strong>32.2 L</strong></td><td>50 - 100</td><td>mg/dL</td></tr></tbody></table></table></div>"
            },
            "entry": [
              {
                "reference": "urn:uuid:db4d8cdf-8e67-420f-b378-d26a0f691b49"
              },
              {
                "reference": "urn:uuid:794e55c4-7cfc-4259-afad-4a734d5ed969"
              },
              {
                "reference": "urn:uuid:034f21b0-9870-4797-98b6-9429b9de5178"
              },
              {
                "reference": "urn:uuid:5b8ada2f-d57d-47a9-8951-685e7cc86fc2"
              },
              {
                "reference": "urn:uuid:2c2a6c49-d26a-4547-9af0-d66e3f95a73b"
              },
              {
                "reference": "urn:uuid:524c5add-0e3b-4457-b724-2b6ea2d4724d"
              },
              {
                "reference": "urn:uuid:7bb9dc9c-c86a-453f-87e5-910874879708"
              },
              {
                "reference": "urn:uuid:7c709279-9486-4b78-91c0-05b26e8615a7"
              },
              {
                "reference": "urn:uuid:4119660f-2bd5-4442-ae0e-84f5e4629b24"
              },
              {
                "reference": "urn:uuid:a0a2ba53-7382-41a7-a6da-135e4440b090"
              },
              {
                "reference": "urn:uuid:9f523797-f94f-4500-93a0-a5e33c64045e"
              },
              {
                "reference": "urn:uuid:8430b955-1d04-4bd0-87bc-e73d15d36c3d"
              },
              {
                "reference": "urn:uuid:abe1082d-9520-4ef4-a660-925e554e3af0"
              },
              {
                "reference": "urn:uuid:17711978-5960-44cc-82a1-50c91bd0ab45"
              },
              {
                "reference": "urn:uuid:6cd2dce2-5028-4344-b263-37f67ac38400"
              },
              {
                "reference": "urn:uuid:4da3a01d-b5d1-440a-950e-c642070e7066"
              },
              {
                "reference": "urn:uuid:c816cd2e-3c09-41bb-a0b1-f261846d0aec"
              },
              {
                "reference": "urn:uuid:71c5b2ee-be2b-4485-842f-78182030c621"
              },
              {
                "reference": "urn:uuid:293db8bb-fa47-4735-92c5-0636220e4620"
              }
            ],
            "code": {
              "coding": [
                {
                  "system": "http://loinc.org",
                  "code": "30954-2",
                  "display": "Relevant diagnostic tests/laboratory data note"
                }
              ]
            },
            "title": "Relevant diagnostic tests/laboratory data"
          },
          {
            "text": {
              "status": "generated",
              "div": "<div xmlns=\"http://www.w3.org/1999/xhtml\"><table class=\"hl7__ips\"><tr><th>Device</th><th>Date (since)</th></tr><tr><td>Home nebulizer (physical object)</td><td><span class=\"nb\">31-May-1999</span></td></tr><tr><td>Blood glucose meter (physical object)</td><td><span class=\"nb\">02-Jul-1960</span></td></tr></table></div>"
            },
            "entry": [
              {
                "reference": "urn:uuid:6340ff75-a3e1-44b3-9819-253a22b26d51"
              },
              {
                "reference": "urn:uuid:e5033ec0-358d-46af-bd9b-00a68cc975b3"
              }
            ],
            "code": {
              "coding": [
                {
                  "system": "http://loinc.org",
                  "code": "46264-8",
                  "display": "History of medical device use"
                }
              ]
            },
            "title": "Device Use"
          }
        ],
        "title": "European Patient Summary",
        "status": "final",
        "subject": {
          "reference": "urn:uuid:356b1a6a-4cfc-485b-876d-1814cf62fb15",
          "display": "Helene Andresen"
        },
        "custodian": {
          "reference": "urn:uuid:704307a4-2a78-447b-b149-e6d8d4daedb2"
        },
        "date": "2024-11-30",
        "confidentiality": "N"
      }
    },
    {
      "fullUrl": "urn:uuid:356b1a6a-4cfc-485b-876d-1814cf62fb15",
      "resource": {
        "resourceType": "Patient",
        "id": "356b1a6a-4cfc-485b-876d-1814cf62fb15",
        "meta": {
          "security": [
            {
              "system": "http://terminology.hl7.org/CodeSystem/v3-ActReason",
              "code": "HTEST"
            },
            {
              "system": "http://terminology.hl7.org/CodeSystem/v3-ActReason",
              "code": "TRAIN"
            }
          ],
          "tag": [
            {
              "system": "https://synderai.net/fhir/CodeSystem/tags",
              "code": "synthetic",
              "display": "SYNDERAI Synthetic data"
            }
          ],
          "profile": [
            "http://hl7.eu/fhir/eps/StructureDefinition/patient-eu-eps"
          ]
        },
        "identifier": [
          {
            "type": {
              "coding": [
                {
                  "code": "PT",
                  "system": "http://terminology.hl7.org/CodeSystem/v2-0203"
                }
              ]
            },
            "system": "http://ec.europa.eu/identifier/eci",
            "value": "3450-170343-2"
          },
          {
            "type": {
              "coding": [
                {
                  "code": "MR",
                  "system": "http://terminology.hl7.org/CodeSystem/v2-0203"
                }
              ]
            },
            "system": "http://local.setting.eu/identifier",
            "value": "72e91c9c-0b01-42b0-a6a0-6dcc70aeec49"
          }
        ],
        "name": [
          {
            "family": "Andresen"
          },
          {
            "given": [
              "Helene"
            ]
          },
          {
            "text": "Helene Andresen"
          }
        ],
        "address": [
          {
            "line": [
              "Kristiansenberget 2"
            ],
            "use": "home",
            "type": "physical",
            "postalCode": "0172",
            "city": "Sørensen",
            "country": "Norway"
          }
        ],
        "telecom": [
          {
            "system": "phone",
            "value": "53 98 86 24"
          }
        ],
        "extension": [
          {
            "url": "http://hl7.org/fhir/StructureDefinition/patient-nationality",
            "valueCodeableConcept": {
              "coding": [
                {
                  "code": "NO",
                  "system": "http://hl7.org/fhir/ValueSet/country"
                }
              ]
            }
          }
        ],
        "text": {
          "status": "generated",
          "div": "<div xmlns=\"http://www.w3.org/1999/xhtml\"><table class=\"hl7__ips\"><tr><td>Helene Andresen</td><td>female</td><td>17-Oct-1939</td></tr></table></div>"
        },
        "gender": "female",
        "birthDate": "1939-10-17"
      }
    },
    {
      "fullUrl": "urn:uuid:8b62a1d5-7ac0-4a61-a64b-5637d749b532",
      "resource": {
        "resourceType": "PractitionerRole",
        "id": "8b62a1d5-7ac0-4a61-a64b-5637d749b532",
        "meta": {
          "profile": [
            "http://hl7.eu/fhir/base/StructureDefinition/practitionerRole-eu"
          ]
        },
        "text": {
          "status": "generated",
          "div": "<div xmlns=\"http://www.w3.org/1999/xhtml\"><table class=\"hl7__ips\">Provider Role Id 8b62a1d5-7ac0-4a61-a64b-5637d749b532</table></div>"
        },
        "practitioner": {
          "reference": "urn:uuid:f386e736-d46c-4748-a750-d55199582c72"
        },
        "organization": {
          "reference": "urn:uuid:704307a4-2a78-447b-b149-e6d8d4daedb2"
        }
      }
    },
    {
      "fullUrl": "urn:uuid:f386e736-d46c-4748-a750-d55199582c72",
      "resource": {
        "resourceType": "Practitioner",
        "id": "f386e736-d46c-4748-a750-d55199582c72",
        "meta": {
          "profile": [
            "http://hl7.eu/fhir/base/StructureDefinition/practitioner-eu"
          ]
        },
        "name": [
          {
            "prefix": [
              "Dr."
            ],
            "given": [
              "Hel"
            ],
            "family": "Ping"
          }
        ],
        "text": {
          "status": "generated",
          "div": "<div xmlns=\"http://www.w3.org/1999/xhtml\"><table class=\"hl7__ips\">Dr. Hel Ping</table></div>"
        }
      }
    },
    {
      "fullUrl": "urn:uuid:704307a4-2a78-447b-b149-e6d8d4daedb2",
      "resource": {
        "resourceType": "Organization",
        "id": "704307a4-2a78-447b-b149-e6d8d4daedb2",
        "meta": {
          "profile": [
            "http://hl7.eu/fhir/base/StructureDefinition/organization-eu"
          ]
        },
        "identifier": [
          {
            "assigner": {
              "display": "HL7 Europe"
            },
            "system": "urn:oid:2.16.840.1.113883.2.51.999",
            "value": "0f938d14-3161-415e-af0d-eb3c6c85bc53"
          }
        ],
        "address": [
          {
            "city": "Oslo",
            "postalCode": "0155",
            "country": "Norway"
          }
        ],
        "text": {
          "status": "generated",
          "div": "<div xmlns=\"http://www.w3.org/1999/xhtml\"><table class=\"hl7__ips\">Oslo universitetssykehus (Ullevål)</table></div>"
        },
        "name": "Oslo universitetssykehus (Ullevål)"
      }
    },
    {
      "fullUrl": "urn:uuid:be122bac-0f74-49c1-a271-c27b12f7fba0",
      "resource": {
        "resourceType": "Condition",
        "id": "be122bac-0f74-49c1-a271-c27b12f7fba0",
        "meta": {
          "profile": [
            "http://hl7.org/fhir/uv/ips/StructureDefinition/Condition-uv-ips"
          ]
        },
        "category": [
          {
            "coding": [
              {
                "code": "problem-list-item",
                "system": "http://terminology.hl7.org/CodeSystem/condition-category",
                "display": "Problem List Item"
              }
            ]
          }
        ],
        "code": {
          "coding": [
            {
              "code": "64859006",
              "system": "http://snomed.info/sct",
              "display": "Osteoporosis (disorder)"
            }
          ],
          "text": "Osteoporosis"
        },
        "text": {
          "status": "generated",
          "div": "<div xmlns=\"http://www.w3.org/1999/xhtml\"><table class=\"hl7__ips\"><tr><td>Osteoporosis</td><td><span class=\"nb\">21-Oct-2018</span></td><td>active</td></tr></table></div>"
        },
        "onsetDateTime": "2018-10-21",
        "subject": {
          "reference": "urn:uuid:",
          "display": "Helene Andresen"
        },
        "asserter": {
          "reference": "urn:uuid:",
          "display": "Oslo universitetssykehus (Ullevål)"
        }
      }
    },
    {
      "fullUrl": "urn:uuid:7375b0ea-2772-4f94-a269-98693aa8d829",
      "resource": {
        "resourceType": "Condition",
        "id": "7375b0ea-2772-4f94-a269-98693aa8d829",
        "meta": {
          "profile": [
            "http://hl7.org/fhir/uv/ips/StructureDefinition/Condition-uv-ips"
          ]
        },
        "category": [
          {
            "coding": [
              {
                "code": "problem-list-item",
                "system": "http://terminology.hl7.org/CodeSystem/condition-category",
                "display": "Problem List Item"
              }
            ]
          }
        ],
        "code": {
          "coding": [
            {
              "code": "40055000",
              "system": "http://snomed.info/sct",
              "display": "Chronic sinusitis (disorder)"
            }
          ],
          "text": "Chronic sinusitis"
        },
        "text": {
          "status": "generated",
          "div": "<div xmlns=\"http://www.w3.org/1999/xhtml\"><table class=\"hl7__ips\"><tr><td>Chronic sinusitis</td><td><span class=\"nb\">31-May-1999</span></td><td>active</td></tr></table></div>"
        },
        "onsetDateTime": "1999-05-31",
        "subject": {
          "reference": "urn:uuid:",
          "display": "Helene Andresen"
        },
        "asserter": {
          "reference": "urn:uuid:",
          "display": "Oslo universitetssykehus (Ullevål)"
        }
      }
    },
    {
      "fullUrl": "urn:uuid:a10854fd-3915-41ab-a1e8-268fae495b4f",
      "resource": {
        "resourceType": "Condition",
        "id": "a10854fd-3915-41ab-a1e8-268fae495b4f",
        "meta": {
          "profile": [
            "http://hl7.org/fhir/uv/ips/StructureDefinition/Condition-uv-ips"
          ]
        },
        "category": [
          {
            "coding": [
              {
                "code": "problem-list-item",
                "system": "http://terminology.hl7.org/CodeSystem/condition-category",
                "display": "Problem List Item"
              }
            ]
          }
        ],
        "code": {
          "coding": [
            {
              "code": "55822004",
              "system": "http://snomed.info/sct",
              "display": "Hyperlipidemia (disorder)"
            }
          ],
          "text": "Hyperlipidemia"
        },
        "text": {
          "status": "generated",
          "div": "<div xmlns=\"http://www.w3.org/1999/xhtml\"><table class=\"hl7__ips\"><tr><td>Hyperlipidemia</td><td><span class=\"nb\">07-May-1989</span></td><td>active</td></tr></table></div>"
        },
        "onsetDateTime": "1989-05-07",
        "subject": {
          "reference": "urn:uuid:",
          "display": "Helene Andresen"
        },
        "asserter": {
          "reference": "urn:uuid:",
          "display": "Oslo universitetssykehus (Ullevål)"
        }
      }
    },
    {
      "fullUrl": "urn:uuid:62180c07-ab4a-4d0c-9601-a3097c315602",
      "resource": {
        "resourceType": "Condition",
        "id": "62180c07-ab4a-4d0c-9601-a3097c315602",
        "meta": {
          "profile": [
            "http://hl7.org/fhir/uv/ips/StructureDefinition/Condition-uv-ips"
          ]
        },
        "category": [
          {
            "coding": [
              {
                "code": "problem-list-item",
                "system": "http://terminology.hl7.org/CodeSystem/condition-category",
                "display": "Problem List Item"
              }
            ]
          }
        ],
        "code": {
          "coding": [
            {
              "code": "271737000",
              "system": "http://snomed.info/sct",
              "display": "Anemia (disorder)"
            }
          ],
          "text": "Anemia"
        },
        "text": {
          "status": "generated",
          "div": "<div xmlns=\"http://www.w3.org/1999/xhtml\"><table class=\"hl7__ips\"><tr><td>Anemia</td><td><span class=\"nb\">06-Jul-1963</span></td><td>active</td></tr></table></div>"
        },
        "onsetDateTime": "1963-07-06",
        "subject": {
          "reference": "urn:uuid:",
          "display": "Helene Andresen"
        },
        "asserter": {
          "reference": "urn:uuid:",
          "display": "Oslo universitetssykehus (Ullevål)"
        }
      }
    },
    {
      "fullUrl": "urn:uuid:5fea60f3-8ae1-4ac8-94b6-2238cfb2d10f",
      "resource": {
        "resourceType": "Condition",
        "id": "5fea60f3-8ae1-4ac8-94b6-2238cfb2d10f",
        "meta": {
          "profile": [
            "http://hl7.org/fhir/uv/ips/StructureDefinition/Condition-uv-ips"
          ]
        },
        "category": [
          {
            "coding": [
              {
                "code": "problem-list-item",
                "system": "http://terminology.hl7.org/CodeSystem/condition-category",
                "display": "Problem List Item"
              }
            ]
          }
        ],
        "code": {
          "coding": [
            {
              "code": "15777000",
              "system": "http://snomed.info/sct",
              "display": "Prediabetes (disorder)"
            }
          ],
          "text": "Prediabetes"
        },
        "text": {
          "status": "generated",
          "div": "<div xmlns=\"http://www.w3.org/1999/xhtml\"><table class=\"hl7__ips\"><tr><td>Prediabetes</td><td><span class=\"nb\">02-Jul-1960</span></td><td>active</td></tr></table></div>"
        },
        "onsetDateTime": "1960-07-02",
        "subject": {
          "reference": "urn:uuid:",
          "display": "Helene Andresen"
        },
        "asserter": {
          "reference": "urn:uuid:",
          "display": "Oslo universitetssykehus (Ullevål)"
        }
      }
    },
    {
      "fullUrl": "urn:uuid:8240bfd8-8502-4c7f-b66d-056e29caad87",
      "resource": {
        "resourceType": "Condition",
        "id": "8240bfd8-8502-4c7f-b66d-056e29caad87",
        "meta": {
          "profile": [
            "http://hl7.org/fhir/uv/ips/StructureDefinition/Condition-uv-ips"
          ]
        },
        "category": [
          {
            "coding": [
              {
                "code": "problem-list-item",
                "system": "http://terminology.hl7.org/CodeSystem/condition-category",
                "display": "Problem List Item"
              }
            ]
          }
        ],
        "code": {
          "coding": [
            {
              "code": "128613002",
              "system": "http://snomed.info/sct",
              "display": "Seizure disorder (disorder)"
            }
          ],
          "text": "Seizure disorder"
        },
        "text": {
          "status": "generated",
          "div": "<div xmlns=\"http://www.w3.org/1999/xhtml\"><table class=\"hl7__ips\"><tr><td>Seizure disorder</td><td><span class=\"nb\">19-Apr-1953</span></td><td>active</td></tr></table></div>"
        },
        "onsetDateTime": "1953-04-19",
        "subject": {
          "reference": "urn:uuid:",
          "display": "Helene Andresen"
        },
        "asserter": {
          "reference": "urn:uuid:",
          "display": "Oslo universitetssykehus (Ullevål)"
        }
      }
    },
    {
      "fullUrl": "urn:uuid:613e80f5-8475-40a4-9d60-04825ab6254e",
      "resource": {
        "resourceType": "Condition",
        "id": "613e80f5-8475-40a4-9d60-04825ab6254e",
        "meta": {
          "profile": [
            "http://hl7.org/fhir/uv/ips/StructureDefinition/Condition-uv-ips"
          ]
        },
        "category": [
          {
            "coding": [
              {
                "code": "problem-list-item",
                "system": "http://terminology.hl7.org/CodeSystem/condition-category",
                "display": "Problem List Item"
              }
            ]
          }
        ],
        "code": {
          "coding": [
            {
              "code": "284549007",
              "system": "http://snomed.info/sct",
              "display": "Laceration of hand (disorder)"
            }
          ],
          "text": "Laceration of hand"
        },
        "text": {
          "status": "generated",
          "div": "<div xmlns=\"http://www.w3.org/1999/xhtml\"><table class=\"hl7__ips\"><tr><td><span class=\"grayedout\">Laceration of hand</span></td><td><span class=\"nb\">30-Jun-2023 - 14-Jul-2023</span></td><td><span class=\"grayedout\">inactive</span></td></tr></table></div>"
        },
        "onsetDateTime": "2023-06-30",
        "abatementDateTime": "2023-07-14",
        "subject": {
          "reference": "urn:uuid:",
          "display": "Helene Andresen"
        },
        "asserter": {
          "reference": "urn:uuid:",
          "display": "Oslo universitetssykehus (Ullevål)"
        }
      }
    },
    {
      "fullUrl": "urn:uuid:702265e3-bf84-473e-a42b-87fc80ef07cb",
      "resource": {
        "resourceType": "Condition",
        "id": "702265e3-bf84-473e-a42b-87fc80ef07cb",
        "meta": {
          "profile": [
            "http://hl7.org/fhir/uv/ips/StructureDefinition/Condition-uv-ips"
          ]
        },
        "category": [
          {
            "coding": [
              {
                "code": "problem-list-item",
                "system": "http://terminology.hl7.org/CodeSystem/condition-category",
                "display": "Problem List Item"
              }
            ]
          }
        ],
        "code": {
          "coding": [
            {
              "code": "312608009",
              "system": "http://snomed.info/sct",
              "display": "Laceration - injury (disorder)"
            }
          ],
          "text": "Laceration - injury"
        },
        "text": {
          "status": "generated",
          "div": "<div xmlns=\"http://www.w3.org/1999/xhtml\"><table class=\"hl7__ips\"><tr><td><span class=\"grayedout\">Laceration - injury</span></td><td><span class=\"nb\">30-Jun-2023 - 14-Jul-2023</span></td><td><span class=\"grayedout\">inactive</span></td></tr></table></div>"
        },
        "onsetDateTime": "2023-06-30",
        "abatementDateTime": "2023-07-14",
        "subject": {
          "reference": "urn:uuid:",
          "display": "Helene Andresen"
        },
        "asserter": {
          "reference": "urn:uuid:",
          "display": "Oslo universitetssykehus (Ullevål)"
        }
      }
    },
    {
      "fullUrl": "urn:uuid:7cbf046b-5f73-4f32-b445-4f6de2a3d2d6",
      "resource": {
        "resourceType": "Condition",
        "id": "7cbf046b-5f73-4f32-b445-4f6de2a3d2d6",
        "meta": {
          "profile": [
            "http://hl7.org/fhir/uv/ips/StructureDefinition/Condition-uv-ips"
          ]
        },
        "category": [
          {
            "coding": [
              {
                "code": "problem-list-item",
                "system": "http://terminology.hl7.org/CodeSystem/condition-category",
                "display": "Problem List Item"
              }
            ]
          }
        ],
        "code": {
          "coding": [
            {
              "code": "65966004",
              "system": "http://snomed.info/sct",
              "display": "Fracture of forearm (disorder)"
            }
          ],
          "text": "Fracture of forearm"
        },
        "text": {
          "status": "generated",
          "div": "<div xmlns=\"http://www.w3.org/1999/xhtml\"><table class=\"hl7__ips\"><tr><td><span class=\"grayedout\">Fracture of forearm</span></td><td><span class=\"nb\">01-May-2021 - 06-Aug-2021</span></td><td><span class=\"grayedout\">inactive</span></td></tr></table></div>"
        },
        "onsetDateTime": "2021-05-01",
        "abatementDateTime": "2021-08-06",
        "subject": {
          "reference": "urn:uuid:",
          "display": "Helene Andresen"
        },
        "asserter": {
          "reference": "urn:uuid:",
          "display": "Oslo universitetssykehus (Ullevål)"
        }
      }
    },
    {
      "fullUrl": "urn:uuid:98250319-786e-414d-a66b-089bf1579d69",
      "resource": {
        "resourceType": "Condition",
        "id": "98250319-786e-414d-a66b-089bf1579d69",
        "meta": {
          "profile": [
            "http://hl7.org/fhir/uv/ips/StructureDefinition/Condition-uv-ips"
          ]
        },
        "category": [
          {
            "coding": [
              {
                "code": "problem-list-item",
                "system": "http://terminology.hl7.org/CodeSystem/condition-category",
                "display": "Problem List Item"
              }
            ]
          }
        ],
        "code": {
          "coding": [
            {
              "code": "125605004",
              "system": "http://snomed.info/sct",
              "display": "Fracture of bone (disorder)"
            }
          ],
          "text": "Fracture of bone"
        },
        "text": {
          "status": "generated",
          "div": "<div xmlns=\"http://www.w3.org/1999/xhtml\"><table class=\"hl7__ips\"><tr><td><span class=\"grayedout\">Fracture of bone</span></td><td><span class=\"nb\">01-May-2021 - 06-Aug-2021</span></td><td><span class=\"grayedout\">inactive</span></td></tr></table></div>"
        },
        "onsetDateTime": "2021-05-01",
        "abatementDateTime": "2021-08-06",
        "subject": {
          "reference": "urn:uuid:",
          "display": "Helene Andresen"
        },
        "asserter": {
          "reference": "urn:uuid:",
          "display": "Oslo universitetssykehus (Ullevål)"
        }
      }
    },
    {
      "fullUrl": "urn:uuid:b1b43911-e40c-4d91-970d-6f3f1f6d7b81",
      "resource": {
        "resourceType": "Condition",
        "id": "b1b43911-e40c-4d91-970d-6f3f1f6d7b81",
        "meta": {
          "profile": [
            "http://hl7.org/fhir/uv/ips/StructureDefinition/Condition-uv-ips"
          ]
        },
        "category": [
          {
            "coding": [
              {
                "code": "problem-list-item",
                "system": "http://terminology.hl7.org/CodeSystem/condition-category",
                "display": "Problem List Item"
              }
            ]
          }
        ],
        "code": {
          "coding": [
            {
              "code": "443165006",
              "system": "http://snomed.info/sct",
              "display": "Osteoporotic fracture of bone (disorder)"
            }
          ],
          "text": "Osteoporotic fracture"
        },
        "text": {
          "status": "generated",
          "div": "<div xmlns=\"http://www.w3.org/1999/xhtml\"><table class=\"hl7__ips\"><tr><td><span class=\"grayedout\">Osteoporotic fracture</span></td><td><span class=\"nb\">01-May-2021 - 06-Aug-2021</span></td><td><span class=\"grayedout\">inactive</span></td></tr></table></div>"
        },
        "onsetDateTime": "2021-05-01",
        "abatementDateTime": "2021-08-06",
        "subject": {
          "reference": "urn:uuid:",
          "display": "Helene Andresen"
        },
        "asserter": {
          "reference": "urn:uuid:",
          "display": "Oslo universitetssykehus (Ullevål)"
        }
      }
    },
    {
      "fullUrl": "urn:uuid:c8bd4ef5-a9b2-45b2-95e0-6b7f31750e98",
      "resource": {
        "resourceType": "Condition",
        "id": "c8bd4ef5-a9b2-45b2-95e0-6b7f31750e98",
        "meta": {
          "profile": [
            "http://hl7.org/fhir/uv/ips/StructureDefinition/Condition-uv-ips"
          ]
        },
        "category": [
          {
            "coding": [
              {
                "code": "problem-list-item",
                "system": "http://terminology.hl7.org/CodeSystem/condition-category",
                "display": "Problem List Item"
              }
            ]
          }
        ],
        "code": {
          "coding": [
            {
              "code": "125605004",
              "system": "http://snomed.info/sct",
              "display": "Fracture of bone (disorder)"
            }
          ],
          "text": "Fracture of bone"
        },
        "text": {
          "status": "generated",
          "div": "<div xmlns=\"http://www.w3.org/1999/xhtml\"><table class=\"hl7__ips\"><tr><td><span class=\"grayedout\">Fracture of bone</span></td><td><span class=\"nb\">16-Feb-2020 - 28-Jun-2020</span></td><td><span class=\"grayedout\">inactive</span></td></tr></table></div>"
        },
        "onsetDateTime": "2020-02-16",
        "abatementDateTime": "2020-06-28",
        "subject": {
          "reference": "urn:uuid:",
          "display": "Helene Andresen"
        },
        "asserter": {
          "reference": "urn:uuid:",
          "display": "Oslo universitetssykehus (Ullevål)"
        }
      }
    },
    {
      "fullUrl": "urn:uuid:2771ac99-493c-4e2b-b441-6f6dba58df4e",
      "resource": {
        "resourceType": "Condition",
        "id": "2771ac99-493c-4e2b-b441-6f6dba58df4e",
        "meta": {
          "profile": [
            "http://hl7.org/fhir/uv/ips/StructureDefinition/Condition-uv-ips"
          ]
        },
        "category": [
          {
            "coding": [
              {
                "code": "problem-list-item",
                "system": "http://terminology.hl7.org/CodeSystem/condition-category",
                "display": "Problem List Item"
              }
            ]
          }
        ],
        "code": {
          "coding": [
            {
              "code": "263102004",
              "system": "http://snomed.info/sct",
              "display": "Fracture subluxation of wrist (disorder)"
            }
          ],
          "text": "Fracture subluxation of wrist"
        },
        "text": {
          "status": "generated",
          "div": "<div xmlns=\"http://www.w3.org/1999/xhtml\"><table class=\"hl7__ips\"><tr><td><span class=\"grayedout\">Fracture subluxation of wrist</span></td><td><span class=\"nb\">16-Feb-2020 - 28-Jun-2020</span></td><td><span class=\"grayedout\">inactive</span></td></tr></table></div>"
        },
        "onsetDateTime": "2020-02-16",
        "abatementDateTime": "2020-06-28",
        "subject": {
          "reference": "urn:uuid:",
          "display": "Helene Andresen"
        },
        "asserter": {
          "reference": "urn:uuid:",
          "display": "Oslo universitetssykehus (Ullevål)"
        }
      }
    },
    {
      "fullUrl": "urn:uuid:3be0c217-a448-4cae-b0a8-63208b5ad58c",
      "resource": {
        "resourceType": "Condition",
        "id": "3be0c217-a448-4cae-b0a8-63208b5ad58c",
        "meta": {
          "profile": [
            "http://hl7.org/fhir/uv/ips/StructureDefinition/Condition-uv-ips"
          ]
        },
        "category": [
          {
            "coding": [
              {
                "code": "problem-list-item",
                "system": "http://terminology.hl7.org/CodeSystem/condition-category",
                "display": "Problem List Item"
              }
            ]
          }
        ],
        "code": {
          "coding": [
            {
              "code": "443165006",
              "system": "http://snomed.info/sct",
              "display": "Osteoporotic fracture of bone (disorder)"
            }
          ],
          "text": "Osteoporotic fracture"
        },
        "text": {
          "status": "generated",
          "div": "<div xmlns=\"http://www.w3.org/1999/xhtml\"><table class=\"hl7__ips\"><tr><td><span class=\"grayedout\">Osteoporotic fracture</span></td><td><span class=\"nb\">16-Feb-2020 - 28-Jun-2020</span></td><td><span class=\"grayedout\">inactive</span></td></tr></table></div>"
        },
        "onsetDateTime": "2020-02-16",
        "abatementDateTime": "2020-06-28",
        "subject": {
          "reference": "urn:uuid:",
          "display": "Helene Andresen"
        },
        "asserter": {
          "reference": "urn:uuid:",
          "display": "Oslo universitetssykehus (Ullevål)"
        }
      }
    },
    {
      "fullUrl": "urn:uuid:d86dd4c8-8f0e-431d-a86e-af09b3cdfa9c",
      "resource": {
        "resourceType": "Condition",
        "id": "d86dd4c8-8f0e-431d-a86e-af09b3cdfa9c",
        "meta": {
          "profile": [
            "http://hl7.org/fhir/uv/ips/StructureDefinition/Condition-uv-ips"
          ]
        },
        "category": [
          {
            "coding": [
              {
                "code": "problem-list-item",
                "system": "http://terminology.hl7.org/CodeSystem/condition-category",
                "display": "Problem List Item"
              }
            ]
          }
        ],
        "code": {
          "coding": [
            {
              "code": "444814009",
              "system": "http://snomed.info/sct",
              "display": "Viral sinusitis (disorder)"
            }
          ],
          "text": "Viral sinusitis"
        },
        "text": {
          "status": "generated",
          "div": "<div xmlns=\"http://www.w3.org/1999/xhtml\"><table class=\"hl7__ips\"><tr><td><span class=\"grayedout\">Viral sinusitis</span></td><td><span class=\"nb\">10-Jul-2016 - 23-Jul-2016</span></td><td><span class=\"grayedout\">inactive</span></td></tr></table></div>"
        },
        "onsetDateTime": "2016-07-10",
        "abatementDateTime": "2016-07-23",
        "subject": {
          "reference": "urn:uuid:",
          "display": "Helene Andresen"
        },
        "asserter": {
          "reference": "urn:uuid:",
          "display": "Oslo universitetssykehus (Ullevål)"
        }
      }
    },
    {
      "fullUrl": "urn:uuid:3a065180-53f0-4f85-9b71-c4d6d52f9bcc",
      "resource": {
        "resourceType": "Medication",
        "id": "3a065180-53f0-4f85-9b71-c4d6d52f9bcc",
        "meta": {
          "profile": [
            "http://hl7.eu/fhir/eps/StructureDefinition/Medication-eu-eps"
          ]
        },
        "code": {
          "coding": [
            {
              "code": "319996000",
              "system": "http://snomed.info/sct",
              "display": "Simvastatin 10 mg oral tablet"
            }
          ],
          "text": "Simvastatin 10 mg oral tablet"
        },
        "text": {
          "status": "generated",
          "div": "<div xmlns=\"http://www.w3.org/1999/xhtml\">Simvastatin 10 mg oral tablet</div>"
        }
      }
    },
    {
      "fullUrl": "urn:uuid:2e2ca888-29a1-41cd-930c-c24dd074e0f6",
      "resource": {
        "resourceType": "MedicationStatement",
        "id": "2e2ca888-29a1-41cd-930c-c24dd074e0f6",
        "meta": {
          "profile": [
            "http://hl7.eu/fhir/eps/StructureDefinition/MedicationStatement-eu-eps"
          ]
        },
        "effectivePeriod": {
          "start": "2024-11-30"
        },
        "dosage": [
          {
            "doseAndRate": [
              {
                "doseQuantity": {
                  "value": 1,
                  "unit": "{tbl}",
                  "code": "{tbl}"
                }
              }
            ],
            "timing": {
              "repeat": {
                "frequency": 1,
                "period": 1,
                "periodUnit": "d"
              }
            },
            "text": "1 tablet (10 mg) by mouth once daily",
            "asNeededBoolean": false
          }
        ],
        "reasonCode": [
          {
            "coding": [
              {
                "code": "55822004",
                "system": "http://snomed.info/sct",
                "display": "Hyperlipidemia"
              }
            ]
          }
        ],
        "text": {
          "status": "generated",
          "div": "<div xmlns=\"http://www.w3.org/1999/xhtml\"><table class=\"hl7__ips first25\"><tr><th>Medication</th><th>Since</th><th>Form</th><th>Dosage</th><th>Reason</th></tr><tr><td>Simvastatin 10 mg oral tablet</td><td><span class=\"nb\">2024-11-30</span></td><td>-</td><td>1 tablet (10 mg) by mouth once daily</td><td>Hyperlipidemia</td></tr></table></div>"
        },
        "status": "active",
        "medicationReference": {
          "reference": "urn:uuid:3a065180-53f0-4f85-9b71-c4d6d52f9bcc",
          "display": "Simvastatin 10 mg oral tablet"
        },
        "subject": {
          "reference": "urn:uuid:356b1a6a-4cfc-485b-876d-1814cf62fb15",
          "display": "Helene Andresen"
        }
      }
    },
    {
      "fullUrl": "urn:uuid:ddcb13b5-0534-458a-b2bf-375f85c6da9e",
      "resource": {
        "resourceType": "Medication",
        "id": "ddcb13b5-0534-458a-b2bf-375f85c6da9e",
        "meta": {
          "profile": [
            "http://hl7.eu/fhir/eps/StructureDefinition/Medication-eu-eps"
          ]
        },
        "code": {
          "coding": [
            {
              "code": "783144007",
              "system": "http://snomed.info/sct",
              "display": "Alendronic acid (as alendronate sodium) 10 mg oral tablet"
            }
          ],
          "text": "Alendronic acid (as alendronate sodium) 10 mg oral tablet"
        },
        "text": {
          "status": "generated",
          "div": "<div xmlns=\"http://www.w3.org/1999/xhtml\">Alendronic acid (as alendronate sodium) 10 mg oral tablet</div>"
        }
      }
    },
    {
      "fullUrl": "urn:uuid:d538f4cc-1846-41dc-83a2-0d7a9bfa1b5f",
      "resource": {
        "resourceType": "MedicationStatement",
        "id": "d538f4cc-1846-41dc-83a2-0d7a9bfa1b5f",
        "meta": {
          "profile": [
            "http://hl7.eu/fhir/eps/StructureDefinition/MedicationStatement-eu-eps"
          ]
        },
        "effectivePeriod": {
          "start": "2024-11-23"
        },
        "dosage": [
          {
            "doseAndRate": [
              {
                "doseQuantity": {
                  "value": 1,
                  "unit": "{tbl}",
                  "code": "{tbl}"
                }
              }
            ],
            "timing": {
              "repeat": {
                "frequency": 1,
                "period": 1,
                "periodUnit": "d"
              }
            },
            "text": "1 tablet (10 mg) once daily",
            "asNeededBoolean": false
          }
        ],
        "reasonCode": [
          {
            "coding": [
              {
                "code": "64859006",
                "system": "http://snomed.info/sct",
                "display": "Osteoporosis (disorder)"
              }
            ]
          }
        ],
        "text": {
          "status": "generated",
          "div": "<div xmlns=\"http://www.w3.org/1999/xhtml\"><table class=\"hl7__ips first25\"><tr><th>Medication</th><th>Since</th><th>Form</th><th>Dosage</th><th>Reason</th></tr><tr><td>Alendronic acid (as alendronate sodium) 10 mg oral tablet</td><td><span class=\"nb\">2024-11-23</span></td><td>-</td><td>1 tablet (10 mg) once daily</td><td>Osteoporosis (disorder)</td></tr></table></div>"
        },
        "status": "active",
        "medicationReference": {
          "reference": "urn:uuid:ddcb13b5-0534-458a-b2bf-375f85c6da9e",
          "display": "Alendronic acid (as alendronate sodium) 10 mg oral tablet"
        },
        "subject": {
          "reference": "urn:uuid:356b1a6a-4cfc-485b-876d-1814cf62fb15",
          "display": "Helene Andresen"
        }
      }
    },
    {
      "fullUrl": "urn:uuid:b1b9aa59-702e-493a-be68-42760514b26e",
      "resource": {
        "resourceType": "Immunization",
        "id": "b1b9aa59-702e-493a-be68-42760514b26e",
        "meta": {
          "profile": [
            "http://hl7.org/fhir/uv/ips/StructureDefinition/Immunization-uv-ips"
          ]
        },
        "vaccineCode": {
          "coding": [
            {
              "code": "1181000221105",
              "system": "http://snomed.info/sct",
              "display": "Vaccine product containing Influenza virus antigen"
            },
            {
              "code": "J07BB02",
              "system": "http://www.whocc.no/atc",
              "display": "Influenza, inactivated, split virus"
            }
          ],
          "text": "Influenza virus antigen only vaccine product"
        },
        "site": {
          "coding": [
            {
              "code": "244979005",
              "system": "http://snomed.info/sct",
              "display": "Entire muscle of upper arm"
            }
          ],
          "text": "Entire muscle of upper arm"
        },
        "route": {
          "coding": [
            {
              "code": "78421000",
              "system": "http://snomed.info/sct",
              "display": "Intramuscular route"
            }
          ],
          "text": "Intramuscular route"
        },
        "text": {
          "status": "generated",
          "div": "<div xmlns=\"http://www.w3.org/1999/xhtml\"><table class=\"hl7__ips\"><tr><td>Influenza virus antigen only vaccine product</td><td><span class=\"nb\">23-Nov-2024</span></td></tr></table></div>"
        },
        "status": "completed",
        "patient": {
          "reference": "urn:uuid:356b1a6a-4cfc-485b-876d-1814cf62fb15",
          "display": "Helene Andresen"
        },
        "occurrenceDateTime": "2024-11-23",
        "lotNumber": "ZC-8deG",
        "expirationDate": "2025-06-12"
      }
    },
    {
      "fullUrl": "urn:uuid:5bed6127-0df9-4d34-842f-6ca61f76c84c",
      "resource": {
        "resourceType": "Immunization",
        "id": "5bed6127-0df9-4d34-842f-6ca61f76c84c",
        "meta": {
          "profile": [
            "http://hl7.org/fhir/uv/ips/StructureDefinition/Immunization-uv-ips"
          ]
        },
        "vaccineCode": {
          "coding": [
            {
              "code": "1119349007",
              "system": "http://snomed.info/sct",
              "display": "Vaccine product containing SARS-CoV-2 mRNA"
            },
            {
              "code": "J07BX03",
              "system": "http://www.whocc.no/atc",
              "display": "COVID-19 mRNA vaccines"
            }
          ],
          "text": "SARS-CoV-2 mRNA vaccine"
        },
        "site": {
          "coding": [
            {
              "code": "244979005",
              "system": "http://snomed.info/sct",
              "display": "Entire muscle of upper arm"
            }
          ],
          "text": "Entire muscle of upper arm"
        },
        "route": {
          "coding": [
            {
              "code": "78421000",
              "system": "http://snomed.info/sct",
              "display": "Intramuscular route"
            }
          ],
          "text": "Intramuscular route"
        },
        "text": {
          "status": "generated",
          "div": "<div xmlns=\"http://www.w3.org/1999/xhtml\"><table class=\"hl7__ips\"><tr><td>SARS-CoV-2 mRNA vaccine</td><td><span class=\"nb\">05-Jun-2021</span></td></tr></table></div>"
        },
        "status": "completed",
        "patient": {
          "reference": "urn:uuid:356b1a6a-4cfc-485b-876d-1814cf62fb15",
          "display": "Helene Andresen"
        },
        "occurrenceDateTime": "2021-06-05",
        "lotNumber": "OE-Kq0WhJ",
        "expirationDate": "2021-11-22"
      }
    },
    {
      "fullUrl": "urn:uuid:ba7ad52f-87a0-47b2-9b8e-39d6550a140e",
      "resource": {
        "resourceType": "Immunization",
        "id": "ba7ad52f-87a0-47b2-9b8e-39d6550a140e",
        "meta": {
          "profile": [
            "http://hl7.org/fhir/uv/ips/StructureDefinition/Immunization-uv-ips"
          ]
        },
        "vaccineCode": {
          "coding": [
            {
              "code": "777725002",
              "system": "http://snomed.info/sct",
              "display": "Vaccine product containing only Clostridium tetani toxoid antigen adsorbed"
            },
            {
              "code": "J07AM51",
              "system": "http://www.whocc.no/atc",
              "display": "Diphtheria-tetanus vaccines, adult type"
            }
          ],
          "text": "Clostridium tetani toxoid antigen adsorbed only vaccine product"
        },
        "site": {
          "coding": [
            {
              "code": "244979005",
              "system": "http://snomed.info/sct",
              "display": "Entire muscle of upper arm"
            }
          ],
          "text": "Entire muscle of upper arm"
        },
        "route": {
          "coding": [
            {
              "code": "78421000",
              "system": "http://snomed.info/sct",
              "display": "Intramuscular route"
            }
          ],
          "text": "Intramuscular route"
        },
        "text": {
          "status": "generated",
          "div": "<div xmlns=\"http://www.w3.org/1999/xhtml\"><table class=\"hl7__ips\"><tr><td>Clostridium tetani toxoid antigen adsorbed only vaccine product</td><td><span class=\"nb\">26-Oct-2019</span></td></tr></table></div>"
        },
        "status": "completed",
        "patient": {
          "reference": "urn:uuid:356b1a6a-4cfc-485b-876d-1814cf62fb15",
          "display": "Helene Andresen"
        },
        "occurrenceDateTime": "2019-10-26",
        "lotNumber": "MA-NaXCTm",
        "expirationDate": "2020-09-04"
      }
    },
    {
      "fullUrl": "urn:uuid:59d4eec1-b40b-4c26-b888-f1b894f9779c",
      "resource": {
        "resourceType": "Procedure",
        "id": "59d4eec1-b40b-4c26-b888-f1b894f9779c",
        "meta": {
          "profile": [
            "http://hl7.org/fhir/uv/ips/StructureDefinition/Procedure-uv-ips"
          ]
        },
        "code": {
          "coding": [
            {
              "code": "288086009",
              "system": "http://snomed.info/sct",
              "display": "Suture open wound"
            }
          ],
          "text": "Suture open wound"
        },
        "reasonCode": [
          {
            "coding": [
              {
                "code": "284549007",
                "system": "http://snomed.info/sct",
                "display": "Laceration of hand"
              }
            ]
          }
        ],
        "text": {
          "status": "generated",
          "div": "<div xmlns=\"http://www.w3.org/1999/xhtml\"><table class=\"hl7__ips\"><tr><td>Suture open wound</td><td><span class=\"nb\">30-Jun-2023</span></td><td>Laceration of hand</td></tr></table></div>"
        },
        "status": "completed",
        "performedDateTime": "2023-06-30",
        "subject": {
          "reference": "urn:uuid:",
          "display": "Helene Andresen"
        }
      }
    },
    {
      "fullUrl": "urn:uuid:13d62578-1bba-4996-bf67-531e36f1cda3",
      "resource": {
        "resourceType": "Procedure",
        "id": "13d62578-1bba-4996-bf67-531e36f1cda3",
        "meta": {
          "profile": [
            "http://hl7.org/fhir/uv/ips/StructureDefinition/Procedure-uv-ips"
          ]
        },
        "code": {
          "coding": [
            {
              "code": "225386006",
              "system": "http://snomed.info/sct",
              "display": "Pre-discharge assessment (procedure)"
            }
          ],
          "text": "Pre-discharge assessment"
        },
        "text": {
          "status": "generated",
          "div": "<div xmlns=\"http://www.w3.org/1999/xhtml\"><table class=\"hl7__ips\"><tr><td>Pre-discharge assessment</td><td><span class=\"nb\">09-May-2021</span></td><td>-</td></tr></table></div>"
        },
        "status": "completed",
        "performedDateTime": "2021-05-09",
        "subject": {
          "reference": "urn:uuid:",
          "display": "Helene Andresen"
        }
      }
    },
    {
      "fullUrl": "urn:uuid:10f1bc48-d9ce-4844-87b3-7d2408991616",
      "resource": {
        "resourceType": "Procedure",
        "id": "10f1bc48-d9ce-4844-87b3-7d2408991616",
        "meta": {
          "profile": [
            "http://hl7.org/fhir/uv/ips/StructureDefinition/Procedure-uv-ips"
          ]
        },
        "code": {
          "coding": [
            {
              "code": "449381000124108",
              "system": "http://snomed.info/sct",
              "display": "Discharge from skilled nursing facility (procedure)"
            }
          ]
        },
        "text": {
          "status": "generated",
          "div": "<div xmlns=\"http://www.w3.org/1999/xhtml\"><table class=\"hl7__ips\"><tr><td>Discharge from skilled nursing facility (procedure)</td><td><span class=\"nb\">09-May-2021</span></td><td>-</td></tr></table></div>"
        },
        "status": "completed",
        "performedDateTime": "2021-05-09",
        "subject": {
          "reference": "urn:uuid:",
          "display": "Helene Andresen"
        }
      }
    },
    {
      "fullUrl": "urn:uuid:6459f50d-b7f8-4254-868d-b388d973e6ff",
      "resource": {
        "resourceType": "Procedure",
        "id": "6459f50d-b7f8-4254-868d-b388d973e6ff",
        "meta": {
          "profile": [
            "http://hl7.org/fhir/uv/ips/StructureDefinition/Procedure-uv-ips"
          ]
        },
        "code": {
          "coding": [
            {
              "code": "410401003",
              "system": "http://snomed.info/sct",
              "display": "Nursing care/supplementary surveillance (regime/therapy)"
            }
          ],
          "text": "Nursing care/supplementary surveillance"
        },
        "text": {
          "status": "generated",
          "div": "<div xmlns=\"http://www.w3.org/1999/xhtml\"><table class=\"hl7__ips\"><tr><td>Nursing care/supplementary surveillance</td><td><span class=\"nb\">08-May-2021</span></td><td>-</td></tr></table></div>"
        },
        "status": "completed",
        "performedDateTime": "2021-05-08",
        "subject": {
          "reference": "urn:uuid:",
          "display": "Helene Andresen"
        }
      }
    },
    {
      "fullUrl": "urn:uuid:5ee90d57-7b43-4e56-8791-7233d55e96c0",
      "resource": {
        "resourceType": "Procedure",
        "id": "5ee90d57-7b43-4e56-8791-7233d55e96c0",
        "meta": {
          "profile": [
            "http://hl7.org/fhir/uv/ips/StructureDefinition/Procedure-uv-ips"
          ]
        },
        "code": {
          "coding": [
            {
              "code": "91251008",
              "system": "http://snomed.info/sct",
              "display": "Physical therapy procedure (regime/therapy)"
            }
          ],
          "text": "Physical therapy procedure"
        },
        "text": {
          "status": "generated",
          "div": "<div xmlns=\"http://www.w3.org/1999/xhtml\"><table class=\"hl7__ips\"><tr><td>Physical therapy procedure</td><td><span class=\"nb\">06-May-2021</span></td><td>-</td></tr></table></div>"
        },
        "status": "completed",
        "performedDateTime": "2021-05-06",
        "subject": {
          "reference": "urn:uuid:",
          "display": "Helene Andresen"
        }
      }
    },
    {
      "fullUrl": "urn:uuid:a8abb798-c89d-4d84-a021-92d56ea01685",
      "resource": {
        "resourceType": "Procedure",
        "id": "a8abb798-c89d-4d84-a021-92d56ea01685",
        "meta": {
          "profile": [
            "http://hl7.org/fhir/uv/ips/StructureDefinition/Procedure-uv-ips"
          ]
        },
        "code": {
          "coding": [
            {
              "code": "1225002",
              "system": "http://snomed.info/sct",
              "display": "Upper arm X-ray"
            }
          ],
          "text": "Radiography of humerus"
        },
        "text": {
          "status": "generated",
          "div": "<div xmlns=\"http://www.w3.org/1999/xhtml\"><table class=\"hl7__ips\"><tr><td>Radiography of humerus</td><td><span class=\"nb\">01-May-2021</span></td><td>-</td></tr></table></div>"
        },
        "status": "completed",
        "performedDateTime": "2021-05-01",
        "subject": {
          "reference": "urn:uuid:",
          "display": "Helene Andresen"
        }
      }
    },
    {
      "fullUrl": "urn:uuid:17f94d95-c3a4-4832-b599-508ca2f0676f",
      "resource": {
        "resourceType": "Procedure",
        "id": "17f94d95-c3a4-4832-b599-508ca2f0676f",
        "meta": {
          "profile": [
            "http://hl7.org/fhir/uv/ips/StructureDefinition/Procedure-uv-ips"
          ]
        },
        "code": {
          "coding": [
            {
              "code": "63332003",
              "system": "http://snomed.info/sct",
              "display": "History AND physical examination (procedure)"
            }
          ],
          "text": "History AND physical examination"
        },
        "text": {
          "status": "generated",
          "div": "<div xmlns=\"http://www.w3.org/1999/xhtml\"><table class=\"hl7__ips\"><tr><td>History AND physical examination</td><td><span class=\"nb\">01-May-2021</span></td><td>-</td></tr></table></div>"
        },
        "status": "completed",
        "performedDateTime": "2021-05-01",
        "subject": {
          "reference": "urn:uuid:",
          "display": "Helene Andresen"
        }
      }
    },
    {
      "fullUrl": "urn:uuid:838401c8-7f0c-4ff2-a2d5-761a83ec19a0",
      "resource": {
        "resourceType": "Procedure",
        "id": "838401c8-7f0c-4ff2-a2d5-761a83ec19a0",
        "meta": {
          "profile": [
            "http://hl7.org/fhir/uv/ips/StructureDefinition/Procedure-uv-ips"
          ]
        },
        "code": {
          "coding": [
            {
              "code": "274474001",
              "system": "http://snomed.info/sct",
              "display": "Bone immobilization"
            }
          ],
          "text": "Bone immobilization"
        },
        "reasonCode": [
          {
            "coding": [
              {
                "code": "65966004",
                "system": "http://snomed.info/sct",
                "display": "Fracture of forearm"
              }
            ]
          }
        ],
        "text": {
          "status": "generated",
          "div": "<div xmlns=\"http://www.w3.org/1999/xhtml\"><table class=\"hl7__ips\"><tr><td>Bone immobilization</td><td><span class=\"nb\">01-May-2021</span></td><td>Fracture of forearm</td></tr></table></div>"
        },
        "status": "completed",
        "performedDateTime": "2021-05-01",
        "subject": {
          "reference": "urn:uuid:",
          "display": "Helene Andresen"
        }
      }
    },
    {
      "fullUrl": "urn:uuid:c5cb5218-5abe-4090-a80f-9ab906209c5e",
      "resource": {
        "resourceType": "Procedure",
        "id": "c5cb5218-5abe-4090-a80f-9ab906209c5e",
        "meta": {
          "profile": [
            "http://hl7.org/fhir/uv/ips/StructureDefinition/Procedure-uv-ips"
          ]
        },
        "code": {
          "coding": [
            {
              "code": "315639002",
              "system": "http://snomed.info/sct",
              "display": "Initial patient assessment (procedure)"
            }
          ],
          "text": "Initial patient assessment"
        },
        "text": {
          "status": "generated",
          "div": "<div xmlns=\"http://www.w3.org/1999/xhtml\"><table class=\"hl7__ips\"><tr><td>Initial patient assessment</td><td><span class=\"nb\">01-May-2021</span></td><td>-</td></tr></table></div>"
        },
        "status": "completed",
        "performedDateTime": "2021-05-01",
        "subject": {
          "reference": "urn:uuid:",
          "display": "Helene Andresen"
        }
      }
    },
    {
      "fullUrl": "urn:uuid:f98b5aaa-2f02-46c7-a419-ee02002589de",
      "resource": {
        "resourceType": "Procedure",
        "id": "f98b5aaa-2f02-46c7-a419-ee02002589de",
        "meta": {
          "profile": [
            "http://hl7.org/fhir/uv/ips/StructureDefinition/Procedure-uv-ips"
          ]
        },
        "code": {
          "coding": [
            {
              "code": "370789001",
              "system": "http://snomed.info/sct",
              "display": "Development of individualized plan of care (procedure)"
            }
          ],
          "text": "Development of individualized plan of care"
        },
        "text": {
          "status": "generated",
          "div": "<div xmlns=\"http://www.w3.org/1999/xhtml\"><table class=\"hl7__ips\"><tr><td>Development of individualized plan of care</td><td><span class=\"nb\">01-May-2021</span></td><td>-</td></tr></table></div>"
        },
        "status": "completed",
        "performedDateTime": "2021-05-01",
        "subject": {
          "reference": "urn:uuid:",
          "display": "Helene Andresen"
        }
      }
    },
    {
      "fullUrl": "urn:uuid:27f9c16f-629c-4f30-ac97-d7e4f55eb5ee",
      "resource": {
        "resourceType": "Procedure",
        "id": "27f9c16f-629c-4f30-ac97-d7e4f55eb5ee",
        "meta": {
          "profile": [
            "http://hl7.org/fhir/uv/ips/StructureDefinition/Procedure-uv-ips"
          ]
        },
        "code": {
          "coding": [
            {
              "code": "84478008",
              "system": "http://snomed.info/sct",
              "display": "Occupational therapy (regime/therapy)"
            }
          ],
          "text": "Occupational therapy"
        },
        "text": {
          "status": "generated",
          "div": "<div xmlns=\"http://www.w3.org/1999/xhtml\"><table class=\"hl7__ips\"><tr><td>Occupational therapy</td><td><span class=\"nb\">05-Mar-2020</span></td><td>-</td></tr></table></div>"
        },
        "status": "completed",
        "performedDateTime": "2020-03-05",
        "subject": {
          "reference": "urn:uuid:",
          "display": "Helene Andresen"
        }
      }
    },
    {
      "fullUrl": "urn:uuid:53eaf495-e163-4d1c-a6b8-dcb02a5aedfc",
      "resource": {
        "resourceType": "Procedure",
        "id": "53eaf495-e163-4d1c-a6b8-dcb02a5aedfc",
        "meta": {
          "profile": [
            "http://hl7.org/fhir/uv/ips/StructureDefinition/Procedure-uv-ips"
          ]
        },
        "code": {
          "coding": [
            {
              "code": "392091000",
              "system": "http://snomed.info/sct",
              "display": "Care regimes assessment (procedure)"
            }
          ],
          "text": "Care regimes assessment"
        },
        "text": {
          "status": "generated",
          "div": "<div xmlns=\"http://www.w3.org/1999/xhtml\"><table class=\"hl7__ips\"><tr><td>Care regimes assessment</td><td><span class=\"nb\">04-Mar-2020</span></td><td>-</td></tr></table></div>"
        },
        "status": "completed",
        "performedDateTime": "2020-03-04",
        "subject": {
          "reference": "urn:uuid:",
          "display": "Helene Andresen"
        }
      }
    },
    {
      "fullUrl": "urn:uuid:d5921009-afe9-4894-8d89-1097e57aa528",
      "resource": {
        "resourceType": "Procedure",
        "id": "d5921009-afe9-4894-8d89-1097e57aa528",
        "meta": {
          "profile": [
            "http://hl7.org/fhir/uv/ips/StructureDefinition/Procedure-uv-ips"
          ]
        },
        "code": {
          "coding": [
            {
              "code": "409023009",
              "system": "http://snomed.info/sct",
              "display": "Professional / ancillary services care (regime/therapy)"
            }
          ],
          "text": "Professional / ancillary services care"
        },
        "text": {
          "status": "generated",
          "div": "<div xmlns=\"http://www.w3.org/1999/xhtml\"><table class=\"hl7__ips\"><tr><td>Professional / ancillary services care</td><td><span class=\"nb\">26-Feb-2020</span></td><td>-</td></tr></table></div>"
        },
        "status": "completed",
        "performedDateTime": "2020-02-26",
        "subject": {
          "reference": "urn:uuid:",
          "display": "Helene Andresen"
        }
      }
    },
    {
      "fullUrl": "urn:uuid:95dfbea3-1943-4cd2-85aa-02e360ffe5be",
      "resource": {
        "resourceType": "Procedure",
        "id": "95dfbea3-1943-4cd2-85aa-02e360ffe5be",
        "meta": {
          "profile": [
            "http://hl7.org/fhir/uv/ips/StructureDefinition/Procedure-uv-ips"
          ]
        },
        "code": {
          "coding": [
            {
              "code": "60027007",
              "system": "http://snomed.info/sct",
              "display": "Radiography of wrist (procedure)"
            }
          ],
          "text": "Radiography of wrist"
        },
        "text": {
          "status": "generated",
          "div": "<div xmlns=\"http://www.w3.org/1999/xhtml\"><table class=\"hl7__ips\"><tr><td>Radiography of wrist</td><td><span class=\"nb\">16-Feb-2020</span></td><td>-</td></tr></table></div>"
        },
        "status": "completed",
        "performedDateTime": "2020-02-16",
        "subject": {
          "reference": "urn:uuid:",
          "display": "Helene Andresen"
        }
      }
    },
    {
      "fullUrl": "urn:uuid:e7388923-4025-448a-ab94-f4ee1d3695b3",
      "resource": {
        "resourceType": "AllergyIntolerance",
        "id": "e7388923-4025-448a-ab94-f4ee1d3695b3",
        "meta": {
          "profile": [
            "http://hl7.eu/fhir/eps/StructureDefinition/allergyIntolerance-eu-eps"
          ]
        },
        "code": {
          "coding": [
            {
              "code": "1343356001",
              "system": "http://snomed.info/sct",
              "display": "Inadequate digital access affecting health care"
            }
          ],
          "text": "Inadequate digital access affecting health care"
        },
        "clinicalStatus": {
          "coding": [
            {
              "code": "active",
              "system": "http://terminology.hl7.org/CodeSystem/allergyintolerance-clinical"
            }
          ]
        },
        "category": [
          "environment"
        ],
        "text": {
          "status": "generated",
          "div": "<div xmlns=\"http://www.w3.org/1999/xhtml\"><table class=\"hl7__ips\"><tr><th>Allergy/Intolerance</th><th>Onset Date</th><th>Status</th><th>Type</th><th>Reaction</th></tr><tr><td>Inadequate digital access affecting health care</td><td><span class=\"nb\">2025-10-22</span></td><td>active</td><td>environment</td><td></td></tr></table></div>"
        },
        "onsetDateTime": "2025-10-22",
        "verificationStatus": {
          "coding": [
            {
              "code": "confirmed",
              "system": "http://terminology.hl7.org/CodeSystem/allergyintolerance-verification"
            }
          ]
        },
        "type": "intolerance",
        "patient": {
          "reference": "urn:uuid:356b1a6a-4cfc-485b-876d-1814cf62fb15",
          "display": "Helene Andresen"
        }
      }
    },
    {
      "fullUrl": "urn:uuid:ddc2c776-97c6-4634-b253-3d4d9d197ee0",
      "resource": {
        "resourceType": "CarePlan",
        "id": "ddc2c776-97c6-4634-b253-3d4d9d197ee0",
        "category": [
          {
            "coding": [
              {
                "code": "assess-plan",
                "system": "http://terminology.hl7.org/CodeSystem/care-plan-category",
                "display": "Assessment and Plan"
              }
            ]
          }
        ],
        "activity": [
          {
            "detail": {
              "code": {
                "coding": [
                  {
                    "code": "736285004",
                    "system": "http://snomed.info/sct",
                    "display": "Hyperlipidemia clinical management plan (record artifact)"
                  }
                ]
              },
              "reasonCode": [
                {
                  "coding": [
                    {
                      "code": "55822004",
                      "system": "http://snomed.info/sct",
                      "display": "Hyperlipidemia"
                    }
                  ]
                }
              ],
              "status": "unknown",
              "description": "Hyperlipidemia clinical management plan",
              "kind": "Appointment"
            }
          }
        ],
        "period": {
          "start": "1989-05-28"
        },
        "goal": [
          {
            "reference": "urn:uuid:d63a93ff-e34a-46df-beff-4adb86cfb636"
          },
          {
            "reference": "urn:uuid:2a92ad69-dc4e-4a11-8779-8051e20be961"
          },
          {
            "reference": "urn:uuid:73392951-ed33-402a-a497-0622dc5be147"
          },
          {
            "reference": "urn:uuid:1f9d9eb1-e250-4b2b-9aa7-e9b8a6bb2925"
          }
        ],
        "text": {
          "status": "generated",
          "div": "<div xmlns=\"http://www.w3.org/1999/xhtml\"><table class=\"hl7__ips first25\"><tr><th>Active Planned Care / Goals</th><th>Start Date</th><th>Reason</th></tr><tr><td>Hyperlipidemia clinical management plan</td><td><span class=\"nb\">28-May-1989</span></td><td>Hyperlipidemia</td></tr><tr><td><ul><li>Achieve LDL cholesterol less than 2.6 mmol/L</li><li>Achieve total cholesterol less than 5.2 mmol/L</li><li>Maintain HDL cholesterol greater than 1.3 mmol/L</li><li>Achieve triglycerides less than 1.7 mmol/L</li></ul></td><td></td><td></td></tr></table></div>"
        },
        "status": "active",
        "intent": "plan",
        "subject": {
          "reference": "urn:uuid:356b1a6a-4cfc-485b-876d-1814cf62fb15",
          "display": "Helene Andresen"
        }
      }
    },
    {
      "fullUrl": "urn:uuid:5af4b0e2-98cc-4c23-8164-00585bbeaf34",
      "resource": {
        "resourceType": "CarePlan",
        "id": "5af4b0e2-98cc-4c23-8164-00585bbeaf34",
        "category": [
          {
            "coding": [
              {
                "code": "assess-plan",
                "system": "http://terminology.hl7.org/CodeSystem/care-plan-category",
                "display": "Assessment and Plan"
              }
            ]
          }
        ],
        "activity": [
          {
            "detail": {
              "code": {
                "coding": [
                  {
                    "code": "698360004",
                    "system": "http://snomed.info/sct",
                    "display": "Diabetes self management plan (qualifier value)"
                  }
                ]
              },
              "reasonCode": [
                {
                  "coding": [
                    {
                      "code": "15777000",
                      "system": "http://snomed.info/sct",
                      "display": "Prediabetes"
                    }
                  ]
                }
              ],
              "status": "unknown",
              "description": "Diabetes self management plan",
              "kind": "Appointment"
            }
          }
        ],
        "period": {
          "start": "1960-07-02"
        },
        "goal": [
          {
            "reference": "urn:uuid:a3b56e2f-ae8a-470e-bea9-41f3ef216838"
          },
          {
            "reference": "urn:uuid:2f1d9a77-5676-4cc7-b86e-d2362c33ed18"
          },
          {
            "reference": "urn:uuid:9ee368a6-1724-4172-a142-a2ee9dddf1a6"
          }
        ],
        "text": {
          "status": "generated",
          "div": "<div xmlns=\"http://www.w3.org/1999/xhtml\"><table class=\"hl7__ips first25\"><tr><th>Active Planned Care / Goals</th><th>Start Date</th><th>Reason</th></tr><tr><td>Diabetes self management plan</td><td><span class=\"nb\">02-Jul-1960</span></td><td>Prediabetes</td></tr><tr><td><ul><li>Patient will implement and maintain a diabetes self-management plan to reduce risk of progression from prediabetes.</li><li>Patient will achieve and maintain a healthy weight as part of diabetes self-management.</li><li>Patient will engage in at least 150 minutes of moderate-intensity physical activity per week.</li></ul></td><td></td><td></td></tr></table></div>"
        },
        "status": "active",
        "intent": "plan",
        "subject": {
          "reference": "urn:uuid:356b1a6a-4cfc-485b-876d-1814cf62fb15",
          "display": "Helene Andresen"
        }
      }
    },
    {
      "fullUrl": "urn:uuid:3b21d93b-54a1-432b-bfb3-99aec17c9181",
      "resource": {
        "resourceType": "ImmunizationRecommendation",
        "id": "3b21d93b-54a1-432b-bfb3-99aec17c9181",
        "recommendation": [
          {
            "vaccineCode": [
              {
                "coding": [
                  {
                    "code": "1181000221105",
                    "system": "http://snomed.info/sct",
                    "display": "Vaccine product containing only Influenza virus antigen (medicinal product)"
                  }
                ]
              }
            ],
            "dateCriterion": [
              {
                "code": {
                  "coding": [
                    {
                      "code": "30980-7",
                      "system": "http://loinc.org",
                      "display": "Date vaccine due"
                    }
                  ]
                },
                "value": "2025-10-01"
              }
            ],
            "targetDisease": {
              "coding": [
                {
                  "code": "6142004",
                  "system": "http://snomed.info/sct",
                  "display": "Influenza (disorder)"
                }
              ]
            },
            "series": "Annual seasonal influenza vaccination",
            "forecastStatus": {
              "coding": [
                {
                  "code": "due",
                  "system": "http://terminology.hl7.org/CodeSystem/immunization-recommendation-status",
                  "display": "Due"
                }
              ]
            }
          }
        ],
        "text": {
          "status": "generated",
          "div": "<div xmlns=\"http://www.w3.org/1999/xhtml\"><table class=\"hl7__ips\"><tr><td>Vaccine product containing only Influenza virus antigen (medicinal product)</td><td><span class=\"nb\">01-Oct-2025</span></td><td>Annual seasonal influenza vaccination</td></tr></table></div>"
        },
        "date": "2025-10-22",
        "patient": {
          "reference": "urn:uuid:356b1a6a-4cfc-485b-876d-1814cf62fb15",
          "display": "Helene Andresen"
        }
      }
    },
    {
      "fullUrl": "urn:uuid:0a15f1fe-0821-463f-a689-6a286c882718",
      "resource": {
        "resourceType": "Observation",
        "id": "0a15f1fe-0821-463f-a689-6a286c882718",
        "meta": {
          "profile": [
            "http://hl7.org/fhir/StructureDefinition/vitalsigns"
          ]
        },
        "category": [
          {
            "coding": [
              {
                "system": "http://terminology.hl7.org/CodeSystem/observation-category",
                "code": "vital-signs",
                "display": "Vital Signs"
              }
            ]
          }
        ],
        "valueQuantity": {
          "value": 166.9,
          "code": "cm",
          "unit": "cm"
        },
        "text": {
          "status": "generated",
          "div": "<div xmlns=\"http://www.w3.org/1999/xhtml\"><table class=\"hl7__ips\"><tr><th>Vital Sign</th><th>Date</th><th>Measurement</th></tr><tr><td>Body Height</td><td>23-Nov-2024</td><td>166.9 cm</td></tr></table></div>"
        },
        "status": "final",
        "code": {
          "coding": [
            {
              "code": "$8302-2",
              "system": "http://loinc.org",
              "display": "Body Height"
            }
          ]
        },
        "subject": {
          "reference": "urn:uuid:356b1a6a-4cfc-485b-876d-1814cf62fb15",
          "display": "Helene Andresen"
        },
        "effectiveDateTime": "2024-11-23"
      }
    },
    {
      "fullUrl": "urn:uuid:57949397-0280-4904-bf38-0cbfbf43ef81",
      "resource": {
        "resourceType": "Observation",
        "id": "57949397-0280-4904-bf38-0cbfbf43ef81",
        "meta": {
          "profile": [
            "http://hl7.org/fhir/StructureDefinition/vitalsigns"
          ]
        },
        "category": [
          {
            "coding": [
              {
                "system": "http://terminology.hl7.org/CodeSystem/observation-category",
                "code": "vital-signs",
                "display": "Vital Signs"
              }
            ]
          }
        ],
        "valueQuantity": {
          "value": 4,
          "code": "{score}",
          "unit": "{score}"
        },
        "text": {
          "status": "generated",
          "div": "<div xmlns=\"http://www.w3.org/1999/xhtml\"><table class=\"hl7__ips\"><tr><th>Vital Sign</th><th>Date</th><th>Measurement</th></tr><tr><td>Pain severity - 0-10 verbal numeric rating [Score] - Reported</td><td>23-Nov-2024</td><td>4 {score}</td></tr></table></div>"
        },
        "status": "final",
        "code": {
          "coding": [
            {
              "code": "$72514-3",
              "system": "http://loinc.org",
              "display": "Pain severity - 0-10 verbal numeric rating [Score] - Reported"
            }
          ]
        },
        "subject": {
          "reference": "urn:uuid:356b1a6a-4cfc-485b-876d-1814cf62fb15",
          "display": "Helene Andresen"
        },
        "effectiveDateTime": "2024-11-23"
      }
    },
    {
      "fullUrl": "urn:uuid:4aa62438-1871-4b3c-8704-b6be9379378c",
      "resource": {
        "resourceType": "Observation",
        "id": "4aa62438-1871-4b3c-8704-b6be9379378c",
        "meta": {
          "profile": [
            "http://hl7.org/fhir/StructureDefinition/vitalsigns"
          ]
        },
        "category": [
          {
            "coding": [
              {
                "system": "http://terminology.hl7.org/CodeSystem/observation-category",
                "code": "vital-signs",
                "display": "Vital Signs"
              }
            ]
          }
        ],
        "valueQuantity": {
          "value": 76.6,
          "code": "kg",
          "unit": "kg"
        },
        "text": {
          "status": "generated",
          "div": "<div xmlns=\"http://www.w3.org/1999/xhtml\"><table class=\"hl7__ips\"><tr><th>Vital Sign</th><th>Date</th><th>Measurement</th></tr><tr><td>Body Weight</td><td>23-Nov-2024</td><td>76.6 kg</td></tr></table></div>"
        },
        "status": "final",
        "code": {
          "coding": [
            {
              "code": "$29463-7",
              "system": "http://loinc.org",
              "display": "Body Weight"
            }
          ]
        },
        "subject": {
          "reference": "urn:uuid:356b1a6a-4cfc-485b-876d-1814cf62fb15",
          "display": "Helene Andresen"
        },
        "effectiveDateTime": "2024-11-23"
      }
    },
    {
      "fullUrl": "urn:uuid:d925615b-6b2d-4d63-98d8-70b189300d7a",
      "resource": {
        "resourceType": "Observation",
        "id": "d925615b-6b2d-4d63-98d8-70b189300d7a",
        "meta": {
          "profile": [
            "http://hl7.org/fhir/StructureDefinition/vitalsigns"
          ]
        },
        "category": [
          {
            "coding": [
              {
                "system": "http://terminology.hl7.org/CodeSystem/observation-category",
                "code": "vital-signs",
                "display": "Vital Signs"
              }
            ]
          }
        ],
        "valueQuantity": {
          "value": 27.5,
          "code": "kg/m2",
          "unit": "kg/m2"
        },
        "text": {
          "status": "generated",
          "div": "<div xmlns=\"http://www.w3.org/1999/xhtml\"><table class=\"hl7__ips\"><tr><th>Vital Sign</th><th>Date</th><th>Measurement</th></tr><tr><td>Body mass index (BMI) [Ratio]</td><td>23-Nov-2024</td><td>27.5 kg/m2</td></tr></table></div>"
        },
        "status": "final",
        "code": {
          "coding": [
            {
              "code": "$39156-5",
              "system": "http://loinc.org",
              "display": "Body mass index (BMI) [Ratio]"
            }
          ]
        },
        "subject": {
          "reference": "urn:uuid:356b1a6a-4cfc-485b-876d-1814cf62fb15",
          "display": "Helene Andresen"
        },
        "effectiveDateTime": "2024-11-23"
      }
    },
    {
      "fullUrl": "urn:uuid:4675870a-36d6-4197-bf7f-da4c34bc6445",
      "resource": {
        "resourceType": "Observation",
        "id": "4675870a-36d6-4197-bf7f-da4c34bc6445",
        "meta": {
          "profile": [
            "http://hl7.org/fhir/StructureDefinition/vitalsigns"
          ]
        },
        "category": [
          {
            "coding": [
              {
                "system": "http://terminology.hl7.org/CodeSystem/observation-category",
                "code": "vital-signs",
                "display": "Vital Signs"
              }
            ]
          }
        ],
        "valueQuantity": {
          "value": 83,
          "code": "mm[Hg]",
          "unit": "mm[Hg]"
        },
        "text": {
          "status": "generated",
          "div": "<div xmlns=\"http://www.w3.org/1999/xhtml\"><table class=\"hl7__ips\"><tr><th>Vital Sign</th><th>Date</th><th>Measurement</th></tr><tr><td>Diastolic Blood Pressure</td><td>23-Nov-2024</td><td>83 mm[Hg]</td></tr></table></div>"
        },
        "status": "final",
        "code": {
          "coding": [
            {
              "code": "$8462-4",
              "system": "http://loinc.org",
              "display": "Diastolic Blood Pressure"
            }
          ]
        },
        "subject": {
          "reference": "urn:uuid:356b1a6a-4cfc-485b-876d-1814cf62fb15",
          "display": "Helene Andresen"
        },
        "effectiveDateTime": "2024-11-23"
      }
    },
    {
      "fullUrl": "urn:uuid:f92a86ba-e432-4b4f-8a69-ff6b20e2fb9a",
      "resource": {
        "resourceType": "Observation",
        "id": "f92a86ba-e432-4b4f-8a69-ff6b20e2fb9a",
        "meta": {
          "profile": [
            "http://hl7.org/fhir/StructureDefinition/vitalsigns"
          ]
        },
        "category": [
          {
            "coding": [
              {
                "system": "http://terminology.hl7.org/CodeSystem/observation-category",
                "code": "vital-signs",
                "display": "Vital Signs"
              }
            ]
          }
        ],
        "valueQuantity": {
          "value": 124,
          "code": "mm[Hg]",
          "unit": "mm[Hg]"
        },
        "text": {
          "status": "generated",
          "div": "<div xmlns=\"http://www.w3.org/1999/xhtml\"><table class=\"hl7__ips\"><tr><th>Vital Sign</th><th>Date</th><th>Measurement</th></tr><tr><td>Systolic Blood Pressure</td><td>23-Nov-2024</td><td>124 mm[Hg]</td></tr></table></div>"
        },
        "status": "final",
        "code": {
          "coding": [
            {
              "code": "$8480-6",
              "system": "http://loinc.org",
              "display": "Systolic Blood Pressure"
            }
          ]
        },
        "subject": {
          "reference": "urn:uuid:356b1a6a-4cfc-485b-876d-1814cf62fb15",
          "display": "Helene Andresen"
        },
        "effectiveDateTime": "2024-11-23"
      }
    },
    {
      "fullUrl": "urn:uuid:5ac1d0b0-99c1-4cf8-8988-e26b97202baa",
      "resource": {
        "resourceType": "Observation",
        "id": "5ac1d0b0-99c1-4cf8-8988-e26b97202baa",
        "meta": {
          "profile": [
            "http://hl7.org/fhir/StructureDefinition/vitalsigns"
          ]
        },
        "category": [
          {
            "coding": [
              {
                "system": "http://terminology.hl7.org/CodeSystem/observation-category",
                "code": "vital-signs",
                "display": "Vital Signs"
              }
            ]
          }
        ],
        "valueQuantity": {
          "value": 92,
          "code": "/min",
          "unit": "/min"
        },
        "text": {
          "status": "generated",
          "div": "<div xmlns=\"http://www.w3.org/1999/xhtml\"><table class=\"hl7__ips\"><tr><th>Vital Sign</th><th>Date</th><th>Measurement</th></tr><tr><td>Heart rate</td><td>23-Nov-2024</td><td>92 /min</td></tr></table></div>"
        },
        "status": "final",
        "code": {
          "coding": [
            {
              "code": "$8867-4",
              "system": "http://loinc.org",
              "display": "Heart rate"
            }
          ]
        },
        "subject": {
          "reference": "urn:uuid:356b1a6a-4cfc-485b-876d-1814cf62fb15",
          "display": "Helene Andresen"
        },
        "effectiveDateTime": "2024-11-23"
      }
    },
    {
      "fullUrl": "urn:uuid:58031562-5132-4949-8dff-4a5fe85f9279",
      "resource": {
        "resourceType": "Observation",
        "id": "58031562-5132-4949-8dff-4a5fe85f9279",
        "meta": {
          "profile": [
            "http://hl7.org/fhir/StructureDefinition/vitalsigns"
          ]
        },
        "category": [
          {
            "coding": [
              {
                "system": "http://terminology.hl7.org/CodeSystem/observation-category",
                "code": "vital-signs",
                "display": "Vital Signs"
              }
            ]
          }
        ],
        "valueQuantity": {
          "value": 13,
          "code": "/min",
          "unit": "/min"
        },
        "text": {
          "status": "generated",
          "div": "<div xmlns=\"http://www.w3.org/1999/xhtml\"><table class=\"hl7__ips\"><tr><th>Vital Sign</th><th>Date</th><th>Measurement</th></tr><tr><td>Respiratory rate</td><td>23-Nov-2024</td><td>13 /min</td></tr></table></div>"
        },
        "status": "final",
        "code": {
          "coding": [
            {
              "code": "$9279-1",
              "system": "http://loinc.org",
              "display": "Respiratory rate"
            }
          ]
        },
        "subject": {
          "reference": "urn:uuid:356b1a6a-4cfc-485b-876d-1814cf62fb15",
          "display": "Helene Andresen"
        },
        "effectiveDateTime": "2024-11-23"
      }
    },
    {
      "fullUrl": "urn:uuid:75641c35-14ce-45d8-9e35-de708503a34f",
      "resource": {
        "resourceType": "Observation",
        "id": "75641c35-14ce-45d8-9e35-de708503a34f",
        "meta": {
          "profile": [
            "http://hl7.org/fhir/StructureDefinition/vitalsigns"
          ]
        },
        "category": [
          {
            "coding": [
              {
                "system": "http://terminology.hl7.org/CodeSystem/observation-category",
                "code": "vital-signs",
                "display": "Vital Signs"
              }
            ]
          }
        ],
        "valueQuantity": {
          "value": 166.9,
          "code": "cm",
          "unit": "cm"
        },
        "text": {
          "status": "generated",
          "div": "<div xmlns=\"http://www.w3.org/1999/xhtml\"><table class=\"hl7__ips\"><tr><th>Vital Sign</th><th>Date</th><th>Measurement</th></tr><tr><td>Body Height</td><td>18-Nov-2023</td><td>166.9 cm</td></tr></table></div>"
        },
        "status": "final",
        "code": {
          "coding": [
            {
              "code": "$8302-2",
              "system": "http://loinc.org",
              "display": "Body Height"
            }
          ]
        },
        "subject": {
          "reference": "urn:uuid:356b1a6a-4cfc-485b-876d-1814cf62fb15",
          "display": "Helene Andresen"
        },
        "effectiveDateTime": "2023-11-18"
      }
    },
    {
      "fullUrl": "urn:uuid:532ed21d-a3e4-44ae-a86b-2933f1e2b17b",
      "resource": {
        "resourceType": "Observation",
        "id": "532ed21d-a3e4-44ae-a86b-2933f1e2b17b",
        "meta": {
          "profile": [
            "http://hl7.org/fhir/StructureDefinition/vitalsigns"
          ]
        },
        "category": [
          {
            "coding": [
              {
                "system": "http://terminology.hl7.org/CodeSystem/observation-category",
                "code": "vital-signs",
                "display": "Vital Signs"
              }
            ]
          }
        ],
        "valueQuantity": {
          "value": 0,
          "code": "{score}",
          "unit": "{score}"
        },
        "text": {
          "status": "generated",
          "div": "<div xmlns=\"http://www.w3.org/1999/xhtml\"><table class=\"hl7__ips\"><tr><th>Vital Sign</th><th>Date</th><th>Measurement</th></tr><tr><td>Pain severity - 0-10 verbal numeric rating [Score] - Reported</td><td>18-Nov-2023</td><td>0 {score}</td></tr></table></div>"
        },
        "status": "final",
        "code": {
          "coding": [
            {
              "code": "$72514-3",
              "system": "http://loinc.org",
              "display": "Pain severity - 0-10 verbal numeric rating [Score] - Reported"
            }
          ]
        },
        "subject": {
          "reference": "urn:uuid:356b1a6a-4cfc-485b-876d-1814cf62fb15",
          "display": "Helene Andresen"
        },
        "effectiveDateTime": "2023-11-18"
      }
    },
    {
      "fullUrl": "urn:uuid:e9b3d19f-a942-45c2-a21c-a178e7803275",
      "resource": {
        "resourceType": "Observation",
        "id": "e9b3d19f-a942-45c2-a21c-a178e7803275",
        "meta": {
          "profile": [
            "http://hl7.org/fhir/StructureDefinition/vitalsigns"
          ]
        },
        "category": [
          {
            "coding": [
              {
                "system": "http://terminology.hl7.org/CodeSystem/observation-category",
                "code": "vital-signs",
                "display": "Vital Signs"
              }
            ]
          }
        ],
        "valueQuantity": {
          "value": 76.6,
          "code": "kg",
          "unit": "kg"
        },
        "text": {
          "status": "generated",
          "div": "<div xmlns=\"http://www.w3.org/1999/xhtml\"><table class=\"hl7__ips\"><tr><th>Vital Sign</th><th>Date</th><th>Measurement</th></tr><tr><td>Body Weight</td><td>18-Nov-2023</td><td>76.6 kg</td></tr></table></div>"
        },
        "status": "final",
        "code": {
          "coding": [
            {
              "code": "$29463-7",
              "system": "http://loinc.org",
              "display": "Body Weight"
            }
          ]
        },
        "subject": {
          "reference": "urn:uuid:356b1a6a-4cfc-485b-876d-1814cf62fb15",
          "display": "Helene Andresen"
        },
        "effectiveDateTime": "2023-11-18"
      }
    },
    {
      "fullUrl": "urn:uuid:f0a52b20-a1df-455a-9558-f47dcfe287e4",
      "resource": {
        "resourceType": "Observation",
        "id": "f0a52b20-a1df-455a-9558-f47dcfe287e4",
        "meta": {
          "profile": [
            "http://hl7.org/fhir/StructureDefinition/vitalsigns"
          ]
        },
        "category": [
          {
            "coding": [
              {
                "system": "http://terminology.hl7.org/CodeSystem/observation-category",
                "code": "vital-signs",
                "display": "Vital Signs"
              }
            ]
          }
        ],
        "valueQuantity": {
          "value": 27.5,
          "code": "kg/m2",
          "unit": "kg/m2"
        },
        "text": {
          "status": "generated",
          "div": "<div xmlns=\"http://www.w3.org/1999/xhtml\"><table class=\"hl7__ips\"><tr><th>Vital Sign</th><th>Date</th><th>Measurement</th></tr><tr><td>Body mass index (BMI) [Ratio]</td><td>18-Nov-2023</td><td>27.5 kg/m2</td></tr></table></div>"
        },
        "status": "final",
        "code": {
          "coding": [
            {
              "code": "$39156-5",
              "system": "http://loinc.org",
              "display": "Body mass index (BMI) [Ratio]"
            }
          ]
        },
        "subject": {
          "reference": "urn:uuid:356b1a6a-4cfc-485b-876d-1814cf62fb15",
          "display": "Helene Andresen"
        },
        "effectiveDateTime": "2023-11-18"
      }
    },
    {
      "fullUrl": "urn:uuid:ecedcc77-995a-44ad-b1c4-a8e965cea375",
      "resource": {
        "resourceType": "Observation",
        "id": "ecedcc77-995a-44ad-b1c4-a8e965cea375",
        "meta": {
          "profile": [
            "http://hl7.org/fhir/StructureDefinition/vitalsigns"
          ]
        },
        "category": [
          {
            "coding": [
              {
                "system": "http://terminology.hl7.org/CodeSystem/observation-category",
                "code": "vital-signs",
                "display": "Vital Signs"
              }
            ]
          }
        ],
        "valueQuantity": {
          "value": 75,
          "code": "mm[Hg]",
          "unit": "mm[Hg]"
        },
        "text": {
          "status": "generated",
          "div": "<div xmlns=\"http://www.w3.org/1999/xhtml\"><table class=\"hl7__ips\"><tr><th>Vital Sign</th><th>Date</th><th>Measurement</th></tr><tr><td>Diastolic Blood Pressure</td><td>18-Nov-2023</td><td>75 mm[Hg]</td></tr></table></div>"
        },
        "status": "final",
        "code": {
          "coding": [
            {
              "code": "$8462-4",
              "system": "http://loinc.org",
              "display": "Diastolic Blood Pressure"
            }
          ]
        },
        "subject": {
          "reference": "urn:uuid:356b1a6a-4cfc-485b-876d-1814cf62fb15",
          "display": "Helene Andresen"
        },
        "effectiveDateTime": "2023-11-18"
      }
    },
    {
      "fullUrl": "urn:uuid:fcffc7f6-8d29-4d24-b659-435f34a6688c",
      "resource": {
        "resourceType": "Observation",
        "id": "fcffc7f6-8d29-4d24-b659-435f34a6688c",
        "meta": {
          "profile": [
            "http://hl7.org/fhir/StructureDefinition/vitalsigns"
          ]
        },
        "category": [
          {
            "coding": [
              {
                "system": "http://terminology.hl7.org/CodeSystem/observation-category",
                "code": "vital-signs",
                "display": "Vital Signs"
              }
            ]
          }
        ],
        "valueQuantity": {
          "value": 127,
          "code": "mm[Hg]",
          "unit": "mm[Hg]"
        },
        "text": {
          "status": "generated",
          "div": "<div xmlns=\"http://www.w3.org/1999/xhtml\"><table class=\"hl7__ips\"><tr><th>Vital Sign</th><th>Date</th><th>Measurement</th></tr><tr><td>Systolic Blood Pressure</td><td>18-Nov-2023</td><td>127 mm[Hg]</td></tr></table></div>"
        },
        "status": "final",
        "code": {
          "coding": [
            {
              "code": "$8480-6",
              "system": "http://loinc.org",
              "display": "Systolic Blood Pressure"
            }
          ]
        },
        "subject": {
          "reference": "urn:uuid:356b1a6a-4cfc-485b-876d-1814cf62fb15",
          "display": "Helene Andresen"
        },
        "effectiveDateTime": "2023-11-18"
      }
    },
    {
      "fullUrl": "urn:uuid:fcf39641-0cd9-4f79-be2a-1d1b316116a7",
      "resource": {
        "resourceType": "Observation",
        "id": "fcf39641-0cd9-4f79-be2a-1d1b316116a7",
        "meta": {
          "profile": [
            "http://hl7.org/fhir/StructureDefinition/vitalsigns"
          ]
        },
        "category": [
          {
            "coding": [
              {
                "system": "http://terminology.hl7.org/CodeSystem/observation-category",
                "code": "vital-signs",
                "display": "Vital Signs"
              }
            ]
          }
        ],
        "valueQuantity": {
          "value": 81,
          "code": "/min",
          "unit": "/min"
        },
        "text": {
          "status": "generated",
          "div": "<div xmlns=\"http://www.w3.org/1999/xhtml\"><table class=\"hl7__ips\"><tr><th>Vital Sign</th><th>Date</th><th>Measurement</th></tr><tr><td>Heart rate</td><td>18-Nov-2023</td><td>81 /min</td></tr></table></div>"
        },
        "status": "final",
        "code": {
          "coding": [
            {
              "code": "$8867-4",
              "system": "http://loinc.org",
              "display": "Heart rate"
            }
          ]
        },
        "subject": {
          "reference": "urn:uuid:356b1a6a-4cfc-485b-876d-1814cf62fb15",
          "display": "Helene Andresen"
        },
        "effectiveDateTime": "2023-11-18"
      }
    },
    {
      "fullUrl": "urn:uuid:61623983-68af-4165-adf2-5039b900277d",
      "resource": {
        "resourceType": "Observation",
        "id": "61623983-68af-4165-adf2-5039b900277d",
        "meta": {
          "profile": [
            "http://hl7.org/fhir/StructureDefinition/vitalsigns"
          ]
        },
        "category": [
          {
            "coding": [
              {
                "system": "http://terminology.hl7.org/CodeSystem/observation-category",
                "code": "vital-signs",
                "display": "Vital Signs"
              }
            ]
          }
        ],
        "valueQuantity": {
          "value": 15,
          "code": "/min",
          "unit": "/min"
        },
        "text": {
          "status": "generated",
          "div": "<div xmlns=\"http://www.w3.org/1999/xhtml\"><table class=\"hl7__ips\"><tr><th>Vital Sign</th><th>Date</th><th>Measurement</th></tr><tr><td>Respiratory rate</td><td>18-Nov-2023</td><td>15 /min</td></tr></table></div>"
        },
        "status": "final",
        "code": {
          "coding": [
            {
              "code": "$9279-1",
              "system": "http://loinc.org",
              "display": "Respiratory rate"
            }
          ]
        },
        "subject": {
          "reference": "urn:uuid:356b1a6a-4cfc-485b-876d-1814cf62fb15",
          "display": "Helene Andresen"
        },
        "effectiveDateTime": "2023-11-18"
      }
    },
    {
      "fullUrl": "urn:uuid:db4d8cdf-8e67-420f-b378-d26a0f691b49",
      "resource": {
        "resourceType": "Observation",
        "id": "db4d8cdf-8e67-420f-b378-d26a0f691b49",
        "meta": {
          "profile": [
            "http://hl7.eu/fhir/laboratory/StructureDefinition/Observation-resultslab-eu-lab"
          ]
        },
        "performer": [
          {
            "display": "The Central European Lab"
          }
        ],
        "category": [
          {
            "coding": [
              {
                "system": "http://terminology.hl7.org/CodeSystem/observation-category",
                "code": "laboratory"
              }
            ]
          }
        ],
        "code": {
          "coding": [
            {
              "code": "2339-0",
              "system": "http://loinc.org",
              "display": "Glucose [Mass/volume] in Blood"
            }
          ],
          "text": "Glucose [Mass/volume] in Blood"
        },
        "valueQuantity": {
          "system": "http://unitsofmeasure.org",
          "value": 86.2,
          "unit": "mg/dL",
          "code": "mg/dL"
        },
        "referenceRange": [
          {
            "low": {
              "value": 70,
              "code": "mg/dL",
              "system": "http://unitsofmeasure.org"
            }
          },
          {
            "high": {
              "value": 140,
              "code": "mg/dL",
              "system": "http://unitsofmeasure.org"
            }
          }
        ],
        "text": {
          "status": "generated",
          "div": "<div xmlns=\"http://www.w3.org/1999/xhtml\"><table class=\"hl7__eu__lab__report\"><tr><th>Test</th><th>30-Nov-2024</th><th>Reference&#xA0;Range</th><th>Unit</th></tr><tr><td>Glucose [Mass/volume] in Blood</td><td>86.2</td><td>70 - 140</td><td></td><td>mg/dL</td></tr></table></div>"
        },
        "status": "final",
        "subject": {
          "reference": "urn:uuid:356b1a6a-4cfc-485b-876d-1814cf62fb15",
          "display": "Helene Andresen"
        },
        "effectiveDateTime": "2024-11-30T22:53:36Z"
      }
    },
    {
      "fullUrl": "urn:uuid:794e55c4-7cfc-4259-afad-4a734d5ed969",
      "resource": {
        "resourceType": "Observation",
        "id": "794e55c4-7cfc-4259-afad-4a734d5ed969",
        "meta": {
          "profile": [
            "http://hl7.eu/fhir/laboratory/StructureDefinition/Observation-resultslab-eu-lab"
          ]
        },
        "performer": [
          {
            "display": "The Central European Lab"
          }
        ],
        "category": [
          {
            "coding": [
              {
                "system": "http://terminology.hl7.org/CodeSystem/observation-category",
                "code": "laboratory"
              }
            ]
          }
        ],
        "code": {
          "coding": [
            {
              "code": "6299-2",
              "system": "http://loinc.org",
              "display": "Urea nitrogen [Mass/volume] in Blood"
            }
          ],
          "text": "Urea nitrogen [Mass/volume] in Blood"
        },
        "valueQuantity": {
          "system": "http://unitsofmeasure.org",
          "value": 15,
          "unit": "mg/dL",
          "code": "mg/dL"
        },
        "referenceRange": [
          {
            "low": {
              "value": 7,
              "code": "mg/dL",
              "system": "http://unitsofmeasure.org"
            }
          },
          {
            "high": {
              "value": 25,
              "code": "mg/dL",
              "system": "http://unitsofmeasure.org"
            }
          }
        ],
        "text": {
          "status": "generated",
          "div": "<div xmlns=\"http://www.w3.org/1999/xhtml\"><table class=\"hl7__eu__lab__report\"><tr><th>Test</th><th>30-Nov-2024</th><th>Reference&#xA0;Range</th><th>Unit</th></tr><tr><td>Urea nitrogen [Mass/volume] in Blood</td><td>15.0</td><td>7 - 25</td><td></td><td>mg/dL</td></tr></table></div>"
        },
        "status": "final",
        "subject": {
          "reference": "urn:uuid:356b1a6a-4cfc-485b-876d-1814cf62fb15",
          "display": "Helene Andresen"
        },
        "effectiveDateTime": "2024-11-30T22:53:36Z"
      }
    },
    {
      "fullUrl": "urn:uuid:034f21b0-9870-4797-98b6-9429b9de5178",
      "resource": {
        "resourceType": "Observation",
        "id": "034f21b0-9870-4797-98b6-9429b9de5178",
        "meta": {
          "profile": [
            "http://hl7.eu/fhir/laboratory/StructureDefinition/Observation-resultslab-eu-lab"
          ]
        },
        "performer": [
          {
            "display": "The Central European Lab"
          }
        ],
        "category": [
          {
            "coding": [
              {
                "system": "http://terminology.hl7.org/CodeSystem/observation-category",
                "code": "laboratory"
              }
            ]
          }
        ],
        "code": {
          "coding": [
            {
              "code": "38483-4",
              "system": "http://loinc.org",
              "display": "Creatinine [Mass/volume] in Blood"
            }
          ],
          "text": "Creatinine [Mass/volume] in Blood"
        },
        "valueQuantity": {
          "system": "http://unitsofmeasure.org",
          "value": 2.7,
          "unit": "mg/dL",
          "code": "mg/dL"
        },
        "referenceRange": [
          {
            "low": {
              "value": 0.6,
              "code": "mg/dL",
              "system": "http://unitsofmeasure.org"
            }
          },
          {
            "high": {
              "value": 1.1,
              "code": "mg/dL",
              "system": "http://unitsofmeasure.org"
            }
          }
        ],
        "interpretation": [
          {
            "coding": [
              {
                "code": "H",
                "system": "http://terminology.hl7.org/CodeSystem/v3-ObservationInterpretation",
                "display": "High"
              }
            ]
          }
        ],
        "text": {
          "status": "generated",
          "div": "<div xmlns=\"http://www.w3.org/1999/xhtml\"><table class=\"hl7__eu__lab__report\"><tr><th>Test</th><th>30-Nov-2024</th><th>Reference&#xA0;Range</th><th>Unit</th></tr><tr><td>Creatinine [Mass/volume] in Blood</td><td>2.7</td><td>0.6 - 1.1</td><td>H</td><td>mg/dL</td></tr></table></div>"
        },
        "status": "final",
        "subject": {
          "reference": "urn:uuid:356b1a6a-4cfc-485b-876d-1814cf62fb15",
          "display": "Helene Andresen"
        },
        "effectiveDateTime": "2024-11-30T22:53:36Z"
      }
    },
    {
      "fullUrl": "urn:uuid:5b8ada2f-d57d-47a9-8951-685e7cc86fc2",
      "resource": {
        "resourceType": "Observation",
        "id": "5b8ada2f-d57d-47a9-8951-685e7cc86fc2",
        "meta": {
          "profile": [
            "http://hl7.eu/fhir/laboratory/StructureDefinition/Observation-resultslab-eu-lab"
          ]
        },
        "performer": [
          {
            "display": "The Central European Lab"
          }
        ],
        "category": [
          {
            "coding": [
              {
                "system": "http://terminology.hl7.org/CodeSystem/observation-category",
                "code": "laboratory"
              }
            ]
          }
        ],
        "code": {
          "coding": [
            {
              "code": "49765-1",
              "system": "http://loinc.org",
              "display": "Calcium [Mass/volume] in Blood"
            }
          ],
          "text": "Calcium [Mass/volume] in Blood"
        },
        "valueQuantity": {
          "system": "http://unitsofmeasure.org",
          "value": 8.6,
          "unit": "mg/dL",
          "code": "mg/dL"
        },
        "referenceRange": [
          {
            "low": {
              "value": 8.6,
              "code": "mg/dL",
              "system": "http://unitsofmeasure.org"
            }
          },
          {
            "high": {
              "value": 10.4,
              "code": "mg/dL",
              "system": "http://unitsofmeasure.org"
            }
          }
        ],
        "text": {
          "status": "generated",
          "div": "<div xmlns=\"http://www.w3.org/1999/xhtml\"><table class=\"hl7__eu__lab__report\"><tr><th>Test</th><th>30-Nov-2024</th><th>Reference&#xA0;Range</th><th>Unit</th></tr><tr><td>Calcium [Mass/volume] in Blood</td><td>8.6</td><td>8.6 - 10.4</td><td></td><td>mg/dL</td></tr></table></div>"
        },
        "status": "final",
        "subject": {
          "reference": "urn:uuid:356b1a6a-4cfc-485b-876d-1814cf62fb15",
          "display": "Helene Andresen"
        },
        "effectiveDateTime": "2024-11-30T22:53:36Z"
      }
    },
    {
      "fullUrl": "urn:uuid:2c2a6c49-d26a-4547-9af0-d66e3f95a73b",
      "resource": {
        "resourceType": "Observation",
        "id": "2c2a6c49-d26a-4547-9af0-d66e3f95a73b",
        "meta": {
          "profile": [
            "http://hl7.eu/fhir/laboratory/StructureDefinition/Observation-resultslab-eu-lab"
          ]
        },
        "performer": [
          {
            "display": "The Central European Lab"
          }
        ],
        "category": [
          {
            "coding": [
              {
                "system": "http://terminology.hl7.org/CodeSystem/observation-category",
                "code": "laboratory"
              }
            ]
          }
        ],
        "code": {
          "coding": [
            {
              "code": "2947-0",
              "system": "http://loinc.org",
              "display": "Sodium [Moles/volume] in Blood"
            }
          ],
          "text": "Sodium [Moles/volume] in Blood"
        },
        "valueQuantity": {
          "system": "http://unitsofmeasure.org",
          "value": 142.2,
          "unit": "mmol/L",
          "code": "mmol/L"
        },
        "referenceRange": [
          {
            "low": {
              "value": 135,
              "code": "mmol/L",
              "system": "http://unitsofmeasure.org"
            }
          },
          {
            "high": {
              "value": 145,
              "code": "mmol/L",
              "system": "http://unitsofmeasure.org"
            }
          }
        ],
        "text": {
          "status": "generated",
          "div": "<div xmlns=\"http://www.w3.org/1999/xhtml\"><table class=\"hl7__eu__lab__report\"><tr><th>Test</th><th>30-Nov-2024</th><th>Reference&#xA0;Range</th><th>Unit</th></tr><tr><td>Sodium [Moles/volume] in Blood</td><td>142.2</td><td>135 - 145</td><td></td><td>mmol/L</td></tr></table></div>"
        },
        "status": "final",
        "subject": {
          "reference": "urn:uuid:356b1a6a-4cfc-485b-876d-1814cf62fb15",
          "display": "Helene Andresen"
        },
        "effectiveDateTime": "2024-11-30T22:53:36Z"
      }
    },
    {
      "fullUrl": "urn:uuid:524c5add-0e3b-4457-b724-2b6ea2d4724d",
      "resource": {
        "resourceType": "Observation",
        "id": "524c5add-0e3b-4457-b724-2b6ea2d4724d",
        "meta": {
          "profile": [
            "http://hl7.eu/fhir/laboratory/StructureDefinition/Observation-resultslab-eu-lab"
          ]
        },
        "performer": [
          {
            "display": "The Central European Lab"
          }
        ],
        "category": [
          {
            "coding": [
              {
                "system": "http://terminology.hl7.org/CodeSystem/observation-category",
                "code": "laboratory"
              }
            ]
          }
        ],
        "code": {
          "coding": [
            {
              "code": "6298-4",
              "system": "http://loinc.org",
              "display": "Potassium [Moles/volume] in Blood"
            }
          ],
          "text": "Potassium [Moles/volume] in Blood"
        },
        "valueQuantity": {
          "system": "http://unitsofmeasure.org",
          "value": 5,
          "unit": "mmol/L",
          "code": "mmol/L"
        },
        "referenceRange": [
          {
            "low": {
              "value": 3.5,
              "code": "mmol/L",
              "system": "http://unitsofmeasure.org"
            }
          },
          {
            "high": {
              "value": 5.3,
              "code": "mmol/L",
              "system": "http://unitsofmeasure.org"
            }
          }
        ],
        "text": {
          "status": "generated",
          "div": "<div xmlns=\"http://www.w3.org/1999/xhtml\"><table class=\"hl7__eu__lab__report\"><tr><th>Test</th><th>30-Nov-2024</th><th>Reference&#xA0;Range</th><th>Unit</th></tr><tr><td>Potassium [Moles/volume] in Blood</td><td>5.0</td><td>3.5 - 5.3</td><td></td><td>mmol/L</td></tr></table></div>"
        },
        "status": "final",
        "subject": {
          "reference": "urn:uuid:356b1a6a-4cfc-485b-876d-1814cf62fb15",
          "display": "Helene Andresen"
        },
        "effectiveDateTime": "2024-11-30T22:53:36Z"
      }
    },
    {
      "fullUrl": "urn:uuid:7bb9dc9c-c86a-453f-87e5-910874879708",
      "resource": {
        "resourceType": "Observation",
        "id": "7bb9dc9c-c86a-453f-87e5-910874879708",
        "meta": {
          "profile": [
            "http://hl7.eu/fhir/laboratory/StructureDefinition/Observation-resultslab-eu-lab"
          ]
        },
        "performer": [
          {
            "display": "The Central European Lab"
          }
        ],
        "category": [
          {
            "coding": [
              {
                "system": "http://terminology.hl7.org/CodeSystem/observation-category",
                "code": "laboratory"
              }
            ]
          }
        ],
        "code": {
          "coding": [
            {
              "code": "2069-3",
              "system": "http://loinc.org",
              "display": "Chloride [Moles/volume] in Blood"
            }
          ],
          "text": "Chloride [Moles/volume] in Blood"
        },
        "valueQuantity": {
          "system": "http://unitsofmeasure.org",
          "value": 106.8,
          "unit": "mmol/L",
          "code": "mmol/L"
        },
        "referenceRange": [
          {
            "low": {
              "value": 98,
              "code": "mmol/L",
              "system": "http://unitsofmeasure.org"
            }
          },
          {
            "high": {
              "value": 108,
              "code": "mmol/L",
              "system": "http://unitsofmeasure.org"
            }
          }
        ],
        "text": {
          "status": "generated",
          "div": "<div xmlns=\"http://www.w3.org/1999/xhtml\"><table class=\"hl7__eu__lab__report\"><tr><th>Test</th><th>30-Nov-2024</th><th>Reference&#xA0;Range</th><th>Unit</th></tr><tr><td>Chloride [Moles/volume] in Blood</td><td>106.8</td><td>98 - 108</td><td></td><td>mmol/L</td></tr></table></div>"
        },
        "status": "final",
        "subject": {
          "reference": "urn:uuid:356b1a6a-4cfc-485b-876d-1814cf62fb15",
          "display": "Helene Andresen"
        },
        "effectiveDateTime": "2024-11-30T22:53:36Z"
      }
    },
    {
      "fullUrl": "urn:uuid:7c709279-9486-4b78-91c0-05b26e8615a7",
      "resource": {
        "resourceType": "Observation",
        "id": "7c709279-9486-4b78-91c0-05b26e8615a7",
        "meta": {
          "profile": [
            "http://hl7.eu/fhir/laboratory/StructureDefinition/Observation-resultslab-eu-lab"
          ]
        },
        "performer": [
          {
            "display": "The Central European Lab"
          }
        ],
        "category": [
          {
            "coding": [
              {
                "system": "http://terminology.hl7.org/CodeSystem/observation-category",
                "code": "laboratory"
              }
            ]
          }
        ],
        "code": {
          "coding": [
            {
              "code": "20565-8",
              "system": "http://loinc.org",
              "display": "Carbon dioxide, total [Moles/volume] in Blood"
            }
          ],
          "text": "Carbon dioxide, total [Moles/volume] in Blood"
        },
        "valueQuantity": {
          "system": "http://unitsofmeasure.org",
          "value": 20.6,
          "unit": "mmol/L",
          "code": "mmol/L"
        },
        "referenceRange": [
          {
            "low": {
              "value": 22,
              "code": "mmol/L",
              "system": "http://unitsofmeasure.org"
            }
          },
          {
            "high": {
              "value": 32,
              "code": "mmol/L",
              "system": "http://unitsofmeasure.org"
            }
          }
        ],
        "interpretation": [
          {
            "coding": [
              {
                "code": "L",
                "system": "http://terminology.hl7.org/CodeSystem/v3-ObservationInterpretation",
                "display": "Low"
              }
            ]
          }
        ],
        "text": {
          "status": "generated",
          "div": "<div xmlns=\"http://www.w3.org/1999/xhtml\"><table class=\"hl7__eu__lab__report\"><tr><th>Test</th><th>30-Nov-2024</th><th>Reference&#xA0;Range</th><th>Unit</th></tr><tr><td>Carbon dioxide, total [Moles/volume] in Blood</td><td>20.6</td><td>22 - 32</td><td>L</td><td>mmol/L</td></tr></table></div>"
        },
        "status": "final",
        "subject": {
          "reference": "urn:uuid:356b1a6a-4cfc-485b-876d-1814cf62fb15",
          "display": "Helene Andresen"
        },
        "effectiveDateTime": "2024-11-30T22:53:36Z"
      }
    },
    {
      "fullUrl": "urn:uuid:4119660f-2bd5-4442-ae0e-84f5e4629b24",
      "resource": {
        "resourceType": "Observation",
        "id": "4119660f-2bd5-4442-ae0e-84f5e4629b24",
        "meta": {
          "profile": [
            "http://hl7.eu/fhir/laboratory/StructureDefinition/Observation-resultslab-eu-lab"
          ]
        },
        "performer": [
          {
            "display": "The Central European Lab"
          }
        ],
        "category": [
          {
            "coding": [
              {
                "system": "http://terminology.hl7.org/CodeSystem/observation-category",
                "code": "laboratory"
              }
            ]
          }
        ],
        "code": {
          "coding": [
            {
              "code": "2885-2",
              "system": "http://loinc.org",
              "display": "Protein [Mass/volume] in Serum or Plasma"
            }
          ],
          "text": "Protein [Mass/volume] in Serum or Plasma"
        },
        "valueQuantity": {
          "system": "http://unitsofmeasure.org",
          "value": 6.7,
          "unit": "g/dL",
          "code": "g/dL"
        },
        "referenceRange": [
          {
            "low": {
              "value": 6.6,
              "code": "g/dL",
              "system": "http://unitsofmeasure.org"
            }
          },
          {
            "high": {
              "value": 8.3,
              "code": "g/dL",
              "system": "http://unitsofmeasure.org"
            }
          }
        ],
        "text": {
          "status": "generated",
          "div": "<div xmlns=\"http://www.w3.org/1999/xhtml\"><table class=\"hl7__eu__lab__report\"><tr><th>Test</th><th>30-Nov-2024</th><th>Reference&#xA0;Range</th><th>Unit</th></tr><tr><td>Protein [Mass/volume] in Serum or Plasma</td><td>6.7</td><td>6.6 - 8.3</td><td></td><td>g/dL</td></tr></table></div>"
        },
        "status": "final",
        "subject": {
          "reference": "urn:uuid:356b1a6a-4cfc-485b-876d-1814cf62fb15",
          "display": "Helene Andresen"
        },
        "effectiveDateTime": "2024-11-30T22:53:36Z"
      }
    },
    {
      "fullUrl": "urn:uuid:a0a2ba53-7382-41a7-a6da-135e4440b090",
      "resource": {
        "resourceType": "Observation",
        "id": "a0a2ba53-7382-41a7-a6da-135e4440b090",
        "meta": {
          "profile": [
            "http://hl7.eu/fhir/laboratory/StructureDefinition/Observation-resultslab-eu-lab"
          ]
        },
        "performer": [
          {
            "display": "The Central European Lab"
          }
        ],
        "category": [
          {
            "coding": [
              {
                "system": "http://terminology.hl7.org/CodeSystem/observation-category",
                "code": "laboratory"
              }
            ]
          }
        ],
        "code": {
          "coding": [
            {
              "code": "1751-7",
              "system": "http://loinc.org",
              "display": "Albumin [Mass/volume] in Serum or Plasma"
            }
          ],
          "text": "Albumin [Mass/volume] in Serum or Plasma"
        },
        "valueQuantity": {
          "system": "http://unitsofmeasure.org",
          "value": 4,
          "unit": "g/dL",
          "code": "g/dL"
        },
        "referenceRange": [
          {
            "low": {
              "value": 3.5,
              "code": "g/dL",
              "system": "http://unitsofmeasure.org"
            }
          },
          {
            "high": {
              "value": 5.5,
              "code": "g/dL",
              "system": "http://unitsofmeasure.org"
            }
          }
        ],
        "text": {
          "status": "generated",
          "div": "<div xmlns=\"http://www.w3.org/1999/xhtml\"><table class=\"hl7__eu__lab__report\"><tr><th>Test</th><th>30-Nov-2024</th><th>Reference&#xA0;Range</th><th>Unit</th></tr><tr><td>Albumin [Mass/volume] in Serum or Plasma</td><td>4.0</td><td>3.5 - 5.5</td><td></td><td>g/dL</td></tr></table></div>"
        },
        "status": "final",
        "subject": {
          "reference": "urn:uuid:356b1a6a-4cfc-485b-876d-1814cf62fb15",
          "display": "Helene Andresen"
        },
        "effectiveDateTime": "2024-11-30T22:53:36Z"
      }
    },
    {
      "fullUrl": "urn:uuid:9f523797-f94f-4500-93a0-a5e33c64045e",
      "resource": {
        "resourceType": "Observation",
        "id": "9f523797-f94f-4500-93a0-a5e33c64045e",
        "meta": {
          "profile": [
            "http://hl7.eu/fhir/laboratory/StructureDefinition/Observation-resultslab-eu-lab"
          ]
        },
        "performer": [
          {
            "display": "The Central European Lab"
          }
        ],
        "category": [
          {
            "coding": [
              {
                "system": "http://terminology.hl7.org/CodeSystem/observation-category",
                "code": "laboratory"
              }
            ]
          }
        ],
        "code": {
          "coding": [
            {
              "code": "10834-0",
              "system": "http://loinc.org",
              "display": "Globulin [Mass/volume] in Serum by calculation"
            }
          ],
          "text": "Globulin [Mass/volume] in Serum by calculation"
        },
        "valueQuantity": {
          "system": "http://unitsofmeasure.org",
          "value": 2.2,
          "unit": "g/L",
          "code": "g/L"
        },
        "referenceRange": [
          {
            "low": {
              "value": 2.2,
              "code": "g/L",
              "system": "http://unitsofmeasure.org"
            }
          },
          {
            "high": {
              "value": 3.7,
              "code": "g/L",
              "system": "http://unitsofmeasure.org"
            }
          }
        ],
        "text": {
          "status": "generated",
          "div": "<div xmlns=\"http://www.w3.org/1999/xhtml\"><table class=\"hl7__eu__lab__report\"><tr><th>Test</th><th>30-Nov-2024</th><th>Reference&#xA0;Range</th><th>Unit</th></tr><tr><td>Globulin [Mass/volume] in Serum by calculation</td><td>2.2</td><td>2.2 - 3.7</td><td></td><td>g/L</td></tr></table></div>"
        },
        "status": "final",
        "subject": {
          "reference": "urn:uuid:356b1a6a-4cfc-485b-876d-1814cf62fb15",
          "display": "Helene Andresen"
        },
        "effectiveDateTime": "2024-11-30T22:53:36Z"
      }
    },
    {
      "fullUrl": "urn:uuid:8430b955-1d04-4bd0-87bc-e73d15d36c3d",
      "resource": {
        "resourceType": "Observation",
        "id": "8430b955-1d04-4bd0-87bc-e73d15d36c3d",
        "meta": {
          "profile": [
            "http://hl7.eu/fhir/laboratory/StructureDefinition/Observation-resultslab-eu-lab"
          ]
        },
        "performer": [
          {
            "display": "The Central European Lab"
          }
        ],
        "category": [
          {
            "coding": [
              {
                "system": "http://terminology.hl7.org/CodeSystem/observation-category",
                "code": "laboratory"
              }
            ]
          }
        ],
        "code": {
          "coding": [
            {
              "code": "1975-2",
              "system": "http://loinc.org",
              "display": "Bilirubin.total [Mass/volume] in Serum or Plasma"
            }
          ],
          "text": "Bilirubin.total [Mass/volume] in Serum or Plasma"
        },
        "valueQuantity": {
          "system": "http://unitsofmeasure.org",
          "value": 0.3,
          "unit": "mg/dL",
          "code": "mg/dL"
        },
        "referenceRange": [
          {
            "low": {
              "value": 0.3,
              "code": "mg/dL",
              "system": "http://unitsofmeasure.org"
            }
          },
          {
            "high": {
              "value": 1.2,
              "code": "mg/dL",
              "system": "http://unitsofmeasure.org"
            }
          }
        ],
        "text": {
          "status": "generated",
          "div": "<div xmlns=\"http://www.w3.org/1999/xhtml\"><table class=\"hl7__eu__lab__report\"><tr><th>Test</th><th>30-Nov-2024</th><th>Reference&#xA0;Range</th><th>Unit</th></tr><tr><td>Bilirubin.total [Mass/volume] in Serum or Plasma</td><td>0.3</td><td>0.3 - 1.2</td><td></td><td>mg/dL</td></tr></table></div>"
        },
        "status": "final",
        "subject": {
          "reference": "urn:uuid:356b1a6a-4cfc-485b-876d-1814cf62fb15",
          "display": "Helene Andresen"
        },
        "effectiveDateTime": "2024-11-30T22:53:36Z"
      }
    },
    {
      "fullUrl": "urn:uuid:abe1082d-9520-4ef4-a660-925e554e3af0",
      "resource": {
        "resourceType": "Observation",
        "id": "abe1082d-9520-4ef4-a660-925e554e3af0",
        "meta": {
          "profile": [
            "http://hl7.eu/fhir/laboratory/StructureDefinition/Observation-resultslab-eu-lab"
          ]
        },
        "performer": [
          {
            "display": "The Central European Lab"
          }
        ],
        "category": [
          {
            "coding": [
              {
                "system": "http://terminology.hl7.org/CodeSystem/observation-category",
                "code": "laboratory"
              }
            ]
          }
        ],
        "code": {
          "coding": [
            {
              "code": "6768-6",
              "system": "http://loinc.org",
              "display": "Alkaline phosphatase [Enzymatic activity/volume] in Serum or Plasma"
            }
          ],
          "text": "Alkaline phosphatase [Enzymatic activity/volume] in Serum or Plasma"
        },
        "valueQuantity": {
          "system": "http://unitsofmeasure.org",
          "value": 44.6,
          "unit": "U/L",
          "code": "U/L"
        },
        "referenceRange": [
          {
            "low": {
              "value": 40,
              "code": "U/L",
              "system": "http://unitsofmeasure.org"
            }
          },
          {
            "high": {
              "value": 130,
              "code": "U/L",
              "system": "http://unitsofmeasure.org"
            }
          }
        ],
        "text": {
          "status": "generated",
          "div": "<div xmlns=\"http://www.w3.org/1999/xhtml\"><table class=\"hl7__eu__lab__report\"><tr><th>Test</th><th>30-Nov-2024</th><th>Reference&#xA0;Range</th><th>Unit</th></tr><tr><td>Alkaline phosphatase [Enzymatic activity/volume] in Serum or Plasma</td><td>44.6</td><td>40 - 130</td><td></td><td>U/L</td></tr></table></div>"
        },
        "status": "final",
        "subject": {
          "reference": "urn:uuid:356b1a6a-4cfc-485b-876d-1814cf62fb15",
          "display": "Helene Andresen"
        },
        "effectiveDateTime": "2024-11-30T22:53:36Z"
      }
    },
    {
      "fullUrl": "urn:uuid:17711978-5960-44cc-82a1-50c91bd0ab45",
      "resource": {
        "resourceType": "Observation",
        "id": "17711978-5960-44cc-82a1-50c91bd0ab45",
        "meta": {
          "profile": [
            "http://hl7.eu/fhir/laboratory/StructureDefinition/Observation-resultslab-eu-lab"
          ]
        },
        "performer": [
          {
            "display": "The Central European Lab"
          }
        ],
        "category": [
          {
            "coding": [
              {
                "system": "http://terminology.hl7.org/CodeSystem/observation-category",
                "code": "laboratory"
              }
            ]
          }
        ],
        "code": {
          "coding": [
            {
              "code": "1742-6",
              "system": "http://loinc.org",
              "display": "Alanine aminotransferase [Enzymatic activity/volume] in Serum or Plasma"
            }
          ],
          "text": "Alanine aminotransferase [Enzymatic activity/volume] in Serum or Plasma"
        },
        "valueQuantity": {
          "system": "http://unitsofmeasure.org",
          "value": 43.4,
          "unit": "U/L",
          "code": "U/L"
        },
        "referenceRange": [
          {
            "low": {
              "value": 7,
              "code": "U/L",
              "system": "http://unitsofmeasure.org"
            }
          },
          {
            "high": {
              "value": 55,
              "code": "U/L",
              "system": "http://unitsofmeasure.org"
            }
          }
        ],
        "text": {
          "status": "generated",
          "div": "<div xmlns=\"http://www.w3.org/1999/xhtml\"><table class=\"hl7__eu__lab__report\"><tr><th>Test</th><th>30-Nov-2024</th><th>Reference&#xA0;Range</th><th>Unit</th></tr><tr><td>Alanine aminotransferase [Enzymatic activity/volume] in Serum or Plasma</td><td>43.4</td><td>7 - 55</td><td></td><td>U/L</td></tr></table></div>"
        },
        "status": "final",
        "subject": {
          "reference": "urn:uuid:356b1a6a-4cfc-485b-876d-1814cf62fb15",
          "display": "Helene Andresen"
        },
        "effectiveDateTime": "2024-11-30T22:53:36Z"
      }
    },
    {
      "fullUrl": "urn:uuid:6cd2dce2-5028-4344-b263-37f67ac38400",
      "resource": {
        "resourceType": "Observation",
        "id": "6cd2dce2-5028-4344-b263-37f67ac38400",
        "meta": {
          "profile": [
            "http://hl7.eu/fhir/laboratory/StructureDefinition/Observation-resultslab-eu-lab"
          ]
        },
        "performer": [
          {
            "display": "The Central European Lab"
          }
        ],
        "category": [
          {
            "coding": [
              {
                "system": "http://terminology.hl7.org/CodeSystem/observation-category",
                "code": "laboratory"
              }
            ]
          }
        ],
        "code": {
          "coding": [
            {
              "code": "1920-8",
              "system": "http://loinc.org",
              "display": "Aspartate aminotransferase [Enzymatic activity/volume] in Serum or Plasma"
            }
          ],
          "text": "Aspartate aminotransferase [Enzymatic activity/volume] in Serum or Plasma"
        },
        "valueQuantity": {
          "system": "http://unitsofmeasure.org",
          "value": 15.6,
          "unit": "U/L",
          "code": "U/L"
        },
        "referenceRange": [
          {
            "low": {
              "value": 10,
              "code": "U/L",
              "system": "http://unitsofmeasure.org"
            }
          },
          {
            "high": {
              "value": 40,
              "code": "U/L",
              "system": "http://unitsofmeasure.org"
            }
          }
        ],
        "text": {
          "status": "generated",
          "div": "<div xmlns=\"http://www.w3.org/1999/xhtml\"><table class=\"hl7__eu__lab__report\"><tr><th>Test</th><th>30-Nov-2024</th><th>Reference&#xA0;Range</th><th>Unit</th></tr><tr><td>Aspartate aminotransferase [Enzymatic activity/volume] in Serum or Plasma</td><td>15.6</td><td>10 - 40</td><td></td><td>U/L</td></tr></table></div>"
        },
        "status": "final",
        "subject": {
          "reference": "urn:uuid:356b1a6a-4cfc-485b-876d-1814cf62fb15",
          "display": "Helene Andresen"
        },
        "effectiveDateTime": "2024-11-30T22:53:36Z"
      }
    },
    {
      "fullUrl": "urn:uuid:4da3a01d-b5d1-440a-950e-c642070e7066",
      "resource": {
        "resourceType": "Observation",
        "id": "4da3a01d-b5d1-440a-950e-c642070e7066",
        "meta": {
          "profile": [
            "http://hl7.eu/fhir/laboratory/StructureDefinition/Observation-resultslab-eu-lab"
          ]
        },
        "performer": [
          {
            "display": "The Central European Lab"
          }
        ],
        "category": [
          {
            "coding": [
              {
                "system": "http://terminology.hl7.org/CodeSystem/observation-category",
                "code": "laboratory"
              }
            ]
          }
        ],
        "code": {
          "coding": [
            {
              "code": "2093-3",
              "system": "http://loinc.org",
              "display": "Cholesterol [Mass/volume] in Serum or Plasma"
            }
          ],
          "text": "Cholesterol [Mass/volume] in Serum or Plasma"
        },
        "valueQuantity": {
          "system": "http://unitsofmeasure.org",
          "value": 204.8,
          "unit": "mg/dL",
          "code": "mg/dL"
        },
        "referenceRange": [
          {
            "low": {
              "value": 125,
              "code": "mg/dL",
              "system": "http://unitsofmeasure.org"
            }
          },
          {
            "high": {
              "value": 200,
              "code": "mg/dL",
              "system": "http://unitsofmeasure.org"
            }
          }
        ],
        "interpretation": [
          {
            "coding": [
              {
                "code": "H",
                "system": "http://terminology.hl7.org/CodeSystem/v3-ObservationInterpretation",
                "display": "High"
              }
            ]
          }
        ],
        "text": {
          "status": "generated",
          "div": "<div xmlns=\"http://www.w3.org/1999/xhtml\"><table class=\"hl7__eu__lab__report\"><tr><th>Test</th><th>30-Nov-2024</th><th>Reference&#xA0;Range</th><th>Unit</th></tr><tr><td>Cholesterol [Mass/volume] in Serum or Plasma</td><td>204.8</td><td>125 - 200</td><td>H</td><td>mg/dL</td></tr></table></div>"
        },
        "status": "final",
        "subject": {
          "reference": "urn:uuid:356b1a6a-4cfc-485b-876d-1814cf62fb15",
          "display": "Helene Andresen"
        },
        "effectiveDateTime": "2024-11-30T22:53:36Z"
      }
    },
    {
      "fullUrl": "urn:uuid:c816cd2e-3c09-41bb-a0b1-f261846d0aec",
      "resource": {
        "resourceType": "Observation",
        "id": "c816cd2e-3c09-41bb-a0b1-f261846d0aec",
        "meta": {
          "profile": [
            "http://hl7.eu/fhir/laboratory/StructureDefinition/Observation-resultslab-eu-lab"
          ]
        },
        "performer": [
          {
            "display": "The Central European Lab"
          }
        ],
        "category": [
          {
            "coding": [
              {
                "system": "http://terminology.hl7.org/CodeSystem/observation-category",
                "code": "laboratory"
              }
            ]
          }
        ],
        "code": {
          "coding": [
            {
              "code": "2571-8",
              "system": "http://loinc.org",
              "display": "Triglyceride [Mass/volume] in Serum or Plasma"
            }
          ],
          "text": "Triglyceride [Mass/volume] in Serum or Plasma"
        },
        "valueQuantity": {
          "system": "http://unitsofmeasure.org",
          "value": 151.8,
          "unit": "mg/dL",
          "code": "mg/dL"
        },
        "referenceRange": [
          {
            "low": {
              "value": 10,
              "code": "mg/dL",
              "system": "http://unitsofmeasure.org"
            }
          },
          {
            "high": {
              "value": 175,
              "code": "mg/dL",
              "system": "http://unitsofmeasure.org"
            }
          }
        ],
        "text": {
          "status": "generated",
          "div": "<div xmlns=\"http://www.w3.org/1999/xhtml\"><table class=\"hl7__eu__lab__report\"><tr><th>Test</th><th>30-Nov-2024</th><th>Reference&#xA0;Range</th><th>Unit</th></tr><tr><td>Triglyceride [Mass/volume] in Serum or Plasma</td><td>151.8</td><td>10 - 175</td><td></td><td>mg/dL</td></tr></table></div>"
        },
        "status": "final",
        "subject": {
          "reference": "urn:uuid:356b1a6a-4cfc-485b-876d-1814cf62fb15",
          "display": "Helene Andresen"
        },
        "effectiveDateTime": "2024-11-30T22:53:36Z"
      }
    },
    {
      "fullUrl": "urn:uuid:71c5b2ee-be2b-4485-842f-78182030c621",
      "resource": {
        "resourceType": "Observation",
        "id": "71c5b2ee-be2b-4485-842f-78182030c621",
        "meta": {
          "profile": [
            "http://hl7.eu/fhir/laboratory/StructureDefinition/Observation-resultslab-eu-lab"
          ]
        },
        "performer": [
          {
            "display": "The Central European Lab"
          }
        ],
        "category": [
          {
            "coding": [
              {
                "system": "http://terminology.hl7.org/CodeSystem/observation-category",
                "code": "laboratory"
              }
            ]
          }
        ],
        "code": {
          "coding": [
            {
              "code": "18262-6",
              "system": "http://loinc.org",
              "display": "Cholesterol in LDL [Mass/volume] in Serum or Plasma by Direct assay"
            }
          ],
          "text": "Cholesterol in LDL [Mass/volume] in Serum or Plasma by Direct assay"
        },
        "valueQuantity": {
          "system": "http://unitsofmeasure.org",
          "value": 100.8,
          "unit": "mg/dL",
          "code": "mg/dL"
        },
        "referenceRange": [
          {
            "low": {
              "value": 0,
              "code": "mg/dL",
              "system": "http://unitsofmeasure.org"
            }
          },
          {
            "high": {
              "value": 130,
              "code": "mg/dL",
              "system": "http://unitsofmeasure.org"
            }
          }
        ],
        "text": {
          "status": "generated",
          "div": "<div xmlns=\"http://www.w3.org/1999/xhtml\"><table class=\"hl7__eu__lab__report\"><tr><th>Test</th><th>30-Nov-2024</th><th>Reference&#xA0;Range</th><th>Unit</th></tr><tr><td>Cholesterol in LDL [Mass/volume] in Serum or Plasma by Direct assay</td><td>100.8</td><td>0 - 130</td><td></td><td>mg/dL</td></tr></table></div>"
        },
        "status": "final",
        "subject": {
          "reference": "urn:uuid:356b1a6a-4cfc-485b-876d-1814cf62fb15",
          "display": "Helene Andresen"
        },
        "effectiveDateTime": "2024-11-30T22:53:36Z"
      }
    },
    {
      "fullUrl": "urn:uuid:293db8bb-fa47-4735-92c5-0636220e4620",
      "resource": {
        "resourceType": "Observation",
        "id": "293db8bb-fa47-4735-92c5-0636220e4620",
        "meta": {
          "profile": [
            "http://hl7.eu/fhir/laboratory/StructureDefinition/Observation-resultslab-eu-lab"
          ]
        },
        "performer": [
          {
            "display": "The Central European Lab"
          }
        ],
        "category": [
          {
            "coding": [
              {
                "system": "http://terminology.hl7.org/CodeSystem/observation-category",
                "code": "laboratory"
              }
            ]
          }
        ],
        "code": {
          "coding": [
            {
              "code": "2085-9",
              "system": "http://loinc.org",
              "display": "Cholesterol in HDL [Mass/volume] in Serum or Plasma"
            }
          ],
          "text": "Cholesterol in HDL [Mass/volume] in Serum or Plasma"
        },
        "valueQuantity": {
          "system": "http://unitsofmeasure.org",
          "value": 32.2,
          "unit": "mg/dL",
          "code": "mg/dL"
        },
        "referenceRange": [
          {
            "low": {
              "value": 50,
              "code": "mg/dL",
              "system": "http://unitsofmeasure.org"
            }
          },
          {
            "high": {
              "value": 100,
              "code": "mg/dL",
              "system": "http://unitsofmeasure.org"
            }
          }
        ],
        "interpretation": [
          {
            "coding": [
              {
                "code": "L",
                "system": "http://terminology.hl7.org/CodeSystem/v3-ObservationInterpretation",
                "display": "Low"
              }
            ]
          }
        ],
        "text": {
          "status": "generated",
          "div": "<div xmlns=\"http://www.w3.org/1999/xhtml\"><table class=\"hl7__eu__lab__report\"><tr><th>Test</th><th>30-Nov-2024</th><th>Reference&#xA0;Range</th><th>Unit</th></tr><tr><td>Cholesterol in HDL [Mass/volume] in Serum or Plasma</td><td>32.2</td><td>50 - 100</td><td>L</td><td>mg/dL</td></tr></table></div>"
        },
        "status": "final",
        "subject": {
          "reference": "urn:uuid:356b1a6a-4cfc-485b-876d-1814cf62fb15",
          "display": "Helene Andresen"
        },
        "effectiveDateTime": "2024-11-30T22:53:36Z"
      }
    },
    {
      "fullUrl": "urn:uuid:6340ff75-a3e1-44b3-9819-253a22b26d51",
      "resource": {
        "resourceType": "DeviceUseStatement",
        "id": "6340ff75-a3e1-44b3-9819-253a22b26d51",
        "meta": {
          "profile": [
            "http://hl7.eu/fhir/eps/StructureDefinition/deviceUseStatement-eu-eps"
          ]
        },
        "timingPeriod": {
          "start": "1999-05-31"
        },
        "text": {
          "status": "generated",
          "div": "<div xmlns=\"http://www.w3.org/1999/xhtml\"><table class=\"hl7__ips\"><tr><td>Home nebulizer (physical object)</td><td><span class=\"nb\">31-May-1999</span></td></tr></table></div>"
        },
        "status": "active",
        "device": {
          "reference": "urn:uuid:69443fc9-98e7-4b90-bc55-9feac903dd08",
          "display": "Home nebulizer (physical object)"
        },
        "subject": {
          "reference": "urn:uuid:356b1a6a-4cfc-485b-876d-1814cf62fb15",
          "display": "Helene Andresen"
        }
      }
    },
    {
      "fullUrl": "urn:uuid:69443fc9-98e7-4b90-bc55-9feac903dd08",
      "resource": {
        "resourceType": "Device",
        "id": "69443fc9-98e7-4b90-bc55-9feac903dd08",
        "meta": {
          "profile": [
            "http://hl7.eu/fhir/eps/StructureDefinition/device-eu-eps"
          ]
        },
        "udiCarrier": [
          {
            "id": "(01)22587227325714(11)990510(17)240524(10)63575205(21)61758505064052717"
          }
        ],
        "status": "active",
        "patient": {
          "reference": "urn:uuid:356b1a6a-4cfc-485b-876d-1814cf62fb15",
          "display": "Helene Andresen"
        },
        "type": {
          "coding": [
            {
              "code": "170615005",
              "system": "http://snomed.info/sct",
              "display": "Home nebulizer (physical object)"
            }
          ]
        }
      }
    },
    {
      "fullUrl": "urn:uuid:e5033ec0-358d-46af-bd9b-00a68cc975b3",
      "resource": {
        "resourceType": "DeviceUseStatement",
        "id": "e5033ec0-358d-46af-bd9b-00a68cc975b3",
        "meta": {
          "profile": [
            "http://hl7.eu/fhir/eps/StructureDefinition/deviceUseStatement-eu-eps"
          ]
        },
        "timingPeriod": {
          "start": "1960-07-02"
        },
        "text": {
          "status": "generated",
          "div": "<div xmlns=\"http://www.w3.org/1999/xhtml\"><table class=\"hl7__ips\"><tr><td>Blood glucose meter (physical object)</td><td><span class=\"nb\">02-Jul-1960</span></td></tr></table></div>"
        },
        "status": "active",
        "device": {
          "reference": "urn:uuid:2e80c345-5a1e-4772-bdde-f2f2d39e6af5",
          "display": "Blood glucose meter (physical object)"
        },
        "subject": {
          "reference": "urn:uuid:356b1a6a-4cfc-485b-876d-1814cf62fb15",
          "display": "Helene Andresen"
        }
      }
    },
    {
      "fullUrl": "urn:uuid:2e80c345-5a1e-4772-bdde-f2f2d39e6af5",
      "resource": {
        "resourceType": "Device",
        "id": "2e80c345-5a1e-4772-bdde-f2f2d39e6af5",
        "meta": {
          "profile": [
            "http://hl7.eu/fhir/eps/StructureDefinition/device-eu-eps"
          ]
        },
        "udiCarrier": [
          {
            "id": "(01)57536095449055(11)600611(17)850627(10)70837(21)40552787"
          }
        ],
        "status": "active",
        "patient": {
          "reference": "urn:uuid:356b1a6a-4cfc-485b-876d-1814cf62fb15",
          "display": "Helene Andresen"
        },
        "type": {
          "coding": [
            {
              "code": "337414009",
              "system": "http://snomed.info/sct",
              "display": "Blood glucose meter (physical object)"
            }
          ]
        }
      }
    },
    {
      "fullUrl": "urn:uuid:d6fff0b8-80dc-412a-a139-deba3bea49f3",
      "resource": {
        "resourceType": "Device",
        "id": "d6fff0b8-80dc-412a-a139-deba3bea49f3",
        "deviceName": [
          {
            "name": "SYNDERAI Synthetic Generator",
            "type": "manufacturer-name"
          }
        ],
        "version": [
          {
            "value": "5.0"
          }
        ],
        "text": {
          "status": "generated",
          "div": "<div xmlns=\"http://www.w3.org/1999/xhtml\">SYNDERAI Synthetic Generator v5.0</div>"
        },
        "status": "active\"",
        "distinctIdentifier": "synderai-generator-50",
        "manufacturer": "SYNDERAI Project"
      }
    },
    {
      "fullUrl": "urn:uuid:4544e3fb-1d80-4f59-8e2c-edd21dd82ad6",
      "resource": {
        "resourceType": "Provenance",
        "id": "4544e3fb-1d80-4f59-8e2c-edd21dd82ad6",
        "target": [
          {
            "reference": "Patient/356b1a6a-4cfc-485b-876d-1814cf62fb15"
          },
          {
            "reference": "Bundle/bde5f9ec-1418-4f11-b279-31f26a68676d"
          },
          {
            "reference": "Composition/815a857f-b50b-4576-b6fb-aa9d061ecc64"
          },
          {
            "reference": "PractitionerRole/8b62a1d5-7ac0-4a61-a64b-5637d749b532"
          },
          {
            "reference": "Organization/704307a4-2a78-447b-b149-e6d8d4daedb2"
          },
          {
            "reference": "Practitioner/f386e736-d46c-4748-a750-d55199582c72"
          }
        ],
        "activity": {
          "text": "Synthetic Example Data Generation"
        },
        "policy": [
          "https://synderai.net/synderai-synthetic-data-policy"
        ],
        "agent": [
          {
            "type": {
              "text": "author"
            },
            "who": {
              "reference": "Device/d6fff0b8-80dc-412a-a139-deba3bea49f3"
            }
          }
        ],
        "reason": [
          {
            "text": "Interoperability Testing and Training (non-clinical use)"
          }
        ],
        "text": {
          "status": "generated",
          "div": "<div xmlns=\"http://www.w3.org/1999/xhtml\">Provenance for SYNDERAI Synthetic Example Data Resource</div>"
        },
        "recorded": "2024-11-30T22:53:36Z"
      }
    }
  ],
  "type": "document",
  "timestamp": "2024-11-30T22:53:36Z"
}
