<Bundle xmlns="http://hl7.org/fhir">
   <id value="6aab481f-866c-4413-ab33-c9950121a851"/>
   <meta>
      <profile value="http://hl7.eu/fhir/eps/StructureDefinition/bundle-eu-eps"/>
   </meta>
   <identifier>
      <system value="urn:oid:2.16.840.1.113883.2.51.999"/>
      <value value="74b64d2c-0953-4cfa-b283-5c4dacbdf62c"/>
      <assigner>
         <display value="HL7 Europe"/>
      </assigner>
   </identifier>
   <type value="document"/>
   <timestamp value="2025-04-20T03:55:50Z"/>
   <entry>
      <fullUrl value="urn:uuid:e8fb9d04-922b-4931-9ed3-54942ff5f6a6"/>
      <resource>
         <Composition>
            <id value="e8fb9d04-922b-4931-9ed3-54942ff5f6a6"/>
            <meta>
               <profile value="http://hl7.eu/fhir/eps/StructureDefinition/composition-eu-eps"/>
               <security>
                  <system value="http://terminology.hl7.org/CodeSystem/v3-ActReason"/>
                  <code value="HTEST"/>
               </security>
               <security>
                  <system value="http://terminology.hl7.org/CodeSystem/v3-ActReason"/>
                  <code value="TRAIN"/>
               </security>
               <tag>
                  <system value="https://synderai.net/fhir/CodeSystem/tags"/>
                  <code value="synthetic"/>
                  <display value="SYNDERAI Synthetic data"/>
               </tag>
            </meta>
            <identifier>
               <system value="urn:oid:2.16.840.1.113883.2.51.999"/>
               <value value="234b2609-62c1-465e-9f40-0bc8e18c090a"/>
               <assigner>
                  <display value="HL7 Europe"/>
               </assigner>
            </identifier>
            <status value="final"/>
            <type>
               <coding>
                  <system value="http://loinc.org"/>
                  <code value="60591-5"/>
                  <display value="Patient summary Document"/>
               </coding>
               <text value="Patient summary Document"/>
            </type>
            <subject>
               <reference value="urn:uuid:8b60c406-f262-47ce-80bf-7382f7b80766"/>
               <display value="Olga Bąbel"/>
            </subject>
            <date value="2025-04-20"/>
            <author>
               <reference value="urn:uuid:425ee769-ed9a-4716-b8a6-41d1a9877cec"/>
            </author>
            <title value="European Patient Summary"/>
            <confidentiality value="N"/>
            <custodian>
               <reference value="urn:uuid:5bec286a-9f6a-47c4-b3b3-b6171ed2eaa6"/>
            </custodian>
            <section>
               <title value="Problem list"/>
               <code>
                  <coding>
                     <system value="http://loinc.org"/>
                     <code value="11450-4"/>
                     <display value="Problem list - Reported"/>
                  </coding>
               </code>
               <text>
                  <status value="generated"/>
                  <div xmlns="http://www.w3.org/1999/xhtml">
                     <table class="hl7__ips">
                        <tr>
                           <th>Condition</th>
                           <th>Onset Date</th>
                           <th>Status</th>
                        </tr>
                        <tr>
                           <td>Prediabetes</td>
                           <td>
                              <span class="nb">14-Apr-2024</span>
                           </td>
                           <td>active</td>
                        </tr>
                        <tr>
                           <td>Anemia</td>
                           <td>
                              <span class="nb">14-Apr-2024</span>
                           </td>
                           <td>active</td>
                        </tr>
                     </table>
                  </div>
               </text>
               <entry>
                  <reference value="urn:uuid:496e72c8-77d3-4eb0-8a8c-152966785e8d"/>
               </entry>
               <entry>
                  <reference value="urn:uuid:fe53e9bd-e83c-4be9-95f0-d248a7baddff"/>
               </entry>
            </section>
            <section>
               <title value="History of Past Illness"/>
               <code>
                  <coding>
                     <system value="http://loinc.org"/>
                     <code value="11348-0"/>
                     <display value="History of Past illness note"/>
                  </coding>
               </code>
               <text>
                  <status value="generated"/>
                  <div xmlns="http://www.w3.org/1999/xhtml">
                     <table class="hl7__ips">
                        <tr>
                           <th>Condition</th>
                           <th>Period</th>
                           <th>Status</th>
                        </tr>
                        <tr>
                           <td>
                              <span class="grayedout">Acute bronchitis</span>
                           </td>
                           <td>
                              <span class="nb">24-Dec-2021 - 10-Jan-2022</span>
                           </td>
                           <td>
                              <span class="grayedout">inactive</span>
                           </td>
                        </tr>
                        <tr>
                           <td>
                              <span class="grayedout">Viral sinusitis</span>
                           </td>
                           <td>
                              <span class="nb">17-May-2021 - 25-May-2021</span>
                           </td>
                           <td>
                              <span class="grayedout">inactive</span>
                           </td>
                        </tr>
                     </table>
                  </div>
               </text>
               <entry>
                  <reference value="urn:uuid:7a8a6bb7-c803-47ad-a927-2c8b773b41a2"/>
               </entry>
               <entry>
                  <reference value="urn:uuid:da1e8e37-b376-4933-808a-18df28c32dd4"/>
               </entry>
            </section>
            <section>
               <title value="Medication list"/>
               <code>
                  <coding>
                     <system value="http://loinc.org"/>
                     <code value="10160-0"/>
                     <display value="History of Medication use Narrative"/>
                  </coding>
               </code>
               <text>
                  <status value="generated"/>
                  <div xmlns="http://www.w3.org/1999/xhtml">
                     <table class="hl7__ips">
                        <tr>
                           <th>Medication</th>
                           <th>Since</th>
                           <th>Form</th>
                           <th>Dosage</th>
                           <th>Reason</th>
                        </tr>
                        <tr>
                           <td>Acetaminophen 300 mg and codeine phosphate 15 mg oral tablet</td>
                           <td>
                              <span class="nb">2025-04-20</span>
                           </td>
                           <td>Oral tablet</td>
                           <td>1 tablet (300 mg / 15 mg) every 4 hours as needed</td>
                           <td/>
                        </tr>
                        <tr>
                           <td>12 HR Hydrocodone Bitartrate 10 MG Extended Release Oral Capsule</td>
                           <td>
                              <span class="nb">2025-04-20</span>
                           </td>
                           <td/>
                           <td>10 mg every 12 hours</td>
                           <td/>
                        </tr>
                        <tr>
                           <td>Vitamin B12 5 MG/ML Injectable Solution</td>
                           <td>
                              <span class="nb">2024-04-21</span>
                           </td>
                           <td/>
                           <td>1 mL (5 mg) intramuscularly once weekly</td>
                           <td/>
                        </tr>
                     </table>
                  </div>
               </text>
               <entry>
                  <reference value="urn:uuid:b559d7ca-ee78-49d2-bbfd-9db4c1c00522"/>
               </entry>
               <entry>
                  <reference value="urn:uuid:5feb9fe1-4098-4be7-b2d7-94b3d3d08531"/>
               </entry>
               <entry>
                  <reference value="urn:uuid:28e64dce-3142-4dcc-be1e-9ff3ae0d02f1"/>
               </entry>
            </section>
            <section>
               <title value="Immunizations list"/>
               <code>
                  <coding>
                     <system value="http://loinc.org"/>
                     <code value="11369-6"/>
                     <display value="History of Immunization note"/>
                  </coding>
               </code>
               <text>
                  <status value="generated"/>
                  <div xmlns="http://www.w3.org/1999/xhtml">
                     <table class="hl7__ips">
                        <tr>
                           <th>Vaccine</th>
                           <th>Date</th>
                        </tr>
                        <tr>
                           <td>Influenza virus antigen only vaccine product</td>
                           <td>
                              <span class="nb">20-Apr-2025</span>
                           </td>
                        </tr>
                        <tr>
                           <td>Clostridium tetani toxoid antigen adsorbed only vaccine product</td>
                           <td>
                              <span class="nb">02-Jan-2022</span>
                           </td>
                        </tr>
                        <tr>
                           <td>SARS-CoV-2 mRNA vaccine</td>
                           <td>
                              <span class="nb">18-Apr-2021</span>
                           </td>
                        </tr>
                     </table>
                  </div>
               </text>
               <entry>
                  <reference value="urn:uuid:93df8815-c637-45af-a84d-79f53abf9f9e"/>
               </entry>
               <entry>
                  <reference value="urn:uuid:9f080799-c254-44b0-9f32-da2f857af554"/>
               </entry>
               <entry>
                  <reference value="urn:uuid:5f1d866e-6430-443b-b21d-f89988b0b057"/>
               </entry>
            </section>
            <section>
               <title value="Procedure History list"/>
               <code>
                  <coding>
                     <system value="http://loinc.org"/>
                     <code value="47519-4"/>
                     <display value="History of Procedures Document"/>
                  </coding>
               </code>
               <text>
                  <status value="generated"/>
                  <div xmlns="http://www.w3.org/1999/xhtml">
                     <table class="hl7__ips">
                        <tr>
                           <th>Procedure</th>
                           <th>Date</th>
                           <th>Reason</th>
                        </tr>
                        <tr>
                           <td>Cesarean section</td>
                           <td>
                              <span class="nb">03-Mar-2024</span>
                           </td>
                           <td>Normal pregnancy</td>
                        </tr>
                        <tr>
                           <td>Epidural anesthesia</td>
                           <td>
                              <span class="nb">03-Mar-2024</span>
                           </td>
                           <td>Normal pregnancy</td>
                        </tr>
                        <tr>
                           <td>Parturition</td>
                           <td>
                              <span class="nb">13-Sep-2015</span>
                           </td>
                           <td>Normal pregnancy</td>
                        </tr>
                     </table>
                  </div>
               </text>
               <entry>
                  <reference value="urn:uuid:73a25969-1c35-4d8a-abae-8031a857fa85"/>
               </entry>
               <entry>
                  <reference value="urn:uuid:6397f9a3-16b1-4cf4-b42b-fcbacc176b92"/>
               </entry>
               <entry>
                  <reference value="urn:uuid:b081f912-b702-4862-a278-951caf95dfd4"/>
               </entry>
            </section>
            <section>
               <title value="Allergies and Intolerances"/>
               <code>
                  <coding>
                     <system value="http://loinc.org"/>
                     <code value="48765-2"/>
                     <display value="Allergies and adverse reactions Document"/>
                  </coding>
               </code>
               <text>
                  <status value="generated"/>
                  <div xmlns="http://www.w3.org/1999/xhtml">
                     <table class="hl7__ips">
                        <tr>
                           <td>No known allergies or intolerances</td>
                        </tr>
                     </table>
                  </div>
               </text>
               <entry>
                  <reference value="urn:uuid:ccb85aea-2b51-461c-a583-d603c2f905fb"/>
               </entry>
            </section>
            <section>
               <title value="Care Plan"/>
               <code>
                  <coding>
                     <system value="http://loinc.org"/>
                     <code value="18776-5"/>
                     <display value="Plan of care note"/>
                  </coding>
               </code>
               <text>
                  <status value="generated"/>
                  <div xmlns="http://www.w3.org/1999/xhtml">
                     <table class="hl7__ips">
                        <tr>
                           <td>Diabetes self management plan</td>
                           <td>
                              <span class="nb">14-Apr-2024</span>
                           </td>
                           <td>Prediabetes</td>
                        </tr>
                        <tr>
                           <td>
                              <ul>
                                 <li>Patient will implement lifestyle modifications to reduce risk of progression to diabetes, including dietary changes, increased physical activity, and regular blood glucose monitoring.</li>
                              </ul>
                           </td>
                           <td/>
                           <td/>
                        </tr>
                        <tr>
                           <td>Therapy</td>
                           <td>
                              <span class="nb">18-Apr-2014</span>
                           </td>
                           <td>-</td>
                        </tr>
                     </table>
                  </div>
               </text>
               <entry>
                  <reference value="urn:uuid:a91e40f1-2426-4319-aca1-2b3b811cc391"/>
               </entry>
               <entry>
                  <reference value="urn:uuid:f20971eb-9dd2-43db-94af-2cf6f2644afc"/>
               </entry>
            </section>
            <section>
               <title value="Vital Signs"/>
               <code>
                  <coding>
                     <system value="http://loinc.org"/>
                     <code value="8716-3"/>
                     <display value="Vital signs note"/>
                  </coding>
               </code>
               <text>
                  <status value="generated"/>
                  <div xmlns="http://www.w3.org/1999/xhtml">
                     <table class="hl7__ips">
                        <tr>
                           <th>Vital Signs</th>
                           <th>2025-04-20</th>
                           <th>2024-04-14</th>
                        </tr>
                        <tr>
                           <td>Body Height</td>
                           <td>168.3 cm</td>
                           <td>168.3 cm</td>
                        </tr>
                        <tr>
                           <td>Pain severity - 0-10 verbal numeric rating [Score] - Reported</td>
                           <td>2 {score}</td>
                           <td>3 {score}</td>
                        </tr>
                        <tr>
                           <td>Body Weight</td>
                           <td>85 kg</td>
                           <td>84.1 kg</td>
                        </tr>
                        <tr>
                           <td>Body mass index (BMI) [Ratio]</td>
                           <td>30 kg/m2</td>
                           <td>29.7 kg/m2</td>
                        </tr>
                        <tr>
                           <td>Diastolic Blood Pressure</td>
                           <td>77 mm[Hg]</td>
                           <td>82 mm[Hg]</td>
                        </tr>
                        <tr>
                           <td>Systolic Blood Pressure</td>
                           <td>136 mm[Hg]</td>
                           <td>139 mm[Hg]</td>
                        </tr>
                        <tr>
                           <td>Heart rate</td>
                           <td>68 /min</td>
                           <td>85 /min</td>
                        </tr>
                        <tr>
                           <td>Respiratory rate</td>
                           <td>13 /min</td>
                           <td>15 /min</td>
                        </tr>
                     </table>
                  </div>
               </text>
               <entry>
                  <reference value="urn:uuid:3656198e-2d6c-4651-bda8-a6473a9e3848"/>
               </entry>
               <entry>
                  <reference value="urn:uuid:fa4b081e-2c75-4b64-8080-e742fc7255f5"/>
               </entry>
               <entry>
                  <reference value="urn:uuid:dd72cd9b-b0f8-4bac-8af4-07b29249883c"/>
               </entry>
               <entry>
                  <reference value="urn:uuid:e2b3c803-4e0e-47e0-9f23-a52ab37fa0c2"/>
               </entry>
               <entry>
                  <reference value="urn:uuid:33b6cb5d-6862-430b-92d3-aee2fb17f34c"/>
               </entry>
               <entry>
                  <reference value="urn:uuid:e6eb6848-521a-41ea-a197-9e4715336c11"/>
               </entry>
               <entry>
                  <reference value="urn:uuid:41879a11-7b19-44b6-8d5a-2408163bf807"/>
               </entry>
               <entry>
                  <reference value="urn:uuid:ebe0bbb6-7def-4d9d-97c9-af5217db3293"/>
               </entry>
               <entry>
                  <reference value="urn:uuid:45e7c4b5-1151-4103-981d-6c23a9c62e20"/>
               </entry>
               <entry>
                  <reference value="urn:uuid:ec8bcabd-0876-4bdb-86b7-bc4a8753bdbf"/>
               </entry>
               <entry>
                  <reference value="urn:uuid:5c533915-8507-4063-a5fe-8040d8f693a6"/>
               </entry>
               <entry>
                  <reference value="urn:uuid:500fb102-ce0f-4708-bf0d-3972c91ee36a"/>
               </entry>
               <entry>
                  <reference value="urn:uuid:35fb0a21-cc1e-4852-a2bc-31733d60bbc1"/>
               </entry>
               <entry>
                  <reference value="urn:uuid:c065a48f-836f-4813-9626-f8c64bc79ffa"/>
               </entry>
               <entry>
                  <reference value="urn:uuid:ac28fd5a-c397-46b7-93a6-2be0678e6d7f"/>
               </entry>
               <entry>
                  <reference value="urn:uuid:e19cad06-0bfa-47e8-84d9-2836bfb5e470"/>
               </entry>
            </section>
            <section>
               <title value="Pregnancy History"/>
               <code>
                  <coding>
                     <system value="http://loinc.org"/>
                     <code value="10162-6"/>
                     <display value="History of pregnancies Narrative"/>
                  </coding>
               </code>
               <text>
                  <status value="generated"/>
                  <div xmlns="http://www.w3.org/1999/xhtml">
                     <table class="hl7__ips">$<tr>
                           <td>[#] Births total</td>
                           <td>1</td>
                        </tr>
                     </table>
                  </div>
               </text>
            </section>
            <section>
               <title value="Relevant diagnostic tests/laboratory data"/>
               <code>
                  <coding>
                     <system value="http://loinc.org"/>
                     <code value="30954-2"/>
                     <display value="Relevant diagnostic tests/laboratory data note"/>
                  </coding>
               </code>
               <text>
                  <status value="generated"/>
                  <div xmlns="http://www.w3.org/1999/xhtml">
                     <table class="hl7__ips">
                        <table class="hl7__ips">
                           <thead>
                              <tr>
                                 <th>Recent Lab Observations</th>
                                 <th>20-APR-2025</th>
                                 <th>Reference Range</th>
                                 <th>Unit</th>
                              </tr>
                           </thead>
                           <tbody>
                              <tr>
                                 <td>Hemoglobin A1c/Hemoglobin.total in Blood</td>
                                 <td>
                                    <strong>6.4 H</strong>
                                 </td>
                                 <td>4.8 - 5.7</td>
                                 <td>%</td>
                              </tr>
                              <tr>
                                 <td>Glucose [Mass/volume] in Blood</td>
                                 <td>98.9</td>
                                 <td>70 - 99</td>
                                 <td>mg/dL</td>
                              </tr>
                              <tr>
                                 <td>Urea nitrogen [Mass/volume] in Blood</td>
                                 <td>9.4</td>
                                 <td>7 - 20</td>
                                 <td>mg/dL</td>
                              </tr>
                              <tr>
                                 <td>Creatinine [Mass/volume] in Blood</td>
                                 <td>
                                    <strong>1.2 H</strong>
                                 </td>
                                 <td>0.6 - 1.1</td>
                                 <td>mg/dL</td>
                              </tr>
                              <tr>
                                 <td>Calcium [Mass/volume] in Blood</td>
                                 <td>9.9</td>
                                 <td>8.5 - 10.4</td>
                                 <td>mg/dL</td>
                              </tr>
                              <tr>
                                 <td>Sodium [Moles/volume] in Blood</td>
                                 <td>142.1</td>
                                 <td>135 - 145</td>
                                 <td>mmol/L</td>
                              </tr>
                              <tr>
                                 <td>Potassium [Moles/volume] in Blood</td>
                                 <td>4.6</td>
                                 <td>3.5 - 5.1</td>
                                 <td>mmol/L</td>
                              </tr>
                              <tr>
                                 <td>Chloride [Moles/volume] in Blood</td>
                                 <td>
                                    <strong>110.7 H</strong>
                                 </td>
                                 <td>98 - 107</td>
                                 <td>mmol/L</td>
                              </tr>
                              <tr>
                                 <td>Carbon dioxide, total [Moles/volume] in Blood</td>
                                 <td>
                                    <strong>21.1 L</strong>
                                 </td>
                                 <td>22 - 29</td>
                                 <td>mmol/L</td>
                              </tr>
                           </tbody>
                        </table>
                     </table>
                  </div>
               </text>
               <entry>
                  <reference value="urn:uuid:6e263a59-a57f-48e3-8ebe-6a63c46809a0"/>
               </entry>
               <entry>
                  <reference value="urn:uuid:27b7efc7-1c87-42e8-81b8-568584427b07"/>
               </entry>
               <entry>
                  <reference value="urn:uuid:c604db7c-4fb6-4e90-8a66-bd962a54e368"/>
               </entry>
               <entry>
                  <reference value="urn:uuid:e3ccc22a-a26a-4db1-bd87-dc5d3b91df4f"/>
               </entry>
               <entry>
                  <reference value="urn:uuid:fe2d1298-1c17-4593-a249-a9633043b81c"/>
               </entry>
               <entry>
                  <reference value="urn:uuid:a5062e45-65c6-401f-8678-b965843ed975"/>
               </entry>
               <entry>
                  <reference value="urn:uuid:1cfae690-328e-4c66-beed-8f0689854e7e"/>
               </entry>
               <entry>
                  <reference value="urn:uuid:282c9c9a-6787-4182-871f-2d98a4906557"/>
               </entry>
               <entry>
                  <reference value="urn:uuid:a57c8695-6171-454c-a831-0ca576f3e65d"/>
               </entry>
            </section>
            <section>
               <title value="Device Use"/>
               <code>
                  <coding>
                     <system value="http://loinc.org"/>
                     <code value="46264-8"/>
                     <display value="History of medical device use"/>
                  </coding>
               </code>
               <text>
                  <status value="generated"/>
                  <div xmlns="http://www.w3.org/1999/xhtml">
                     <table class="hl7__ips">
                        <tr>
                           <th>Device</th>
                           <th>Date (since)</th>
                        </tr>
                        <tr>
                           <td>Blood glucose meter (physical object)</td>
                           <td>
                              <span class="nb">14-Apr-2024</span>
                           </td>
                        </tr>
                     </table>
                  </div>
               </text>
               <entry>
                  <reference value="urn:uuid:0734fa0e-d8ee-449c-a976-dd6162b1bcce"/>
               </entry>
            </section>
         </Composition>
      </resource>
   </entry>
   <entry>
      <fullUrl value="urn:uuid:8b60c406-f262-47ce-80bf-7382f7b80766"/>
      <resource>
         <Patient>
            <id value="8b60c406-f262-47ce-80bf-7382f7b80766"/>
            <meta>
               <profile value="http://hl7.eu/fhir/eps/StructureDefinition/patient-eu-eps"/>
               <security>
                  <system value="http://terminology.hl7.org/CodeSystem/v3-ActReason"/>
                  <code value="HTEST"/>
               </security>
               <security>
                  <system value="http://terminology.hl7.org/CodeSystem/v3-ActReason"/>
                  <code value="TRAIN"/>
               </security>
               <tag>
                  <system value="https://synderai.net/fhir/CodeSystem/tags"/>
                  <code value="synthetic"/>
                  <display value="SYNDERAI Synthetic data"/>
               </tag>
            </meta>
            <text>
               <status value="generated"/>
               <div xmlns="http://www.w3.org/1999/xhtml">
                  <table class="hl7__ips">
                     <tr>
                        <td>Olga Bąbel</td>
                        <td>female</td>
                        <td>05-Jun-1993</td>
                     </tr>
                  </table>
               </div>
            </text>
            <extension url="http://hl7.org/fhir/StructureDefinition/patient-nationality">
               <valueCodeableConcept>
                  <coding>
                     <system value="http://hl7.org/fhir/ValueSet/country"/>
                     <code value="PL"/>
                  </coding>
               </valueCodeableConcept>
            </extension>
            <identifier>
               <type>
                  <coding>
                     <system value="http://terminology.hl7.org/CodeSystem/v2-0203"/>
                     <code value="PT"/>
                  </coding>
               </type>
               <system value="http://ec.europa.eu/identifier/eci"/>
               <value value="5030-866518-6"/>
            </identifier>
            <identifier>
               <type>
                  <coding>
                     <system value="http://terminology.hl7.org/CodeSystem/v2-0203"/>
                     <code value="MR"/>
                  </coding>
               </type>
               <system value="http://local.setting.eu/identifier"/>
               <value value="90f4ce41-5cb2-20e8-d5ac-80001edd2b41"/>
            </identifier>
            <name>
               <family value="Bąbel"/>
            </name>
            <name>
               <given value="Olga"/>
            </name>
            <name>
               <text value="Olga Bąbel"/>
            </name>
            <telecom>
               <system value="phone"/>
               <value value="+48 506 354 073"/>
            </telecom>
            <gender value="female"/>
            <birthDate value="1993-06-05"/>
            <address>
               <use value="home"/>
               <type value="physical"/>
               <line value="ul. Podleśna 13/38"/>
               <city value="Wołomin"/>
               <postalCode value="05-200"/>
               <country value="Poland"/>
            </address>
         </Patient>
      </resource>
   </entry>
   <entry>
      <fullUrl value="urn:uuid:425ee769-ed9a-4716-b8a6-41d1a9877cec"/>
      <resource>
         <PractitionerRole>
            <id value="425ee769-ed9a-4716-b8a6-41d1a9877cec"/>
            <meta>
               <profile value="http://hl7.eu/fhir/base/StructureDefinition/practitionerRole-eu"/>
            </meta>
            <text>
               <status value="generated"/>
               <div xmlns="http://www.w3.org/1999/xhtml">
                  <table class="hl7__ips">Provider Role Id 425ee769-ed9a-4716-b8a6-41d1a9877cec</table>
               </div>
            </text>
            <practitioner>
               <reference value="urn:uuid:5e9985ee-9987-4ec1-bd5d-7c533cba64d4"/>
            </practitioner>
            <organization>
               <reference value="urn:uuid:5bec286a-9f6a-47c4-b3b3-b6171ed2eaa6"/>
            </organization>
         </PractitionerRole>
      </resource>
   </entry>
   <entry>
      <fullUrl value="urn:uuid:5e9985ee-9987-4ec1-bd5d-7c533cba64d4"/>
      <resource>
         <Practitioner>
            <id value="5e9985ee-9987-4ec1-bd5d-7c533cba64d4"/>
            <meta>
               <profile value="http://hl7.eu/fhir/base/StructureDefinition/practitioner-eu"/>
            </meta>
            <text>
               <status value="generated"/>
               <div xmlns="http://www.w3.org/1999/xhtml">
                  <table class="hl7__ips">Dr. Hel Ping</table>
               </div>
            </text>
            <name>
               <family value="Ping"/>
               <given value="Hel"/>
               <prefix value="Dr."/>
            </name>
         </Practitioner>
      </resource>
   </entry>
   <entry>
      <fullUrl value="urn:uuid:5bec286a-9f6a-47c4-b3b3-b6171ed2eaa6"/>
      <resource>
         <Organization>
            <id value="5bec286a-9f6a-47c4-b3b3-b6171ed2eaa6"/>
            <meta>
               <profile value="http://hl7.eu/fhir/base/StructureDefinition/organization-eu"/>
            </meta>
            <text>
               <status value="generated"/>
               <div xmlns="http://www.w3.org/1999/xhtml">
                  <table class="hl7__ips">Miejski Samodzielny Publiczny Zakład Opieki Zdrowotnej Nr 1</table>
               </div>
            </text>
            <identifier>
               <system value="urn:oid:2.16.840.1.113883.2.51.999"/>
               <value value="86961609-39a6-48d7-b966-42d019ab82eb"/>
               <assigner>
                  <display value="HL7 Europe"/>
               </assigner>
            </identifier>
            <name value="Miejski Samodzielny Publiczny Zakład Opieki Zdrowotnej Nr 1"/>
            <address>
               <line value="Ignacego Prądzyńskiego 11"/>
               <city value="Wołomin"/>
               <postalCode value="05-200"/>
               <country value="Poland"/>
            </address>
         </Organization>
      </resource>
   </entry>
   <entry>
      <fullUrl value="urn:uuid:496e72c8-77d3-4eb0-8a8c-152966785e8d"/>
      <resource>
         <Condition>
            <id value="496e72c8-77d3-4eb0-8a8c-152966785e8d"/>
            <meta>
               <profile value="http://hl7.org/fhir/uv/ips/StructureDefinition/Condition-uv-ips"/>
            </meta>
            <text>
               <status value="generated"/>
               <div xmlns="http://www.w3.org/1999/xhtml">
                  <table class="hl7__ips">
                     <tr>
                        <td>Prediabetes</td>
                        <td>
                           <span class="nb">14-Apr-2024</span>
                        </td>
                        <td>active</td>
                     </tr>
                  </table>
               </div>
            </text>
            <category>
               <coding>
                  <system value="http://terminology.hl7.org/CodeSystem/condition-category"/>
                  <code value="problem-list-item"/>
                  <display value="Problem List Item"/>
               </coding>
            </category>
            <code>
               <coding>
                  <system value="http://snomed.info/sct"/>
                  <code value="15777000"/>
                  <display value="Prediabetes (disorder)"/>
               </coding>
               <text value="Prediabetes"/>
            </code>
            <subject>
               <reference value="urn:uuid:"/>
               <display value="Olga Bąbel"/>
            </subject>
            <onsetDateTime value="2024-04-14"/>
            <asserter>
               <reference value="urn:uuid:"/>
               <display value="Miejski Samodzielny Publiczny Zakład Opieki Zdrowotnej Nr 1"/>
            </asserter>
         </Condition>
      </resource>
   </entry>
   <entry>
      <fullUrl value="urn:uuid:fe53e9bd-e83c-4be9-95f0-d248a7baddff"/>
      <resource>
         <Condition>
            <id value="fe53e9bd-e83c-4be9-95f0-d248a7baddff"/>
            <meta>
               <profile value="http://hl7.org/fhir/uv/ips/StructureDefinition/Condition-uv-ips"/>
            </meta>
            <text>
               <status value="generated"/>
               <div xmlns="http://www.w3.org/1999/xhtml">
                  <table class="hl7__ips">
                     <tr>
                        <td>Anemia</td>
                        <td>
                           <span class="nb">14-Apr-2024</span>
                        </td>
                        <td>active</td>
                     </tr>
                  </table>
               </div>
            </text>
            <category>
               <coding>
                  <system value="http://terminology.hl7.org/CodeSystem/condition-category"/>
                  <code value="problem-list-item"/>
                  <display value="Problem List Item"/>
               </coding>
            </category>
            <code>
               <coding>
                  <system value="http://snomed.info/sct"/>
                  <code value="271737000"/>
                  <display value="Anemia (disorder)"/>
               </coding>
               <text value="Anemia"/>
            </code>
            <subject>
               <reference value="urn:uuid:"/>
               <display value="Olga Bąbel"/>
            </subject>
            <onsetDateTime value="2024-04-14"/>
            <asserter>
               <reference value="urn:uuid:"/>
               <display value="Miejski Samodzielny Publiczny Zakład Opieki Zdrowotnej Nr 1"/>
            </asserter>
         </Condition>
      </resource>
   </entry>
   <entry>
      <fullUrl value="urn:uuid:7a8a6bb7-c803-47ad-a927-2c8b773b41a2"/>
      <resource>
         <Condition>
            <id value="7a8a6bb7-c803-47ad-a927-2c8b773b41a2"/>
            <meta>
               <profile value="http://hl7.org/fhir/uv/ips/StructureDefinition/Condition-uv-ips"/>
            </meta>
            <text>
               <status value="generated"/>
               <div xmlns="http://www.w3.org/1999/xhtml">
                  <table class="hl7__ips">
                     <tr>
                        <td>
                           <span class="grayedout">Acute bronchitis</span>
                        </td>
                        <td>
                           <span class="nb">24-Dec-2021 - 10-Jan-2022</span>
                        </td>
                        <td>
                           <span class="grayedout">inactive</span>
                        </td>
                     </tr>
                  </table>
               </div>
            </text>
            <category>
               <coding>
                  <system value="http://terminology.hl7.org/CodeSystem/condition-category"/>
                  <code value="problem-list-item"/>
                  <display value="Problem List Item"/>
               </coding>
            </category>
            <code>
               <coding>
                  <system value="http://snomed.info/sct"/>
                  <code value="10509002"/>
                  <display value="Acute bronchitis (disorder)"/>
               </coding>
               <text value="Acute bronchitis"/>
            </code>
            <subject>
               <reference value="urn:uuid:"/>
               <display value="Olga Bąbel"/>
            </subject>
            <onsetDateTime value="2021-12-24"/>
            <abatementDateTime value="2022-01-10"/>
            <asserter>
               <reference value="urn:uuid:"/>
               <display value="Miejski Samodzielny Publiczny Zakład Opieki Zdrowotnej Nr 1"/>
            </asserter>
         </Condition>
      </resource>
   </entry>
   <entry>
      <fullUrl value="urn:uuid:da1e8e37-b376-4933-808a-18df28c32dd4"/>
      <resource>
         <Condition>
            <id value="da1e8e37-b376-4933-808a-18df28c32dd4"/>
            <meta>
               <profile value="http://hl7.org/fhir/uv/ips/StructureDefinition/Condition-uv-ips"/>
            </meta>
            <text>
               <status value="generated"/>
               <div xmlns="http://www.w3.org/1999/xhtml">
                  <table class="hl7__ips">
                     <tr>
                        <td>
                           <span class="grayedout">Viral sinusitis</span>
                        </td>
                        <td>
                           <span class="nb">17-May-2021 - 25-May-2021</span>
                        </td>
                        <td>
                           <span class="grayedout">inactive</span>
                        </td>
                     </tr>
                  </table>
               </div>
            </text>
            <category>
               <coding>
                  <system value="http://terminology.hl7.org/CodeSystem/condition-category"/>
                  <code value="problem-list-item"/>
                  <display value="Problem List Item"/>
               </coding>
            </category>
            <code>
               <coding>
                  <system value="http://snomed.info/sct"/>
                  <code value="444814009"/>
                  <display value="Viral sinusitis (disorder)"/>
               </coding>
               <text value="Viral sinusitis"/>
            </code>
            <subject>
               <reference value="urn:uuid:"/>
               <display value="Olga Bąbel"/>
            </subject>
            <onsetDateTime value="2021-05-17"/>
            <abatementDateTime value="2021-05-25"/>
            <asserter>
               <reference value="urn:uuid:"/>
               <display value="Miejski Samodzielny Publiczny Zakład Opieki Zdrowotnej Nr 1"/>
            </asserter>
         </Condition>
      </resource>
   </entry>
   <entry>
      <fullUrl value="urn:uuid:d59dc4ba-e674-4593-8f04-93ebf37fe57d"/>
      <resource>
         <Medication>
            <id value="d59dc4ba-e674-4593-8f04-93ebf37fe57d"/>
            <meta>
               <profile value="http://hl7.eu/fhir/eps/StructureDefinition/Medication-eu-eps"/>
            </meta>
            <text>
               <status value="generated"/>
               <div xmlns="http://www.w3.org/1999/xhtml">Acetaminophen 300 mg and codeine phosphate 15 mg oral tablet, Oral tablet</div>
            </text>
            <code>
               <coding>
                  <system value="http://www.nlm.nih.gov/research/umls/rxnorm"/>
                  <code value="993770"/>
                  <display value="acetaminophen 300 MG / codeine phosphate 15 MG Oral Tablet"/>
               </coding>
               <coding>
                  <system value="http://snomed.info/sct"/>
                  <code value="377261001"/>
                  <display value="Product containing precisely codeine phosphate 15 milligram and paracetamol 300 milligram/1 each conventional release oral tablet (clinical drug)"/>
               </coding>
               <text value="Acetaminophen 300 mg and codeine phosphate 15 mg oral tablet"/>
            </code>
            <form>
               <coding>
                  <system value="http://snomed.info/sct"/>
                  <code value="421026006"/>
                  <display value="Oral tablet"/>
               </coding>
            </form>
            <ingredient>
               <itemCodeableConcept>
                  <coding>
                     <system value="http://snomed.info/sct"/>
                     <code value="261000"/>
                     <display value="Codeine phosphate"/>
                  </coding>
               </itemCodeableConcept>
               <isActive value="true"/>
            </ingredient>
         </Medication>
      </resource>
   </entry>
   <entry>
      <fullUrl value="urn:uuid:b559d7ca-ee78-49d2-bbfd-9db4c1c00522"/>
      <resource>
         <MedicationStatement>
            <id value="b559d7ca-ee78-49d2-bbfd-9db4c1c00522"/>
            <meta>
               <profile value="http://hl7.eu/fhir/eps/StructureDefinition/MedicationStatement-eu-eps"/>
            </meta>
            <text>
               <status value="generated"/>
               <div xmlns="http://www.w3.org/1999/xhtml">
                  <table class="hl7__ips">
                     <tr>
                        <td>Acetaminophen 300 mg and codeine phosphate 15 mg oral tablet</td>
                        <td>
                           <span class="nb">2025-04-20</span>
                        </td>
                        <td>Oral tablet</td>
                        <td>1 tablet (300 mg / 15 mg) every 4 hours as needed</td>
                        <td/>
                     </tr>
                  </table>
               </div>
            </text>
            <status value="active"/>
            <medicationReference>
               <reference value="urn:uuid:d59dc4ba-e674-4593-8f04-93ebf37fe57d"/>
               <display value="Acetaminophen 300 mg and codeine phosphate 15 mg oral tablet"/>
            </medicationReference>
            <subject>
               <reference value="urn:uuid:8b60c406-f262-47ce-80bf-7382f7b80766"/>
               <display value="Olga Bąbel"/>
            </subject>
            <effectivePeriod>
               <start value="2025-04-20"/>
            </effectivePeriod>
            <dosage>
               <text value="1 tablet (300 mg / 15 mg) every 4 hours as needed"/>
               <timing>
                  <repeat>
                     <frequency value="1"/>
                     <period value="4"/>
                     <periodUnit value="h"/>
                  </repeat>
               </timing>
               <asNeededBoolean value="true"/>
               <doseAndRate>
                  <doseQuantity>
                     <value value="1"/>
                     <unit value="{tbl}"/>
                     <system value="$ucum"/>
                     <code value="{tbl}"/>
                  </doseQuantity>
               </doseAndRate>
            </dosage>
         </MedicationStatement>
      </resource>
   </entry>
   <entry>
      <fullUrl value="urn:uuid:158d1120-f342-43fb-bb21-5aee23ea8615"/>
      <resource>
         <Medication>
            <id value="158d1120-f342-43fb-bb21-5aee23ea8615"/>
            <meta>
               <profile value="http://hl7.eu/fhir/eps/StructureDefinition/Medication-eu-eps"/>
            </meta>
            <text>
               <status value="generated"/>
               <div xmlns="http://www.w3.org/1999/xhtml">12 HR Hydrocodone Bitartrate 10 MG Extended Release Oral Capsule,</div>
            </text>
            <code>
               <coding>
                  <system value="http://www.nlm.nih.gov/research/umls/rxnorm"/>
                  <code value="1860491"/>
                  <display value="12 HR Hydrocodone Bitartrate 10 MG Extended Release Oral Capsule"/>
               </coding>
               <text value="12 HR Hydrocodone Bitartrate 10 MG Extended Release Oral Capsule"/>
            </code>
         </Medication>
      </resource>
   </entry>
   <entry>
      <fullUrl value="urn:uuid:5feb9fe1-4098-4be7-b2d7-94b3d3d08531"/>
      <resource>
         <MedicationStatement>
            <id value="5feb9fe1-4098-4be7-b2d7-94b3d3d08531"/>
            <meta>
               <profile value="http://hl7.eu/fhir/eps/StructureDefinition/MedicationStatement-eu-eps"/>
            </meta>
            <text>
               <status value="generated"/>
               <div xmlns="http://www.w3.org/1999/xhtml">
                  <table class="hl7__ips">
                     <tr>
                        <td>12 HR Hydrocodone Bitartrate 10 MG Extended Release Oral Capsule</td>
                        <td>
                           <span class="nb">2025-04-20</span>
                        </td>
                        <td/>
                        <td>10 mg every 12 hours</td>
                        <td/>
                     </tr>
                  </table>
               </div>
            </text>
            <status value="active"/>
            <medicationReference>
               <reference value="urn:uuid:158d1120-f342-43fb-bb21-5aee23ea8615"/>
               <display value="12 HR Hydrocodone Bitartrate 10 MG Extended Release Oral Capsule"/>
            </medicationReference>
            <subject>
               <reference value="urn:uuid:8b60c406-f262-47ce-80bf-7382f7b80766"/>
               <display value="Olga Bąbel"/>
            </subject>
            <effectivePeriod>
               <start value="2025-04-20"/>
            </effectivePeriod>
            <dosage>
               <text value="10 mg every 12 hours"/>
               <timing>
                  <repeat>
                     <frequency value="2"/>
                     <period value="1"/>
                     <periodUnit value="d"/>
                  </repeat>
               </timing>
               <asNeededBoolean value="false"/>
               <doseAndRate>
                  <doseQuantity>
                     <value value="10"/>
                     <unit value="mg"/>
                     <system value="$ucum"/>
                     <code value="mg"/>
                  </doseQuantity>
               </doseAndRate>
            </dosage>
         </MedicationStatement>
      </resource>
   </entry>
   <entry>
      <fullUrl value="urn:uuid:4f4ebb8f-d32c-46f8-9549-765466a547bd"/>
      <resource>
         <Medication>
            <id value="4f4ebb8f-d32c-46f8-9549-765466a547bd"/>
            <meta>
               <profile value="http://hl7.eu/fhir/eps/StructureDefinition/Medication-eu-eps"/>
            </meta>
            <text>
               <status value="generated"/>
               <div xmlns="http://www.w3.org/1999/xhtml">Vitamin B12 5 MG/ML Injectable Solution,</div>
            </text>
            <code>
               <coding>
                  <system value="http://www.nlm.nih.gov/research/umls/rxnorm"/>
                  <code value="2001499"/>
                  <display value="Vitamin B12 5 MG/ML Injectable Solution"/>
               </coding>
               <text value="Vitamin B12 5 MG/ML Injectable Solution"/>
            </code>
         </Medication>
      </resource>
   </entry>
   <entry>
      <fullUrl value="urn:uuid:28e64dce-3142-4dcc-be1e-9ff3ae0d02f1"/>
      <resource>
         <MedicationStatement>
            <id value="28e64dce-3142-4dcc-be1e-9ff3ae0d02f1"/>
            <meta>
               <profile value="http://hl7.eu/fhir/eps/StructureDefinition/MedicationStatement-eu-eps"/>
            </meta>
            <text>
               <status value="generated"/>
               <div xmlns="http://www.w3.org/1999/xhtml">
                  <table class="hl7__ips">
                     <tr>
                        <td>Vitamin B12 5 MG/ML Injectable Solution</td>
                        <td>
                           <span class="nb">2024-04-21</span>
                        </td>
                        <td/>
                        <td>1 mL (5 mg) intramuscularly once weekly</td>
                        <td/>
                     </tr>
                  </table>
               </div>
            </text>
            <status value="active"/>
            <medicationReference>
               <reference value="urn:uuid:4f4ebb8f-d32c-46f8-9549-765466a547bd"/>
               <display value="Vitamin B12 5 MG/ML Injectable Solution"/>
            </medicationReference>
            <subject>
               <reference value="urn:uuid:8b60c406-f262-47ce-80bf-7382f7b80766"/>
               <display value="Olga Bąbel"/>
            </subject>
            <effectivePeriod>
               <start value="2024-04-21"/>
            </effectivePeriod>
            <dosage>
               <text value="1 mL (5 mg) intramuscularly once weekly"/>
               <timing>
                  <repeat>
                     <frequency value="1"/>
                     <period value="1"/>
                     <periodUnit value="wk"/>
                  </repeat>
               </timing>
               <asNeededBoolean value="false"/>
               <doseAndRate>
                  <doseQuantity>
                     <value value="1"/>
                     <unit value="mL"/>
                     <system value="$ucum"/>
                     <code value="mL"/>
                  </doseQuantity>
               </doseAndRate>
            </dosage>
         </MedicationStatement>
      </resource>
   </entry>
   <entry>
      <fullUrl value="urn:uuid:93df8815-c637-45af-a84d-79f53abf9f9e"/>
      <resource>
         <Immunization>
            <id value="93df8815-c637-45af-a84d-79f53abf9f9e"/>
            <meta>
               <profile value="http://hl7.org/fhir/uv/ips/StructureDefinition/Immunization-uv-ips"/>
            </meta>
            <text>
               <status value="generated"/>
               <div xmlns="http://www.w3.org/1999/xhtml">
                  <table class="hl7__ips">
                     <tr>
                        <td>Influenza virus antigen only vaccine product</td>
                        <td>
                           <span class="nb">20-Apr-2025</span>
                        </td>
                     </tr>
                  </table>
               </div>
            </text>
            <status value="completed"/>
            <vaccineCode>
               <coding>
                  <system value="http://snomed.info/sct"/>
                  <code value="1181000221105"/>
                  <display value="Vaccine product containing Influenza virus antigen"/>
               </coding>
               <coding>
                  <system value="http://www.whocc.no/atc"/>
                  <code value="J07BB02"/>
                  <display value="Influenza, inactivated, split virus"/>
               </coding>
               <coding>
                  <system value="http://hl7.org/fhir/sid/cvx"/>
                  <code value="140"/>
                  <display value="Influenza  seasonal  injectable  preservative free"/>
               </coding>
               <text value="Influenza virus antigen only vaccine product"/>
            </vaccineCode>
            <patient>
               <reference value="urn:uuid:8b60c406-f262-47ce-80bf-7382f7b80766"/>
               <display value="Olga Bąbel"/>
            </patient>
            <occurrenceDateTime value="2025-04-20"/>
            <lotNumber value="BK-sELXghq"/>
            <expirationDate value="2026-03-15"/>
            <site>
               <coding>
                  <system value="http://snomed.info/sct"/>
                  <code value="244979005"/>
                  <display value="Entire muscle of upper arm"/>
               </coding>
               <text value="Entire muscle of upper arm"/>
            </site>
            <route>
               <coding>
                  <system value="http://snomed.info/sct"/>
                  <code value="78421000"/>
                  <display value="Intramuscular route"/>
               </coding>
               <text value="Intramuscular route"/>
            </route>
         </Immunization>
      </resource>
   </entry>
   <entry>
      <fullUrl value="urn:uuid:9f080799-c254-44b0-9f32-da2f857af554"/>
      <resource>
         <Immunization>
            <id value="9f080799-c254-44b0-9f32-da2f857af554"/>
            <meta>
               <profile value="http://hl7.org/fhir/uv/ips/StructureDefinition/Immunization-uv-ips"/>
            </meta>
            <text>
               <status value="generated"/>
               <div xmlns="http://www.w3.org/1999/xhtml">
                  <table class="hl7__ips">
                     <tr>
                        <td>Clostridium tetani toxoid antigen adsorbed only vaccine product</td>
                        <td>
                           <span class="nb">02-Jan-2022</span>
                        </td>
                     </tr>
                  </table>
               </div>
            </text>
            <status value="completed"/>
            <vaccineCode>
               <coding>
                  <system value="http://snomed.info/sct"/>
                  <code value="777725002"/>
                  <display value="Vaccine product containing only Clostridium tetani toxoid antigen adsorbed"/>
               </coding>
               <coding>
                  <system value="http://www.whocc.no/atc"/>
                  <code value="J07AM51"/>
                  <display value="Diphtheria-tetanus vaccines, adult type"/>
               </coding>
               <coding>
                  <system value="http://hl7.org/fhir/sid/cvx"/>
                  <code value="113"/>
                  <display value="Td (adult)  5 Lf tetanus toxoid  preservative free  adsorbed"/>
               </coding>
               <text value="Clostridium tetani toxoid antigen adsorbed only vaccine product"/>
            </vaccineCode>
            <patient>
               <reference value="urn:uuid:8b60c406-f262-47ce-80bf-7382f7b80766"/>
               <display value="Olga Bąbel"/>
            </patient>
            <occurrenceDateTime value="2022-01-02"/>
            <lotNumber value="CR-Dwpw6z"/>
            <expirationDate value="2022-10-25"/>
            <site>
               <coding>
                  <system value="http://snomed.info/sct"/>
                  <code value="244979005"/>
                  <display value="Entire muscle of upper arm"/>
               </coding>
               <text value="Entire muscle of upper arm"/>
            </site>
            <route>
               <coding>
                  <system value="http://snomed.info/sct"/>
                  <code value="78421000"/>
                  <display value="Intramuscular route"/>
               </coding>
               <text value="Intramuscular route"/>
            </route>
         </Immunization>
      </resource>
   </entry>
   <entry>
      <fullUrl value="urn:uuid:5f1d866e-6430-443b-b21d-f89988b0b057"/>
      <resource>
         <Immunization>
            <id value="5f1d866e-6430-443b-b21d-f89988b0b057"/>
            <meta>
               <profile value="http://hl7.org/fhir/uv/ips/StructureDefinition/Immunization-uv-ips"/>
            </meta>
            <text>
               <status value="generated"/>
               <div xmlns="http://www.w3.org/1999/xhtml">
                  <table class="hl7__ips">
                     <tr>
                        <td>SARS-CoV-2 mRNA vaccine</td>
                        <td>
                           <span class="nb">18-Apr-2021</span>
                        </td>
                     </tr>
                  </table>
               </div>
            </text>
            <status value="completed"/>
            <vaccineCode>
               <coding>
                  <system value="http://snomed.info/sct"/>
                  <code value="1119349007"/>
                  <display value="Vaccine product containing SARS-CoV-2 mRNA"/>
               </coding>
               <coding>
                  <system value="http://www.whocc.no/atc"/>
                  <code value="J07BX03"/>
                  <display value="COVID-19 mRNA vaccines"/>
               </coding>
               <coding>
                  <system value="http://hl7.org/fhir/sid/cvx"/>
                  <code value="208"/>
                  <display value="SARS-COV-2 (COVID-19) vaccine  mRNA  spike protein  LNP  preservative free  30 mcg/0.3mL dose"/>
               </coding>
               <text value="SARS-CoV-2 mRNA vaccine"/>
            </vaccineCode>
            <patient>
               <reference value="urn:uuid:8b60c406-f262-47ce-80bf-7382f7b80766"/>
               <display value="Olga Bąbel"/>
            </patient>
            <occurrenceDateTime value="2021-04-18"/>
            <lotNumber value="ES-27L9sc1"/>
            <expirationDate value="2022-03-02"/>
            <site>
               <coding>
                  <system value="http://snomed.info/sct"/>
                  <code value="244979005"/>
                  <display value="Entire muscle of upper arm"/>
               </coding>
               <text value="Entire muscle of upper arm"/>
            </site>
            <route>
               <coding>
                  <system value="http://snomed.info/sct"/>
                  <code value="78421000"/>
                  <display value="Intramuscular route"/>
               </coding>
               <text value="Intramuscular route"/>
            </route>
         </Immunization>
      </resource>
   </entry>
   <entry>
      <fullUrl value="urn:uuid:73a25969-1c35-4d8a-abae-8031a857fa85"/>
      <resource>
         <Procedure>
            <id value="73a25969-1c35-4d8a-abae-8031a857fa85"/>
            <meta>
               <profile value="http://hl7.org/fhir/uv/ips/StructureDefinition/Procedure-uv-ips"/>
            </meta>
            <text>
               <status value="generated"/>
               <div xmlns="http://www.w3.org/1999/xhtml">
                  <table class="hl7__ips">
                     <tr>
                        <td>Cesarean section</td>
                        <td>
                           <span class="nb">03-Mar-2024</span>
                        </td>
                        <td>Normal pregnancy</td>
                     </tr>
                  </table>
               </div>
            </text>
            <status value="completed"/>
            <code>
               <coding>
                  <system value="http://snomed.info/sct"/>
                  <code value="11466000"/>
                  <display value="Cesarean section"/>
               </coding>
               <text value="Cesarean section"/>
            </code>
            <subject>
               <reference value="urn:uuid:"/>
               <display value="Olga Bąbel"/>
            </subject>
            <performedDateTime value="2024-03-03"/>
            <reasonCode>
               <coding>
                  <system value="http://snomed.info/sct"/>
                  <code value="72892002"/>
                  <display value="Normal pregnancy"/>
               </coding>
            </reasonCode>
         </Procedure>
      </resource>
   </entry>
   <entry>
      <fullUrl value="urn:uuid:6397f9a3-16b1-4cf4-b42b-fcbacc176b92"/>
      <resource>
         <Procedure>
            <id value="6397f9a3-16b1-4cf4-b42b-fcbacc176b92"/>
            <meta>
               <profile value="http://hl7.org/fhir/uv/ips/StructureDefinition/Procedure-uv-ips"/>
            </meta>
            <text>
               <status value="generated"/>
               <div xmlns="http://www.w3.org/1999/xhtml">
                  <table class="hl7__ips">
                     <tr>
                        <td>Epidural anesthesia</td>
                        <td>
                           <span class="nb">03-Mar-2024</span>
                        </td>
                        <td>Normal pregnancy</td>
                     </tr>
                  </table>
               </div>
            </text>
            <status value="completed"/>
            <code>
               <coding>
                  <system value="http://snomed.info/sct"/>
                  <code value="18946005"/>
                  <display value="Epidural anesthesia"/>
               </coding>
               <text value="Epidural anesthesia"/>
            </code>
            <subject>
               <reference value="urn:uuid:"/>
               <display value="Olga Bąbel"/>
            </subject>
            <performedDateTime value="2024-03-03"/>
            <reasonCode>
               <coding>
                  <system value="http://snomed.info/sct"/>
                  <code value="72892002"/>
                  <display value="Normal pregnancy"/>
               </coding>
            </reasonCode>
         </Procedure>
      </resource>
   </entry>
   <entry>
      <fullUrl value="urn:uuid:b081f912-b702-4862-a278-951caf95dfd4"/>
      <resource>
         <Procedure>
            <id value="b081f912-b702-4862-a278-951caf95dfd4"/>
            <meta>
               <profile value="http://hl7.org/fhir/uv/ips/StructureDefinition/Procedure-uv-ips"/>
            </meta>
            <text>
               <status value="generated"/>
               <div xmlns="http://www.w3.org/1999/xhtml">
                  <table class="hl7__ips">
                     <tr>
                        <td>Parturition</td>
                        <td>
                           <span class="nb">13-Sep-2015</span>
                        </td>
                        <td>Normal pregnancy</td>
                     </tr>
                  </table>
               </div>
            </text>
            <status value="completed"/>
            <code>
               <coding>
                  <system value="http://snomed.info/sct"/>
                  <code value="66348005"/>
                  <display value="Childbirth"/>
               </coding>
               <text value="Parturition"/>
            </code>
            <subject>
               <reference value="urn:uuid:"/>
               <display value="Olga Bąbel"/>
            </subject>
            <performedDateTime value="2015-09-13"/>
            <reasonCode>
               <coding>
                  <system value="http://snomed.info/sct"/>
                  <code value="72892002"/>
                  <display value="Normal pregnancy"/>
               </coding>
            </reasonCode>
         </Procedure>
      </resource>
   </entry>
   <entry>
      <fullUrl value="urn:uuid:ccb85aea-2b51-461c-a583-d603c2f905fb"/>
      <resource>
         <AllergyIntolerance>
            <id value="ccb85aea-2b51-461c-a583-d603c2f905fb"/>
            <meta>
               <profile value="http://hl7.eu/fhir/eps/StructureDefinition/allergyIntolerance-eu-eps"/>
            </meta>
            <text>
               <status value="generated"/>
               <div xmlns="http://www.w3.org/1999/xhtml">
                  <table class="hl7__ips">
                     <tr>
                        <td>No known allergies or intolerances</td>
                     </tr>
                  </table>
               </div>
            </text>
            <clinicalStatus>
               <coding>
                  <system value="http://terminology.hl7.org/CodeSystem/allergyintolerance-clinical"/>
                  <code value="active"/>
               </coding>
            </clinicalStatus>
            <verificationStatus>
               <coding>
                  <system value="http://terminology.hl7.org/CodeSystem/allergyintolerance-verification"/>
                  <code value="confirmed"/>
               </coding>
            </verificationStatus>
            <code>
               <coding>
                  <system value="http://snomed.info/sct"/>
                  <code value="716186003"/>
                  <display value="No known allergy (situation)"/>
               </coding>
            </code>
            <patient>
               <reference value="urn:uuid:8b60c406-f262-47ce-80bf-7382f7b80766"/>
               <display value="Olga Bąbel"/>
            </patient>
            <onsetDateTime>
               <extension url="http://hl7.org/fhir/StructureDefinition/data-absent-reason">
                  <valueCode value="unknown"/>
               </extension>
            </onsetDateTime>
         </AllergyIntolerance>
      </resource>
   </entry>
   <entry>
      <fullUrl value="urn:uuid:a91e40f1-2426-4319-aca1-2b3b811cc391"/>
      <resource>
         <CarePlan>
            <id value="a91e40f1-2426-4319-aca1-2b3b811cc391"/>
            <text>
               <status value="generated"/>
               <div xmlns="http://www.w3.org/1999/xhtml">
                  <table class="hl7__ips">
                     <tr>
                        <th>Active Planned Care / Goals</th>
                        <th>Date</th>
                        <th>Reason</th>
                     </tr>
                     <tr>
                        <td>Diabetes self management plan</td>
                        <td>
                           <span class="nb">14-Apr-2024</span>
                        </td>
                        <td>Prediabetes</td>
                     </tr>
                     <tr>
                        <td>
                           <ul>
                              <li>Patient will implement lifestyle modifications to reduce risk of progression to diabetes, including dietary changes, increased physical activity, and regular blood glucose monitoring.</li>
                           </ul>
                        </td>
                        <td/>
                        <td/>
                     </tr>
                  </table>
               </div>
            </text>
            <status value="active"/>
            <intent value="plan"/>
            <category>
               <coding>
                  <system value="http://terminology.hl7.org/CodeSystem/care-plan-category"/>
                  <code value="assess-plan"/>
                  <display value="Assessment and Plan"/>
               </coding>
            </category>
            <subject>
               <reference value="urn:uuid:8b60c406-f262-47ce-80bf-7382f7b80766"/>
               <display value="Olga Bąbel"/>
            </subject>
            <period>
               <start value="2024-04-14"/>
            </period>
            <goal>
               <reference value="urn:uuid:ce0d08f1-9b57-4da7-b167-62cd6be30bf4"/>
            </goal>
            <activity>
               <detail>
                  <kind value="Appointment"/>
                  <code>
                     <coding>
                        <system value="http://snomed.info/sct"/>
                        <code value="698360004"/>
                        <display value="Diabetes self management plan (qualifier value)"/>
                     </coding>
                  </code>
                  <reasonCode>
                     <coding>
                        <system value="http://snomed.info/sct"/>
                        <code value="15777000"/>
                        <display value="Prediabetes"/>
                     </coding>
                  </reasonCode>
                  <status value="unknown"/>
                  <description value="Diabetes self management plan"/>
               </detail>
            </activity>
         </CarePlan>
      </resource>
   </entry>
   <entry>
      <fullUrl value="urn:uuid:f20971eb-9dd2-43db-94af-2cf6f2644afc"/>
      <resource>
         <CarePlan>
            <id value="f20971eb-9dd2-43db-94af-2cf6f2644afc"/>
            <text>
               <status value="generated"/>
               <div xmlns="http://www.w3.org/1999/xhtml">
                  <table class="hl7__ips">
                     <tr>
                        <th>Active Planned Care / Goals</th>
                        <th>Date</th>
                        <th>Reason</th>
                     </tr>
                     <tr>
                        <td>Therapy</td>
                        <td>
                           <span class="nb">18-Apr-2014</span>
                        </td>
                        <td>-</td>
                     </tr>
                  </table>
               </div>
            </text>
            <status value="active"/>
            <intent value="plan"/>
            <category>
               <coding>
                  <system value="http://terminology.hl7.org/CodeSystem/care-plan-category"/>
                  <code value="assess-plan"/>
                  <display value="Assessment and Plan"/>
               </coding>
            </category>
            <subject>
               <reference value="urn:uuid:8b60c406-f262-47ce-80bf-7382f7b80766"/>
               <display value="Olga Bąbel"/>
            </subject>
            <period>
               <start value="2014-04-18"/>
            </period>
            <activity>
               <detail>
                  <kind value="Appointment"/>
                  <code>
                     <coding>
                        <system value="http://snomed.info/sct"/>
                        <code value="276239002"/>
                        <display value="Therapy (regime/therapy)"/>
                     </coding>
                  </code>
                  <status value="unknown"/>
                  <description value="Therapy"/>
               </detail>
            </activity>
         </CarePlan>
      </resource>
   </entry>
   <entry>
      <fullUrl value="urn:uuid:3656198e-2d6c-4651-bda8-a6473a9e3848"/>
      <resource>
         <Observation>
            <id value="3656198e-2d6c-4651-bda8-a6473a9e3848"/>
            <meta>
               <profile value="http://hl7.org/fhir/StructureDefinition/vitalsigns"/>
            </meta>
            <text>
               <status value="generated"/>
               <div xmlns="http://www.w3.org/1999/xhtml">
                  <table class="hl7__ips">
                     <tr>
                        <th>Vital Sign</th>
                        <th>Date</th>
                        <th>Measurement</th>
                     </tr>
                     <tr>
                        <td>Body Height</td>
                        <td>20-Apr-2025</td>
                        <td>168.3 cm</td>
                     </tr>
                  </table>
               </div>
            </text>
            <status value="final"/>
            <category>
               <coding>
                  <system value="http://terminology.hl7.org/CodeSystem/observation-category"/>
                  <code value="vital-signs"/>
                  <display value="Vital Signs"/>
               </coding>
            </category>
            <code>
               <coding>
                  <system value="http://loinc.org"/>
                  <code value="$8302-2"/>
                  <display value="Body Height"/>
               </coding>
            </code>
            <subject>
               <reference value="urn:uuid:8b60c406-f262-47ce-80bf-7382f7b80766"/>
               <display value="Olga Bąbel"/>
            </subject>
            <effectiveDateTime value="2025-04-20"/>
            <valueQuantity>
               <value value="168.3"/>
               <unit value="cm"/>
               <code value="cm"/>
            </valueQuantity>
         </Observation>
      </resource>
   </entry>
   <entry>
      <fullUrl value="urn:uuid:fa4b081e-2c75-4b64-8080-e742fc7255f5"/>
      <resource>
         <Observation>
            <id value="fa4b081e-2c75-4b64-8080-e742fc7255f5"/>
            <meta>
               <profile value="http://hl7.org/fhir/StructureDefinition/vitalsigns"/>
            </meta>
            <text>
               <status value="generated"/>
               <div xmlns="http://www.w3.org/1999/xhtml">
                  <table class="hl7__ips">
                     <tr>
                        <th>Vital Sign</th>
                        <th>Date</th>
                        <th>Measurement</th>
                     </tr>
                     <tr>
                        <td>Pain severity - 0-10 verbal numeric rating [Score] - Reported</td>
                        <td>20-Apr-2025</td>
                        <td>2 {score}</td>
                     </tr>
                  </table>
               </div>
            </text>
            <status value="final"/>
            <category>
               <coding>
                  <system value="http://terminology.hl7.org/CodeSystem/observation-category"/>
                  <code value="vital-signs"/>
                  <display value="Vital Signs"/>
               </coding>
            </category>
            <code>
               <coding>
                  <system value="http://loinc.org"/>
                  <code value="$72514-3"/>
                  <display value="Pain severity - 0-10 verbal numeric rating [Score] - Reported"/>
               </coding>
            </code>
            <subject>
               <reference value="urn:uuid:8b60c406-f262-47ce-80bf-7382f7b80766"/>
               <display value="Olga Bąbel"/>
            </subject>
            <effectiveDateTime value="2025-04-20"/>
            <valueQuantity>
               <value value="2"/>
               <unit value="{score}"/>
               <code value="{score}"/>
            </valueQuantity>
         </Observation>
      </resource>
   </entry>
   <entry>
      <fullUrl value="urn:uuid:dd72cd9b-b0f8-4bac-8af4-07b29249883c"/>
      <resource>
         <Observation>
            <id value="dd72cd9b-b0f8-4bac-8af4-07b29249883c"/>
            <meta>
               <profile value="http://hl7.org/fhir/StructureDefinition/vitalsigns"/>
            </meta>
            <text>
               <status value="generated"/>
               <div xmlns="http://www.w3.org/1999/xhtml">
                  <table class="hl7__ips">
                     <tr>
                        <th>Vital Sign</th>
                        <th>Date</th>
                        <th>Measurement</th>
                     </tr>
                     <tr>
                        <td>Body Weight</td>
                        <td>20-Apr-2025</td>
                        <td>85 kg</td>
                     </tr>
                  </table>
               </div>
            </text>
            <status value="final"/>
            <category>
               <coding>
                  <system value="http://terminology.hl7.org/CodeSystem/observation-category"/>
                  <code value="vital-signs"/>
                  <display value="Vital Signs"/>
               </coding>
            </category>
            <code>
               <coding>
                  <system value="http://loinc.org"/>
                  <code value="$29463-7"/>
                  <display value="Body Weight"/>
               </coding>
            </code>
            <subject>
               <reference value="urn:uuid:8b60c406-f262-47ce-80bf-7382f7b80766"/>
               <display value="Olga Bąbel"/>
            </subject>
            <effectiveDateTime value="2025-04-20"/>
            <valueQuantity>
               <value value="85"/>
               <unit value="kg"/>
               <code value="kg"/>
            </valueQuantity>
         </Observation>
      </resource>
   </entry>
   <entry>
      <fullUrl value="urn:uuid:e2b3c803-4e0e-47e0-9f23-a52ab37fa0c2"/>
      <resource>
         <Observation>
            <id value="e2b3c803-4e0e-47e0-9f23-a52ab37fa0c2"/>
            <meta>
               <profile value="http://hl7.org/fhir/StructureDefinition/vitalsigns"/>
            </meta>
            <text>
               <status value="generated"/>
               <div xmlns="http://www.w3.org/1999/xhtml">
                  <table class="hl7__ips">
                     <tr>
                        <th>Vital Sign</th>
                        <th>Date</th>
                        <th>Measurement</th>
                     </tr>
                     <tr>
                        <td>Body mass index (BMI) [Ratio]</td>
                        <td>20-Apr-2025</td>
                        <td>30 kg/m2</td>
                     </tr>
                  </table>
               </div>
            </text>
            <status value="final"/>
            <category>
               <coding>
                  <system value="http://terminology.hl7.org/CodeSystem/observation-category"/>
                  <code value="vital-signs"/>
                  <display value="Vital Signs"/>
               </coding>
            </category>
            <code>
               <coding>
                  <system value="http://loinc.org"/>
                  <code value="$39156-5"/>
                  <display value="Body mass index (BMI) [Ratio]"/>
               </coding>
            </code>
            <subject>
               <reference value="urn:uuid:8b60c406-f262-47ce-80bf-7382f7b80766"/>
               <display value="Olga Bąbel"/>
            </subject>
            <effectiveDateTime value="2025-04-20"/>
            <valueQuantity>
               <value value="30"/>
               <unit value="kg/m2"/>
               <code value="kg/m2"/>
            </valueQuantity>
         </Observation>
      </resource>
   </entry>
   <entry>
      <fullUrl value="urn:uuid:33b6cb5d-6862-430b-92d3-aee2fb17f34c"/>
      <resource>
         <Observation>
            <id value="33b6cb5d-6862-430b-92d3-aee2fb17f34c"/>
            <meta>
               <profile value="http://hl7.org/fhir/StructureDefinition/vitalsigns"/>
            </meta>
            <text>
               <status value="generated"/>
               <div xmlns="http://www.w3.org/1999/xhtml">
                  <table class="hl7__ips">
                     <tr>
                        <th>Vital Sign</th>
                        <th>Date</th>
                        <th>Measurement</th>
                     </tr>
                     <tr>
                        <td>Diastolic Blood Pressure</td>
                        <td>20-Apr-2025</td>
                        <td>77 mm[Hg]</td>
                     </tr>
                  </table>
               </div>
            </text>
            <status value="final"/>
            <category>
               <coding>
                  <system value="http://terminology.hl7.org/CodeSystem/observation-category"/>
                  <code value="vital-signs"/>
                  <display value="Vital Signs"/>
               </coding>
            </category>
            <code>
               <coding>
                  <system value="http://loinc.org"/>
                  <code value="$8462-4"/>
                  <display value="Diastolic Blood Pressure"/>
               </coding>
            </code>
            <subject>
               <reference value="urn:uuid:8b60c406-f262-47ce-80bf-7382f7b80766"/>
               <display value="Olga Bąbel"/>
            </subject>
            <effectiveDateTime value="2025-04-20"/>
            <valueQuantity>
               <value value="77"/>
               <unit value="mm[Hg]"/>
               <code value="mm[Hg]"/>
            </valueQuantity>
         </Observation>
      </resource>
   </entry>
   <entry>
      <fullUrl value="urn:uuid:e6eb6848-521a-41ea-a197-9e4715336c11"/>
      <resource>
         <Observation>
            <id value="e6eb6848-521a-41ea-a197-9e4715336c11"/>
            <meta>
               <profile value="http://hl7.org/fhir/StructureDefinition/vitalsigns"/>
            </meta>
            <text>
               <status value="generated"/>
               <div xmlns="http://www.w3.org/1999/xhtml">
                  <table class="hl7__ips">
                     <tr>
                        <th>Vital Sign</th>
                        <th>Date</th>
                        <th>Measurement</th>
                     </tr>
                     <tr>
                        <td>Systolic Blood Pressure</td>
                        <td>20-Apr-2025</td>
                        <td>136 mm[Hg]</td>
                     </tr>
                  </table>
               </div>
            </text>
            <status value="final"/>
            <category>
               <coding>
                  <system value="http://terminology.hl7.org/CodeSystem/observation-category"/>
                  <code value="vital-signs"/>
                  <display value="Vital Signs"/>
               </coding>
            </category>
            <code>
               <coding>
                  <system value="http://loinc.org"/>
                  <code value="$8480-6"/>
                  <display value="Systolic Blood Pressure"/>
               </coding>
            </code>
            <subject>
               <reference value="urn:uuid:8b60c406-f262-47ce-80bf-7382f7b80766"/>
               <display value="Olga Bąbel"/>
            </subject>
            <effectiveDateTime value="2025-04-20"/>
            <valueQuantity>
               <value value="136"/>
               <unit value="mm[Hg]"/>
               <code value="mm[Hg]"/>
            </valueQuantity>
         </Observation>
      </resource>
   </entry>
   <entry>
      <fullUrl value="urn:uuid:41879a11-7b19-44b6-8d5a-2408163bf807"/>
      <resource>
         <Observation>
            <id value="41879a11-7b19-44b6-8d5a-2408163bf807"/>
            <meta>
               <profile value="http://hl7.org/fhir/StructureDefinition/vitalsigns"/>
            </meta>
            <text>
               <status value="generated"/>
               <div xmlns="http://www.w3.org/1999/xhtml">
                  <table class="hl7__ips">
                     <tr>
                        <th>Vital Sign</th>
                        <th>Date</th>
                        <th>Measurement</th>
                     </tr>
                     <tr>
                        <td>Heart rate</td>
                        <td>20-Apr-2025</td>
                        <td>68 /min</td>
                     </tr>
                  </table>
               </div>
            </text>
            <status value="final"/>
            <category>
               <coding>
                  <system value="http://terminology.hl7.org/CodeSystem/observation-category"/>
                  <code value="vital-signs"/>
                  <display value="Vital Signs"/>
               </coding>
            </category>
            <code>
               <coding>
                  <system value="http://loinc.org"/>
                  <code value="$8867-4"/>
                  <display value="Heart rate"/>
               </coding>
            </code>
            <subject>
               <reference value="urn:uuid:8b60c406-f262-47ce-80bf-7382f7b80766"/>
               <display value="Olga Bąbel"/>
            </subject>
            <effectiveDateTime value="2025-04-20"/>
            <valueQuantity>
               <value value="68"/>
               <unit value="/min"/>
               <code value="/min"/>
            </valueQuantity>
         </Observation>
      </resource>
   </entry>
   <entry>
      <fullUrl value="urn:uuid:ebe0bbb6-7def-4d9d-97c9-af5217db3293"/>
      <resource>
         <Observation>
            <id value="ebe0bbb6-7def-4d9d-97c9-af5217db3293"/>
            <meta>
               <profile value="http://hl7.org/fhir/StructureDefinition/vitalsigns"/>
            </meta>
            <text>
               <status value="generated"/>
               <div xmlns="http://www.w3.org/1999/xhtml">
                  <table class="hl7__ips">
                     <tr>
                        <th>Vital Sign</th>
                        <th>Date</th>
                        <th>Measurement</th>
                     </tr>
                     <tr>
                        <td>Respiratory rate</td>
                        <td>20-Apr-2025</td>
                        <td>13 /min</td>
                     </tr>
                  </table>
               </div>
            </text>
            <status value="final"/>
            <category>
               <coding>
                  <system value="http://terminology.hl7.org/CodeSystem/observation-category"/>
                  <code value="vital-signs"/>
                  <display value="Vital Signs"/>
               </coding>
            </category>
            <code>
               <coding>
                  <system value="http://loinc.org"/>
                  <code value="$9279-1"/>
                  <display value="Respiratory rate"/>
               </coding>
            </code>
            <subject>
               <reference value="urn:uuid:8b60c406-f262-47ce-80bf-7382f7b80766"/>
               <display value="Olga Bąbel"/>
            </subject>
            <effectiveDateTime value="2025-04-20"/>
            <valueQuantity>
               <value value="13"/>
               <unit value="/min"/>
               <code value="/min"/>
            </valueQuantity>
         </Observation>
      </resource>
   </entry>
   <entry>
      <fullUrl value="urn:uuid:45e7c4b5-1151-4103-981d-6c23a9c62e20"/>
      <resource>
         <Observation>
            <id value="45e7c4b5-1151-4103-981d-6c23a9c62e20"/>
            <meta>
               <profile value="http://hl7.org/fhir/StructureDefinition/vitalsigns"/>
            </meta>
            <text>
               <status value="generated"/>
               <div xmlns="http://www.w3.org/1999/xhtml">
                  <table class="hl7__ips">
                     <tr>
                        <th>Vital Sign</th>
                        <th>Date</th>
                        <th>Measurement</th>
                     </tr>
                     <tr>
                        <td>Body Height</td>
                        <td>14-Apr-2024</td>
                        <td>168.3 cm</td>
                     </tr>
                  </table>
               </div>
            </text>
            <status value="final"/>
            <category>
               <coding>
                  <system value="http://terminology.hl7.org/CodeSystem/observation-category"/>
                  <code value="vital-signs"/>
                  <display value="Vital Signs"/>
               </coding>
            </category>
            <code>
               <coding>
                  <system value="http://loinc.org"/>
                  <code value="$8302-2"/>
                  <display value="Body Height"/>
               </coding>
            </code>
            <subject>
               <reference value="urn:uuid:8b60c406-f262-47ce-80bf-7382f7b80766"/>
               <display value="Olga Bąbel"/>
            </subject>
            <effectiveDateTime value="2024-04-14"/>
            <valueQuantity>
               <value value="168.3"/>
               <unit value="cm"/>
               <code value="cm"/>
            </valueQuantity>
         </Observation>
      </resource>
   </entry>
   <entry>
      <fullUrl value="urn:uuid:ec8bcabd-0876-4bdb-86b7-bc4a8753bdbf"/>
      <resource>
         <Observation>
            <id value="ec8bcabd-0876-4bdb-86b7-bc4a8753bdbf"/>
            <meta>
               <profile value="http://hl7.org/fhir/StructureDefinition/vitalsigns"/>
            </meta>
            <text>
               <status value="generated"/>
               <div xmlns="http://www.w3.org/1999/xhtml">
                  <table class="hl7__ips">
                     <tr>
                        <th>Vital Sign</th>
                        <th>Date</th>
                        <th>Measurement</th>
                     </tr>
                     <tr>
                        <td>Pain severity - 0-10 verbal numeric rating [Score] - Reported</td>
                        <td>14-Apr-2024</td>
                        <td>3 {score}</td>
                     </tr>
                  </table>
               </div>
            </text>
            <status value="final"/>
            <category>
               <coding>
                  <system value="http://terminology.hl7.org/CodeSystem/observation-category"/>
                  <code value="vital-signs"/>
                  <display value="Vital Signs"/>
               </coding>
            </category>
            <code>
               <coding>
                  <system value="http://loinc.org"/>
                  <code value="$72514-3"/>
                  <display value="Pain severity - 0-10 verbal numeric rating [Score] - Reported"/>
               </coding>
            </code>
            <subject>
               <reference value="urn:uuid:8b60c406-f262-47ce-80bf-7382f7b80766"/>
               <display value="Olga Bąbel"/>
            </subject>
            <effectiveDateTime value="2024-04-14"/>
            <valueQuantity>
               <value value="3"/>
               <unit value="{score}"/>
               <code value="{score}"/>
            </valueQuantity>
         </Observation>
      </resource>
   </entry>
   <entry>
      <fullUrl value="urn:uuid:5c533915-8507-4063-a5fe-8040d8f693a6"/>
      <resource>
         <Observation>
            <id value="5c533915-8507-4063-a5fe-8040d8f693a6"/>
            <meta>
               <profile value="http://hl7.org/fhir/StructureDefinition/vitalsigns"/>
            </meta>
            <text>
               <status value="generated"/>
               <div xmlns="http://www.w3.org/1999/xhtml">
                  <table class="hl7__ips">
                     <tr>
                        <th>Vital Sign</th>
                        <th>Date</th>
                        <th>Measurement</th>
                     </tr>
                     <tr>
                        <td>Body Weight</td>
                        <td>14-Apr-2024</td>
                        <td>84.1 kg</td>
                     </tr>
                  </table>
               </div>
            </text>
            <status value="final"/>
            <category>
               <coding>
                  <system value="http://terminology.hl7.org/CodeSystem/observation-category"/>
                  <code value="vital-signs"/>
                  <display value="Vital Signs"/>
               </coding>
            </category>
            <code>
               <coding>
                  <system value="http://loinc.org"/>
                  <code value="$29463-7"/>
                  <display value="Body Weight"/>
               </coding>
            </code>
            <subject>
               <reference value="urn:uuid:8b60c406-f262-47ce-80bf-7382f7b80766"/>
               <display value="Olga Bąbel"/>
            </subject>
            <effectiveDateTime value="2024-04-14"/>
            <valueQuantity>
               <value value="84.1"/>
               <unit value="kg"/>
               <code value="kg"/>
            </valueQuantity>
         </Observation>
      </resource>
   </entry>
   <entry>
      <fullUrl value="urn:uuid:500fb102-ce0f-4708-bf0d-3972c91ee36a"/>
      <resource>
         <Observation>
            <id value="500fb102-ce0f-4708-bf0d-3972c91ee36a"/>
            <meta>
               <profile value="http://hl7.org/fhir/StructureDefinition/vitalsigns"/>
            </meta>
            <text>
               <status value="generated"/>
               <div xmlns="http://www.w3.org/1999/xhtml">
                  <table class="hl7__ips">
                     <tr>
                        <th>Vital Sign</th>
                        <th>Date</th>
                        <th>Measurement</th>
                     </tr>
                     <tr>
                        <td>Body mass index (BMI) [Ratio]</td>
                        <td>14-Apr-2024</td>
                        <td>29.7 kg/m2</td>
                     </tr>
                  </table>
               </div>
            </text>
            <status value="final"/>
            <category>
               <coding>
                  <system value="http://terminology.hl7.org/CodeSystem/observation-category"/>
                  <code value="vital-signs"/>
                  <display value="Vital Signs"/>
               </coding>
            </category>
            <code>
               <coding>
                  <system value="http://loinc.org"/>
                  <code value="$39156-5"/>
                  <display value="Body mass index (BMI) [Ratio]"/>
               </coding>
            </code>
            <subject>
               <reference value="urn:uuid:8b60c406-f262-47ce-80bf-7382f7b80766"/>
               <display value="Olga Bąbel"/>
            </subject>
            <effectiveDateTime value="2024-04-14"/>
            <valueQuantity>
               <value value="29.7"/>
               <unit value="kg/m2"/>
               <code value="kg/m2"/>
            </valueQuantity>
         </Observation>
      </resource>
   </entry>
   <entry>
      <fullUrl value="urn:uuid:35fb0a21-cc1e-4852-a2bc-31733d60bbc1"/>
      <resource>
         <Observation>
            <id value="35fb0a21-cc1e-4852-a2bc-31733d60bbc1"/>
            <meta>
               <profile value="http://hl7.org/fhir/StructureDefinition/vitalsigns"/>
            </meta>
            <text>
               <status value="generated"/>
               <div xmlns="http://www.w3.org/1999/xhtml">
                  <table class="hl7__ips">
                     <tr>
                        <th>Vital Sign</th>
                        <th>Date</th>
                        <th>Measurement</th>
                     </tr>
                     <tr>
                        <td>Diastolic Blood Pressure</td>
                        <td>14-Apr-2024</td>
                        <td>82 mm[Hg]</td>
                     </tr>
                  </table>
               </div>
            </text>
            <status value="final"/>
            <category>
               <coding>
                  <system value="http://terminology.hl7.org/CodeSystem/observation-category"/>
                  <code value="vital-signs"/>
                  <display value="Vital Signs"/>
               </coding>
            </category>
            <code>
               <coding>
                  <system value="http://loinc.org"/>
                  <code value="$8462-4"/>
                  <display value="Diastolic Blood Pressure"/>
               </coding>
            </code>
            <subject>
               <reference value="urn:uuid:8b60c406-f262-47ce-80bf-7382f7b80766"/>
               <display value="Olga Bąbel"/>
            </subject>
            <effectiveDateTime value="2024-04-14"/>
            <valueQuantity>
               <value value="82"/>
               <unit value="mm[Hg]"/>
               <code value="mm[Hg]"/>
            </valueQuantity>
         </Observation>
      </resource>
   </entry>
   <entry>
      <fullUrl value="urn:uuid:c065a48f-836f-4813-9626-f8c64bc79ffa"/>
      <resource>
         <Observation>
            <id value="c065a48f-836f-4813-9626-f8c64bc79ffa"/>
            <meta>
               <profile value="http://hl7.org/fhir/StructureDefinition/vitalsigns"/>
            </meta>
            <text>
               <status value="generated"/>
               <div xmlns="http://www.w3.org/1999/xhtml">
                  <table class="hl7__ips">
                     <tr>
                        <th>Vital Sign</th>
                        <th>Date</th>
                        <th>Measurement</th>
                     </tr>
                     <tr>
                        <td>Systolic Blood Pressure</td>
                        <td>14-Apr-2024</td>
                        <td>139 mm[Hg]</td>
                     </tr>
                  </table>
               </div>
            </text>
            <status value="final"/>
            <category>
               <coding>
                  <system value="http://terminology.hl7.org/CodeSystem/observation-category"/>
                  <code value="vital-signs"/>
                  <display value="Vital Signs"/>
               </coding>
            </category>
            <code>
               <coding>
                  <system value="http://loinc.org"/>
                  <code value="$8480-6"/>
                  <display value="Systolic Blood Pressure"/>
               </coding>
            </code>
            <subject>
               <reference value="urn:uuid:8b60c406-f262-47ce-80bf-7382f7b80766"/>
               <display value="Olga Bąbel"/>
            </subject>
            <effectiveDateTime value="2024-04-14"/>
            <valueQuantity>
               <value value="139"/>
               <unit value="mm[Hg]"/>
               <code value="mm[Hg]"/>
            </valueQuantity>
         </Observation>
      </resource>
   </entry>
   <entry>
      <fullUrl value="urn:uuid:ac28fd5a-c397-46b7-93a6-2be0678e6d7f"/>
      <resource>
         <Observation>
            <id value="ac28fd5a-c397-46b7-93a6-2be0678e6d7f"/>
            <meta>
               <profile value="http://hl7.org/fhir/StructureDefinition/vitalsigns"/>
            </meta>
            <text>
               <status value="generated"/>
               <div xmlns="http://www.w3.org/1999/xhtml">
                  <table class="hl7__ips">
                     <tr>
                        <th>Vital Sign</th>
                        <th>Date</th>
                        <th>Measurement</th>
                     </tr>
                     <tr>
                        <td>Heart rate</td>
                        <td>14-Apr-2024</td>
                        <td>85 /min</td>
                     </tr>
                  </table>
               </div>
            </text>
            <status value="final"/>
            <category>
               <coding>
                  <system value="http://terminology.hl7.org/CodeSystem/observation-category"/>
                  <code value="vital-signs"/>
                  <display value="Vital Signs"/>
               </coding>
            </category>
            <code>
               <coding>
                  <system value="http://loinc.org"/>
                  <code value="$8867-4"/>
                  <display value="Heart rate"/>
               </coding>
            </code>
            <subject>
               <reference value="urn:uuid:8b60c406-f262-47ce-80bf-7382f7b80766"/>
               <display value="Olga Bąbel"/>
            </subject>
            <effectiveDateTime value="2024-04-14"/>
            <valueQuantity>
               <value value="85"/>
               <unit value="/min"/>
               <code value="/min"/>
            </valueQuantity>
         </Observation>
      </resource>
   </entry>
   <entry>
      <fullUrl value="urn:uuid:e19cad06-0bfa-47e8-84d9-2836bfb5e470"/>
      <resource>
         <Observation>
            <id value="e19cad06-0bfa-47e8-84d9-2836bfb5e470"/>
            <meta>
               <profile value="http://hl7.org/fhir/StructureDefinition/vitalsigns"/>
            </meta>
            <text>
               <status value="generated"/>
               <div xmlns="http://www.w3.org/1999/xhtml">
                  <table class="hl7__ips">
                     <tr>
                        <th>Vital Sign</th>
                        <th>Date</th>
                        <th>Measurement</th>
                     </tr>
                     <tr>
                        <td>Respiratory rate</td>
                        <td>14-Apr-2024</td>
                        <td>15 /min</td>
                     </tr>
                  </table>
               </div>
            </text>
            <status value="final"/>
            <category>
               <coding>
                  <system value="http://terminology.hl7.org/CodeSystem/observation-category"/>
                  <code value="vital-signs"/>
                  <display value="Vital Signs"/>
               </coding>
            </category>
            <code>
               <coding>
                  <system value="http://loinc.org"/>
                  <code value="$9279-1"/>
                  <display value="Respiratory rate"/>
               </coding>
            </code>
            <subject>
               <reference value="urn:uuid:8b60c406-f262-47ce-80bf-7382f7b80766"/>
               <display value="Olga Bąbel"/>
            </subject>
            <effectiveDateTime value="2024-04-14"/>
            <valueQuantity>
               <value value="15"/>
               <unit value="/min"/>
               <code value="/min"/>
            </valueQuantity>
         </Observation>
      </resource>
   </entry>
   <entry>
      <fullUrl value="urn:uuid:6e263a59-a57f-48e3-8ebe-6a63c46809a0"/>
      <resource>
         <Observation>
            <id value="6e263a59-a57f-48e3-8ebe-6a63c46809a0"/>
            <meta>
               <profile value="http://hl7.eu/fhir/laboratory/StructureDefinition/Observation-resultslab-eu-lab"/>
            </meta>
            <text>
               <status value="generated"/>
               <div xmlns="http://www.w3.org/1999/xhtml">
                  <table class="hl7__eu__lab__report">
                     <tr>
                        <th>Test</th>
                        <th>20-Apr-2025</th>
                        <th>Reference Range</th>
                        <th>Unit</th>
                     </tr>
                     <tr>
                        <td>Hemoglobin A1c/Hemoglobin.total in Blood</td>
                        <td>6.4</td>
                        <td>4.8 - 5.7</td>
                        <td>H</td>
                        <td>%</td>
                     </tr>
                  </table>
               </div>
            </text>
            <status value="final"/>
            <category>
               <coding>
                  <system value="http://terminology.hl7.org/CodeSystem/observation-category"/>
                  <code value="laboratory"/>
               </coding>
            </category>
            <code>
               <coding>
                  <system value="http://loinc.org"/>
                  <code value="4548-4"/>
                  <display value="Hemoglobin A1c/Hemoglobin.total in Blood"/>
               </coding>
               <text value="Hemoglobin A1c/Hemoglobin.total in Blood"/>
            </code>
            <subject>
               <reference value="urn:uuid:8b60c406-f262-47ce-80bf-7382f7b80766"/>
               <display value="Olga Bąbel"/>
            </subject>
            <effectiveDateTime value="2025-04-20T03:55:50Z"/>
            <performer>
               <display value="The Central European Lab"/>
            </performer>
            <valueQuantity>
               <value value="6.4"/>
               <unit value="%"/>
               <system value="http://unitsofmeasure.org"/>
               <code value="%"/>
            </valueQuantity>
            <interpretation>
               <coding>
                  <system value="http://terminology.hl7.org/CodeSystem/v3-ObservationInterpretation"/>
                  <code value="H"/>
                  <display value="High"/>
               </coding>
            </interpretation>
            <referenceRange>
               <low>
                  <value value="4.8"/>
                  <system value="http://unitsofmeasure.org"/>
                  <code value="%"/>
               </low>
            </referenceRange>
            <referenceRange>
               <high>
                  <value value="5.7"/>
                  <system value="http://unitsofmeasure.org"/>
                  <code value="%"/>
               </high>
            </referenceRange>
         </Observation>
      </resource>
   </entry>
   <entry>
      <fullUrl value="urn:uuid:27b7efc7-1c87-42e8-81b8-568584427b07"/>
      <resource>
         <Observation>
            <id value="27b7efc7-1c87-42e8-81b8-568584427b07"/>
            <meta>
               <profile value="http://hl7.eu/fhir/laboratory/StructureDefinition/Observation-resultslab-eu-lab"/>
            </meta>
            <text>
               <status value="generated"/>
               <div xmlns="http://www.w3.org/1999/xhtml">
                  <table class="hl7__eu__lab__report">
                     <tr>
                        <th>Test</th>
                        <th>20-Apr-2025</th>
                        <th>Reference Range</th>
                        <th>Unit</th>
                     </tr>
                     <tr>
                        <td>Glucose [Mass/volume] in Blood</td>
                        <td>98.9</td>
                        <td>70 - 99</td>
                        <td/>
                        <td>mg/dL</td>
                     </tr>
                  </table>
               </div>
            </text>
            <status value="final"/>
            <category>
               <coding>
                  <system value="http://terminology.hl7.org/CodeSystem/observation-category"/>
                  <code value="laboratory"/>
               </coding>
            </category>
            <code>
               <coding>
                  <system value="http://loinc.org"/>
                  <code value="2339-0"/>
                  <display value="Glucose [Mass/volume] in Blood"/>
               </coding>
               <text value="Glucose [Mass/volume] in Blood"/>
            </code>
            <subject>
               <reference value="urn:uuid:8b60c406-f262-47ce-80bf-7382f7b80766"/>
               <display value="Olga Bąbel"/>
            </subject>
            <effectiveDateTime value="2025-04-20T03:55:50Z"/>
            <performer>
               <display value="The Central European Lab"/>
            </performer>
            <valueQuantity>
               <value value="98.9"/>
               <unit value="mg/dL"/>
               <system value="http://unitsofmeasure.org"/>
               <code value="mg/dL"/>
            </valueQuantity>
            <referenceRange>
               <low>
                  <value value="70"/>
                  <system value="http://unitsofmeasure.org"/>
                  <code value="mg/dL"/>
               </low>
            </referenceRange>
            <referenceRange>
               <high>
                  <value value="99"/>
                  <system value="http://unitsofmeasure.org"/>
                  <code value="mg/dL"/>
               </high>
            </referenceRange>
         </Observation>
      </resource>
   </entry>
   <entry>
      <fullUrl value="urn:uuid:c604db7c-4fb6-4e90-8a66-bd962a54e368"/>
      <resource>
         <Observation>
            <id value="c604db7c-4fb6-4e90-8a66-bd962a54e368"/>
            <meta>
               <profile value="http://hl7.eu/fhir/laboratory/StructureDefinition/Observation-resultslab-eu-lab"/>
            </meta>
            <text>
               <status value="generated"/>
               <div xmlns="http://www.w3.org/1999/xhtml">
                  <table class="hl7__eu__lab__report">
                     <tr>
                        <th>Test</th>
                        <th>20-Apr-2025</th>
                        <th>Reference Range</th>
                        <th>Unit</th>
                     </tr>
                     <tr>
                        <td>Urea nitrogen [Mass/volume] in Blood</td>
                        <td>9.4</td>
                        <td>7 - 20</td>
                        <td/>
                        <td>mg/dL</td>
                     </tr>
                  </table>
               </div>
            </text>
            <status value="final"/>
            <category>
               <coding>
                  <system value="http://terminology.hl7.org/CodeSystem/observation-category"/>
                  <code value="laboratory"/>
               </coding>
            </category>
            <code>
               <coding>
                  <system value="http://loinc.org"/>
                  <code value="6299-2"/>
                  <display value="Urea nitrogen [Mass/volume] in Blood"/>
               </coding>
               <text value="Urea nitrogen [Mass/volume] in Blood"/>
            </code>
            <subject>
               <reference value="urn:uuid:8b60c406-f262-47ce-80bf-7382f7b80766"/>
               <display value="Olga Bąbel"/>
            </subject>
            <effectiveDateTime value="2025-04-20T03:55:50Z"/>
            <performer>
               <display value="The Central European Lab"/>
            </performer>
            <valueQuantity>
               <value value="9.4"/>
               <unit value="mg/dL"/>
               <system value="http://unitsofmeasure.org"/>
               <code value="mg/dL"/>
            </valueQuantity>
            <referenceRange>
               <low>
                  <value value="7"/>
                  <system value="http://unitsofmeasure.org"/>
                  <code value="mg/dL"/>
               </low>
            </referenceRange>
            <referenceRange>
               <high>
                  <value value="20"/>
                  <system value="http://unitsofmeasure.org"/>
                  <code value="mg/dL"/>
               </high>
            </referenceRange>
         </Observation>
      </resource>
   </entry>
   <entry>
      <fullUrl value="urn:uuid:e3ccc22a-a26a-4db1-bd87-dc5d3b91df4f"/>
      <resource>
         <Observation>
            <id value="e3ccc22a-a26a-4db1-bd87-dc5d3b91df4f"/>
            <meta>
               <profile value="http://hl7.eu/fhir/laboratory/StructureDefinition/Observation-resultslab-eu-lab"/>
            </meta>
            <text>
               <status value="generated"/>
               <div xmlns="http://www.w3.org/1999/xhtml">
                  <table class="hl7__eu__lab__report">
                     <tr>
                        <th>Test</th>
                        <th>20-Apr-2025</th>
                        <th>Reference Range</th>
                        <th>Unit</th>
                     </tr>
                     <tr>
                        <td>Creatinine [Mass/volume] in Blood</td>
                        <td>1.2</td>
                        <td>0.6 - 1.1</td>
                        <td>H</td>
                        <td>mg/dL</td>
                     </tr>
                  </table>
               </div>
            </text>
            <status value="final"/>
            <category>
               <coding>
                  <system value="http://terminology.hl7.org/CodeSystem/observation-category"/>
                  <code value="laboratory"/>
               </coding>
            </category>
            <code>
               <coding>
                  <system value="http://loinc.org"/>
                  <code value="38483-4"/>
                  <display value="Creatinine [Mass/volume] in Blood"/>
               </coding>
               <text value="Creatinine [Mass/volume] in Blood"/>
            </code>
            <subject>
               <reference value="urn:uuid:8b60c406-f262-47ce-80bf-7382f7b80766"/>
               <display value="Olga Bąbel"/>
            </subject>
            <effectiveDateTime value="2025-04-20T03:55:50Z"/>
            <performer>
               <display value="The Central European Lab"/>
            </performer>
            <valueQuantity>
               <value value="1.2"/>
               <unit value="mg/dL"/>
               <system value="http://unitsofmeasure.org"/>
               <code value="mg/dL"/>
            </valueQuantity>
            <interpretation>
               <coding>
                  <system value="http://terminology.hl7.org/CodeSystem/v3-ObservationInterpretation"/>
                  <code value="H"/>
                  <display value="High"/>
               </coding>
            </interpretation>
            <referenceRange>
               <low>
                  <value value="0.6"/>
                  <system value="http://unitsofmeasure.org"/>
                  <code value="mg/dL"/>
               </low>
            </referenceRange>
            <referenceRange>
               <high>
                  <value value="1.1"/>
                  <system value="http://unitsofmeasure.org"/>
                  <code value="mg/dL"/>
               </high>
            </referenceRange>
         </Observation>
      </resource>
   </entry>
   <entry>
      <fullUrl value="urn:uuid:fe2d1298-1c17-4593-a249-a9633043b81c"/>
      <resource>
         <Observation>
            <id value="fe2d1298-1c17-4593-a249-a9633043b81c"/>
            <meta>
               <profile value="http://hl7.eu/fhir/laboratory/StructureDefinition/Observation-resultslab-eu-lab"/>
            </meta>
            <text>
               <status value="generated"/>
               <div xmlns="http://www.w3.org/1999/xhtml">
                  <table class="hl7__eu__lab__report">
                     <tr>
                        <th>Test</th>
                        <th>20-Apr-2025</th>
                        <th>Reference Range</th>
                        <th>Unit</th>
                     </tr>
                     <tr>
                        <td>Calcium [Mass/volume] in Blood</td>
                        <td>9.9</td>
                        <td>8.5 - 10.4</td>
                        <td/>
                        <td>mg/dL</td>
                     </tr>
                  </table>
               </div>
            </text>
            <status value="final"/>
            <category>
               <coding>
                  <system value="http://terminology.hl7.org/CodeSystem/observation-category"/>
                  <code value="laboratory"/>
               </coding>
            </category>
            <code>
               <coding>
                  <system value="http://loinc.org"/>
                  <code value="49765-1"/>
                  <display value="Calcium [Mass/volume] in Blood"/>
               </coding>
               <text value="Calcium [Mass/volume] in Blood"/>
            </code>
            <subject>
               <reference value="urn:uuid:8b60c406-f262-47ce-80bf-7382f7b80766"/>
               <display value="Olga Bąbel"/>
            </subject>
            <effectiveDateTime value="2025-04-20T03:55:50Z"/>
            <performer>
               <display value="The Central European Lab"/>
            </performer>
            <valueQuantity>
               <value value="9.9"/>
               <unit value="mg/dL"/>
               <system value="http://unitsofmeasure.org"/>
               <code value="mg/dL"/>
            </valueQuantity>
            <referenceRange>
               <low>
                  <value value="8.5"/>
                  <system value="http://unitsofmeasure.org"/>
                  <code value="mg/dL"/>
               </low>
            </referenceRange>
            <referenceRange>
               <high>
                  <value value="10.4"/>
                  <system value="http://unitsofmeasure.org"/>
                  <code value="mg/dL"/>
               </high>
            </referenceRange>
         </Observation>
      </resource>
   </entry>
   <entry>
      <fullUrl value="urn:uuid:a5062e45-65c6-401f-8678-b965843ed975"/>
      <resource>
         <Observation>
            <id value="a5062e45-65c6-401f-8678-b965843ed975"/>
            <meta>
               <profile value="http://hl7.eu/fhir/laboratory/StructureDefinition/Observation-resultslab-eu-lab"/>
            </meta>
            <text>
               <status value="generated"/>
               <div xmlns="http://www.w3.org/1999/xhtml">
                  <table class="hl7__eu__lab__report">
                     <tr>
                        <th>Test</th>
                        <th>20-Apr-2025</th>
                        <th>Reference Range</th>
                        <th>Unit</th>
                     </tr>
                     <tr>
                        <td>Sodium [Moles/volume] in Blood</td>
                        <td>142.1</td>
                        <td>135 - 145</td>
                        <td/>
                        <td>mmol/L</td>
                     </tr>
                  </table>
               </div>
            </text>
            <status value="final"/>
            <category>
               <coding>
                  <system value="http://terminology.hl7.org/CodeSystem/observation-category"/>
                  <code value="laboratory"/>
               </coding>
            </category>
            <code>
               <coding>
                  <system value="http://loinc.org"/>
                  <code value="2947-0"/>
                  <display value="Sodium [Moles/volume] in Blood"/>
               </coding>
               <text value="Sodium [Moles/volume] in Blood"/>
            </code>
            <subject>
               <reference value="urn:uuid:8b60c406-f262-47ce-80bf-7382f7b80766"/>
               <display value="Olga Bąbel"/>
            </subject>
            <effectiveDateTime value="2025-04-20T03:55:50Z"/>
            <performer>
               <display value="The Central European Lab"/>
            </performer>
            <valueQuantity>
               <value value="142.1"/>
               <unit value="mmol/L"/>
               <system value="http://unitsofmeasure.org"/>
               <code value="mmol/L"/>
            </valueQuantity>
            <referenceRange>
               <low>
                  <value value="135"/>
                  <system value="http://unitsofmeasure.org"/>
                  <code value="mmol/L"/>
               </low>
            </referenceRange>
            <referenceRange>
               <high>
                  <value value="145"/>
                  <system value="http://unitsofmeasure.org"/>
                  <code value="mmol/L"/>
               </high>
            </referenceRange>
         </Observation>
      </resource>
   </entry>
   <entry>
      <fullUrl value="urn:uuid:1cfae690-328e-4c66-beed-8f0689854e7e"/>
      <resource>
         <Observation>
            <id value="1cfae690-328e-4c66-beed-8f0689854e7e"/>
            <meta>
               <profile value="http://hl7.eu/fhir/laboratory/StructureDefinition/Observation-resultslab-eu-lab"/>
            </meta>
            <text>
               <status value="generated"/>
               <div xmlns="http://www.w3.org/1999/xhtml">
                  <table class="hl7__eu__lab__report">
                     <tr>
                        <th>Test</th>
                        <th>20-Apr-2025</th>
                        <th>Reference Range</th>
                        <th>Unit</th>
                     </tr>
                     <tr>
                        <td>Potassium [Moles/volume] in Blood</td>
                        <td>4.6</td>
                        <td>3.5 - 5.1</td>
                        <td/>
                        <td>mmol/L</td>
                     </tr>
                  </table>
               </div>
            </text>
            <status value="final"/>
            <category>
               <coding>
                  <system value="http://terminology.hl7.org/CodeSystem/observation-category"/>
                  <code value="laboratory"/>
               </coding>
            </category>
            <code>
               <coding>
                  <system value="http://loinc.org"/>
                  <code value="6298-4"/>
                  <display value="Potassium [Moles/volume] in Blood"/>
               </coding>
               <text value="Potassium [Moles/volume] in Blood"/>
            </code>
            <subject>
               <reference value="urn:uuid:8b60c406-f262-47ce-80bf-7382f7b80766"/>
               <display value="Olga Bąbel"/>
            </subject>
            <effectiveDateTime value="2025-04-20T03:55:50Z"/>
            <performer>
               <display value="The Central European Lab"/>
            </performer>
            <valueQuantity>
               <value value="4.6"/>
               <unit value="mmol/L"/>
               <system value="http://unitsofmeasure.org"/>
               <code value="mmol/L"/>
            </valueQuantity>
            <referenceRange>
               <low>
                  <value value="3.5"/>
                  <system value="http://unitsofmeasure.org"/>
                  <code value="mmol/L"/>
               </low>
            </referenceRange>
            <referenceRange>
               <high>
                  <value value="5.1"/>
                  <system value="http://unitsofmeasure.org"/>
                  <code value="mmol/L"/>
               </high>
            </referenceRange>
         </Observation>
      </resource>
   </entry>
   <entry>
      <fullUrl value="urn:uuid:282c9c9a-6787-4182-871f-2d98a4906557"/>
      <resource>
         <Observation>
            <id value="282c9c9a-6787-4182-871f-2d98a4906557"/>
            <meta>
               <profile value="http://hl7.eu/fhir/laboratory/StructureDefinition/Observation-resultslab-eu-lab"/>
            </meta>
            <text>
               <status value="generated"/>
               <div xmlns="http://www.w3.org/1999/xhtml">
                  <table class="hl7__eu__lab__report">
                     <tr>
                        <th>Test</th>
                        <th>20-Apr-2025</th>
                        <th>Reference Range</th>
                        <th>Unit</th>
                     </tr>
                     <tr>
                        <td>Chloride [Moles/volume] in Blood</td>
                        <td>110.7</td>
                        <td>98 - 107</td>
                        <td>H</td>
                        <td>mmol/L</td>
                     </tr>
                  </table>
               </div>
            </text>
            <status value="final"/>
            <category>
               <coding>
                  <system value="http://terminology.hl7.org/CodeSystem/observation-category"/>
                  <code value="laboratory"/>
               </coding>
            </category>
            <code>
               <coding>
                  <system value="http://loinc.org"/>
                  <code value="2069-3"/>
                  <display value="Chloride [Moles/volume] in Blood"/>
               </coding>
               <text value="Chloride [Moles/volume] in Blood"/>
            </code>
            <subject>
               <reference value="urn:uuid:8b60c406-f262-47ce-80bf-7382f7b80766"/>
               <display value="Olga Bąbel"/>
            </subject>
            <effectiveDateTime value="2025-04-20T03:55:50Z"/>
            <performer>
               <display value="The Central European Lab"/>
            </performer>
            <valueQuantity>
               <value value="110.7"/>
               <unit value="mmol/L"/>
               <system value="http://unitsofmeasure.org"/>
               <code value="mmol/L"/>
            </valueQuantity>
            <interpretation>
               <coding>
                  <system value="http://terminology.hl7.org/CodeSystem/v3-ObservationInterpretation"/>
                  <code value="H"/>
                  <display value="High"/>
               </coding>
            </interpretation>
            <referenceRange>
               <low>
                  <value value="98"/>
                  <system value="http://unitsofmeasure.org"/>
                  <code value="mmol/L"/>
               </low>
            </referenceRange>
            <referenceRange>
               <high>
                  <value value="107"/>
                  <system value="http://unitsofmeasure.org"/>
                  <code value="mmol/L"/>
               </high>
            </referenceRange>
         </Observation>
      </resource>
   </entry>
   <entry>
      <fullUrl value="urn:uuid:a57c8695-6171-454c-a831-0ca576f3e65d"/>
      <resource>
         <Observation>
            <id value="a57c8695-6171-454c-a831-0ca576f3e65d"/>
            <meta>
               <profile value="http://hl7.eu/fhir/laboratory/StructureDefinition/Observation-resultslab-eu-lab"/>
            </meta>
            <text>
               <status value="generated"/>
               <div xmlns="http://www.w3.org/1999/xhtml">
                  <table class="hl7__eu__lab__report">
                     <tr>
                        <th>Test</th>
                        <th>20-Apr-2025</th>
                        <th>Reference Range</th>
                        <th>Unit</th>
                     </tr>
                     <tr>
                        <td>Carbon dioxide, total [Moles/volume] in Blood</td>
                        <td>21.1</td>
                        <td>22 - 29</td>
                        <td>L</td>
                        <td>mmol/L</td>
                     </tr>
                  </table>
               </div>
            </text>
            <status value="final"/>
            <category>
               <coding>
                  <system value="http://terminology.hl7.org/CodeSystem/observation-category"/>
                  <code value="laboratory"/>
               </coding>
            </category>
            <code>
               <coding>
                  <system value="http://loinc.org"/>
                  <code value="20565-8"/>
                  <display value="Carbon dioxide, total [Moles/volume] in Blood"/>
               </coding>
               <text value="Carbon dioxide, total [Moles/volume] in Blood"/>
            </code>
            <subject>
               <reference value="urn:uuid:8b60c406-f262-47ce-80bf-7382f7b80766"/>
               <display value="Olga Bąbel"/>
            </subject>
            <effectiveDateTime value="2025-04-20T03:55:50Z"/>
            <performer>
               <display value="The Central European Lab"/>
            </performer>
            <valueQuantity>
               <value value="21.1"/>
               <unit value="mmol/L"/>
               <system value="http://unitsofmeasure.org"/>
               <code value="mmol/L"/>
            </valueQuantity>
            <interpretation>
               <coding>
                  <system value="http://terminology.hl7.org/CodeSystem/v3-ObservationInterpretation"/>
                  <code value="L"/>
                  <display value="Low"/>
               </coding>
            </interpretation>
            <referenceRange>
               <low>
                  <value value="22"/>
                  <system value="http://unitsofmeasure.org"/>
                  <code value="mmol/L"/>
               </low>
            </referenceRange>
            <referenceRange>
               <high>
                  <value value="29"/>
                  <system value="http://unitsofmeasure.org"/>
                  <code value="mmol/L"/>
               </high>
            </referenceRange>
         </Observation>
      </resource>
   </entry>
   <entry>
      <fullUrl value="urn:uuid:0734fa0e-d8ee-449c-a976-dd6162b1bcce"/>
      <resource>
         <DeviceUseStatement>
            <id value="0734fa0e-d8ee-449c-a976-dd6162b1bcce"/>
            <meta>
               <profile value="http://hl7.eu/fhir/eps/StructureDefinition/deviceUseStatement-eu-eps"/>
            </meta>
            <text>
               <status value="generated"/>
               <div xmlns="http://www.w3.org/1999/xhtml">
                  <table class="hl7__ips">
                     <tr>
                        <td>Blood glucose meter (physical object)</td>
                        <td>
                           <span class="nb">14-Apr-2024</span>
                        </td>
                     </tr>
                  </table>
               </div>
            </text>
            <status value="active"/>
            <subject>
               <reference value="urn:uuid:8b60c406-f262-47ce-80bf-7382f7b80766"/>
               <display value="Olga Bąbel"/>
            </subject>
            <timingPeriod>
               <start value="2024-04-14"/>
            </timingPeriod>
            <device>
               <reference value="urn:uuid:c0aa1ce9-0471-4c59-8123-8c9de4d9e248"/>
               <display value="Blood glucose meter (physical object)"/>
            </device>
         </DeviceUseStatement>
      </resource>
   </entry>
   <entry>
      <fullUrl value="urn:uuid:c0aa1ce9-0471-4c59-8123-8c9de4d9e248"/>
      <resource>
         <Device>
            <id value="c0aa1ce9-0471-4c59-8123-8c9de4d9e248"/>
            <meta>
               <profile value="http://hl7.eu/fhir/eps/StructureDefinition/device-eu-eps"/>
            </meta>
            <udiCarrier id="(01)42192044523399(11)240324(17)490408(10)3678134(21)984351"/>
            <status value="active"/>
            <type>
               <coding>
                  <system value="http://snomed.info/sct"/>
                  <code value="337414009"/>
                  <display value="Blood glucose meter (physical object)"/>
               </coding>
            </type>
            <patient>
               <reference value="urn:uuid:8b60c406-f262-47ce-80bf-7382f7b80766"/>
               <display value="Olga Bąbel"/>
            </patient>
         </Device>
      </resource>
   </entry>
   <entry>
      <fullUrl value="urn:uuid:970fd107-56c8-4bb9-9379-7bd2b02e08d5"/>
      <resource>
         <Device>
            <id value="970fd107-56c8-4bb9-9379-7bd2b02e08d5"/>
            <text>
               <status value="generated"/>
               <div xmlns="http://www.w3.org/1999/xhtml">SYNDERAI Synthetic Generator v5.0</div>
            </text>
            <status value="active&#34;"/>
            <distinctIdentifier value="synderai-generator-50"/>
            <manufacturer value="SYNDERAI Project"/>
            <deviceName>
               <name value="SYNDERAI Synthetic Generator"/>
               <type value="manufacturer-name"/>
            </deviceName>
            <version>
               <value value="5.0"/>
            </version>
         </Device>
      </resource>
   </entry>
   <entry>
      <fullUrl value="urn:uuid:fcbcbd02-3b93-4f54-9197-7303d4b15b02"/>
      <resource>
         <Provenance>
            <id value="fcbcbd02-3b93-4f54-9197-7303d4b15b02"/>
            <text>
               <status value="generated"/>
               <div xmlns="http://www.w3.org/1999/xhtml">Provenance for SYNDERAI Synthetic Example Data Resource</div>
            </text>
            <target>
               <reference value="Patient/8b60c406-f262-47ce-80bf-7382f7b80766"/>
            </target>
            <target>
               <reference value="Bundle/6aab481f-866c-4413-ab33-c9950121a851"/>
            </target>
            <target>
               <reference value="Composition/e8fb9d04-922b-4931-9ed3-54942ff5f6a6"/>
            </target>
            <target>
               <reference value="PractitionerRole/425ee769-ed9a-4716-b8a6-41d1a9877cec"/>
            </target>
            <target>
               <reference value="Organization/5bec286a-9f6a-47c4-b3b3-b6171ed2eaa6"/>
            </target>
            <target>
               <reference value="Practitioner/5e9985ee-9987-4ec1-bd5d-7c533cba64d4"/>
            </target>
            <recorded value="2025-04-20T03:55:50Z"/>
            <policy value="https://synderai.net/synderai-synthetic-data-policy"/>
            <reason>
               <text value="Interoperability Testing and Training (non-clinical use)"/>
            </reason>
            <activity>
               <text value="Synthetic Example Data Generation"/>
            </activity>
            <agent>
               <type>
                  <text value="author"/>
               </type>
               <who>
                  <reference value="Device/970fd107-56c8-4bb9-9379-7bd2b02e08d5"/>
               </who>
            </agent>
         </Provenance>
      </resource>
   </entry>
</Bundle>