{
  "resourceType": "Bundle",
  "id": "43a0b203-416d-4ae8-9fe2-73a47389f444",
  "meta": {
    "profile": [
      "http://hl7.eu/fhir/eps/StructureDefinition/bundle-eu-eps"
    ]
  },
  "identifier": {
    "assigner": {
      "display": "HL7 Europe"
    },
    "system": "urn:oid:2.16.840.1.113883.2.51.999",
    "value": "d46884aa-151d-4c10-8c66-99026f492c99"
  },
  "entry": [
    {
      "fullUrl": "urn:uuid:3d930115-860e-4891-9f6c-906de0e83229",
      "resource": {
        "resourceType": "Composition",
        "id": "3d930115-860e-4891-9f6c-906de0e83229",
        "meta": {
          "security": [
            {
              "system": "http://terminology.hl7.org/CodeSystem/v3-ActReason",
              "code": "HTEST"
            },
            {
              "system": "http://terminology.hl7.org/CodeSystem/v3-ActReason",
              "code": "TRAIN"
            }
          ],
          "tag": [
            {
              "system": "https://synderai.net/fhir/CodeSystem/tags",
              "code": "synthetic",
              "display": "SYNDERAI Synthetic data"
            }
          ],
          "profile": [
            "http://hl7.eu/fhir/eps/StructureDefinition/composition-eu-eps"
          ]
        },
        "identifier": {
          "assigner": {
            "display": "HL7 Europe"
          },
          "system": "urn:oid:2.16.840.1.113883.2.51.999",
          "value": "61a43696-255c-45d1-ba79-427ace7d7e5c"
        },
        "type": {
          "coding": [
            {
              "system": "http://loinc.org",
              "code": "60591-5",
              "display": "Patient summary Document"
            }
          ],
          "text": "Patient summary Document"
        },
        "author": [
          {
            "reference": "urn:uuid:c1d8dfa0-e1f6-4881-9f91-cff6850e970b"
          }
        ],
        "section": [
          {
            "text": {
              "status": "generated",
              "div": "<div xmlns=\"http://www.w3.org/1999/xhtml\"><table class=\"hl7__ips\"><tr><th>Condition</th><th>Onset Date</th><th>Status</th></tr><tr><td>Essential hypertension</td><td><span class=\"nb\">15-Sep-2002</span></td><td>active</td></tr></table></div>"
            },
            "entry": [
              {
                "reference": "urn:uuid:2f3f3a99-e43c-42fa-89df-309477f5494f"
              }
            ],
            "code": {
              "coding": [
                {
                  "system": "http://loinc.org",
                  "code": "11450-4",
                  "display": "Problem list - Reported"
                }
              ]
            },
            "title": "Problem list"
          },
          {
            "text": {
              "status": "generated",
              "div": "<div xmlns=\"http://www.w3.org/1999/xhtml\"><table class=\"hl7__ips\"><tr><th>Medication</th><th>Since</th><th>Form</th><th>Dosage</th><th>Reason</th></tr><tr><td>Amlodipine (as amlodipine besylate) 2.5 mg oral tablet</td><td><span class=\"nb\">2025-01-19</span></td><td>-</td><td>1 tablet (2.5 mg) by mouth once daily</td><td>Essential hypertension (disorder)</td></tr><tr><td>Hydrochlorothiazide 25 mg oral tablet</td><td><span class=\"nb\">2025-01-19</span></td><td>-</td><td>1 tablet (25 mg) by mouth once daily</td><td>Essential hypertension (disorder)</td></tr><tr><td>Lisinopril 10 mg oral tablet</td><td><span class=\"nb\">2025-01-19</span></td><td>-</td><td>1 tablet (10 mg) by mouth once daily</td><td>Essential hypertension (disorder)</td></tr><tr><td>Albuterol (as albuterol sulfate) 830 microgram/mL solution for inhalation</td><td><span class=\"nb\">2025-01-19</span></td><td>-</td><td>2.5 mg (3 mL of 830 microgram/mL solution) via nebulizer every 4 to 6 hours as needed</td><td>Childhood asthma</td></tr><tr><td>120 ACTUAT fluticasone propionate 0.044 MG/ACTUAT Metered Dose Inhaler [Flovent]</td><td><span class=\"nb\">2025-01-19</span></td><td>-</td><td>44 mcg inhaled twice daily</td><td>Childhood asthma</td></tr></table></div>"
            },
            "entry": [
              {
                "reference": "urn:uuid:083fed8e-0479-4f97-a580-cae224a0ccdd"
              },
              {
                "reference": "urn:uuid:25d04c31-2bbd-4774-926d-1bff0792bcf0"
              },
              {
                "reference": "urn:uuid:561583c6-38a8-441e-809d-f5b4e76aac20"
              },
              {
                "reference": "urn:uuid:910a2a0e-8d34-4608-8e57-9e89d555a32a"
              },
              {
                "reference": "urn:uuid:ecc2c713-fc6e-4201-ad6b-71fd468c6729"
              }
            ],
            "code": {
              "coding": [
                {
                  "system": "http://loinc.org",
                  "code": "10160-0",
                  "display": "History of Medication use Narrative"
                }
              ]
            },
            "title": "Medication list"
          },
          {
            "text": {
              "status": "generated",
              "div": "<div xmlns=\"http://www.w3.org/1999/xhtml\"><table class=\"hl7__ips\"><tr><th>Vaccine</th><th>Date</th></tr><tr><td>Influenza virus antigen only vaccine product</td><td><span class=\"nb\">19-Jan-2025</span></td></tr><tr><td>COVID-19 non-replicating viral vector vaccine</td><td><span class=\"nb\">25-Apr-2021</span></td></tr><tr><td>Hepatitis A virus antigen only vaccine product</td><td><span class=\"nb\">27-Dec-2020</span></td></tr><tr><td>Clostridium tetani toxoid antigen adsorbed only vaccine product</td><td><span class=\"nb\">27-Dec-2020</span></td></tr></table></div>"
            },
            "entry": [
              {
                "reference": "urn:uuid:779cd6e6-34d5-49ba-bc2d-2cedf92543df"
              },
              {
                "reference": "urn:uuid:440c3444-f243-48a8-ab50-de1cd3da67ec"
              },
              {
                "reference": "urn:uuid:6aeb5541-f51a-457d-9a29-45204bac1c79"
              },
              {
                "reference": "urn:uuid:8bd73c1a-6984-46f6-b79d-c95c7318449c"
              }
            ],
            "code": {
              "coding": [
                {
                  "system": "http://loinc.org",
                  "code": "11369-6",
                  "display": "History of Immunization note"
                }
              ]
            },
            "title": "Immunizations list"
          },
          {
            "text": {
              "status": "generated",
              "div": "<div xmlns=\"http://www.w3.org/1999/xhtml\"><table class=\"hl7__ips\"><tr><th>Procedure</th><th>Date</th><th>Reason</th></tr><tr><td>Plain X-ray of clavicle</td><td><span class=\"nb\">26-Sep-2018</span></td><td>-</td></tr><tr><td>Admission to orthopedic department</td><td><span class=\"nb\">26-Sep-2018</span></td><td>Fracture of clavicle</td></tr></table></div>"
            },
            "entry": [
              {
                "reference": "urn:uuid:8ab0dc00-754a-49a8-b3a6-b0d9777f555e"
              },
              {
                "reference": "urn:uuid:accb63a1-0cd1-4476-9001-9160ef886d7c"
              }
            ],
            "code": {
              "coding": [
                {
                  "system": "http://loinc.org",
                  "code": "47519-4",
                  "display": "History of Procedures Document"
                }
              ]
            },
            "title": "Procedure History list"
          },
          {
            "text": {
              "status": "generated",
              "div": "<div xmlns=\"http://www.w3.org/1999/xhtml\"><table class=\"hl7__ips\"><tr><th>Allergy/Intolerance</th><th>Onset Date</th><th>Status</th><th>Type</th><th>Reaction</th></tr><tr><td></td><td>?</td><td>active</td><td>?</td><td></td></tr></table></div>"
            },
            "entry": [
              {
                "reference": "urn:uuid:ae8a3dfa-189e-4540-96cd-8853f5470644"
              }
            ],
            "code": {
              "coding": [
                {
                  "system": "http://loinc.org",
                  "code": "48765-2",
                  "display": "Allergies and adverse reactions Document"
                }
              ]
            },
            "title": "Allergies and Intolerances"
          },
          {
            "text": {
              "status": "generated",
              "div": "<div xmlns=\"http://www.w3.org/1999/xhtml\"><table class=\"hl7__ips\"><tr><th>Active Planned Care / Goals</th><th>Start Date</th><th>Reason</th></tr><tr><td>Lifestyle education regarding hypertension</td><td><span class=\"nb\">15-Sep-2002</span></td><td>Essential hypertension (disorder)</td></tr><tr><td><ul><li>Achieve and maintain blood pressure below 130/80 mmHg through lifestyle modifications.</li><li>Patient will demonstrate understanding of hypertension and recommended lifestyle changes (diet, exercise, sodium reduction, weight management, alcohol moderation) within 3 months.</li></ul></td><td></td><td></td></tr><tr><td>Weight management program</td><td><span class=\"nb\">15-Jun-1986</span></td><td>-</td></tr><tr><td>Asthma self management</td><td><span class=\"nb\">02-Feb-1983</span></td><td>Childhood asthma</td></tr><tr><td><ul><li>Patient will maintain peak expiratory flow at or above 80% of personal best through adherence to asthma self-management plan.</li><li>Patient will have no more than 2 uses of rescue inhaler per week.</li><li>Patient will experience daytime asthma symptoms no more than 2 days per week.</li></ul></td><td></td><td></td></tr></table></div>"
            },
            "entry": [
              {
                "reference": "urn:uuid:71e9e1c3-62af-4a32-ae9a-1860d1b3e5d7"
              },
              {
                "reference": "urn:uuid:0a5165b6-c0dc-44ba-a470-11b70c74e1d7"
              },
              {
                "reference": "urn:uuid:4a0843cb-fd48-4d82-9947-2cdf2227a46b"
              }
            ],
            "code": {
              "coding": [
                {
                  "system": "http://loinc.org",
                  "code": "18776-5",
                  "display": "Plan of care note"
                }
              ]
            },
            "title": "Care Plan"
          },
          {
            "text": {
              "status": "generated",
              "div": "<div xmlns=\"http://www.w3.org/1999/xhtml\"><table class=\"hl7__ips\"><tr><th>Vital Signs</th><th>2025-03-13</th><th>2025-01-19</th></tr><tr><td>Body temperature</td><td>37.4 Cel</td><td>-</td></tr><tr><td>Body Height</td><td>-</td><td>168.1 cm</td></tr><tr><td>Pain severity - 0-10 verbal numeric rating [Score] - Reported</td><td>-</td><td>0 {score}</td></tr><tr><td>Body Weight</td><td>-</td><td>80.4 kg</td></tr><tr><td>Body mass index (BMI) [Ratio]</td><td>-</td><td>28.5 kg/m2</td></tr><tr><td>Diastolic Blood Pressure</td><td>-</td><td>56 mm[Hg]</td></tr><tr><td>Systolic Blood Pressure</td><td>-</td><td>76 mm[Hg]</td></tr><tr><td>Heart rate</td><td>-</td><td>84 /min</td></tr><tr><td>Respiratory rate</td><td>-</td><td>14 /min</td></tr></table></div>"
            },
            "entry": [
              {
                "reference": "urn:uuid:8f9c7098-b1d4-40bd-b869-7c46c13fddee"
              },
              {
                "reference": "urn:uuid:9dfd0cf2-1dd5-4265-961f-43b1b6882a1b"
              },
              {
                "reference": "urn:uuid:91532997-c360-4b76-87af-41f78ab2ccd7"
              },
              {
                "reference": "urn:uuid:a40d5247-6de3-49ec-a26b-d908f31f1b68"
              },
              {
                "reference": "urn:uuid:c4fd165e-f274-479d-9667-42b33d2ac41f"
              },
              {
                "reference": "urn:uuid:745a656c-e461-4608-af6d-1efbd53f0488"
              },
              {
                "reference": "urn:uuid:9568b8ce-939c-4588-a5b1-6ab07c8caa12"
              },
              {
                "reference": "urn:uuid:2060df86-d2c1-4651-a1f7-34f70c238e33"
              },
              {
                "reference": "urn:uuid:c2e96a67-d118-4e1b-8cb5-f7a5d2fd2d19"
              }
            ],
            "code": {
              "coding": [
                {
                  "system": "http://loinc.org",
                  "code": "8716-3",
                  "display": "Vital signs note"
                }
              ]
            },
            "title": "Vital Signs"
          },
          {
            "text": {
              "status": "generated",
              "div": "<div xmlns=\"http://www.w3.org/1999/xhtml\"><table class=\"hl7__ips\"><table class=\"hl7__ips\"><thead><tr><th>Recent Lab Observations</th><th>19-JAN-2025</th><th>Reference&#xA0;Range</th><th>Unit</th></tr></thead><tbody><tr><td>Cholesterol [Mass/volume] in Serum or Plasma</td><td><strong>255.1 H</strong></td><td>0 - 200</td><td>mg/dL</td></tr><tr><td>Triglyceride [Mass/volume] in Serum or Plasma</td><td>110.8</td><td>0 - 150</td><td>mg/dL</td></tr><tr><td>Cholesterol in LDL [Mass/volume] in Serum or Plasma by Direct assay</td><td><strong>181.2 H</strong></td><td>0 - 130</td><td>mg/dL</td></tr><tr><td>Cholesterol in HDL [Mass/volume] in Serum or Plasma</td><td>51.8</td><td>40 - 60</td><td>mg/dL</td></tr></tbody></table></table></div>"
            },
            "entry": [
              {
                "reference": "urn:uuid:4ba12d87-6876-4505-a38b-ab2a324e4891"
              },
              {
                "reference": "urn:uuid:8a961050-7227-45e4-b60a-686721e9f481"
              },
              {
                "reference": "urn:uuid:c5baa484-e340-4904-a3bb-adc60da36af3"
              },
              {
                "reference": "urn:uuid:3724592d-b3a2-4acc-a53d-153701f74dbb"
              }
            ],
            "code": {
              "coding": [
                {
                  "system": "http://loinc.org",
                  "code": "30954-2",
                  "display": "Relevant diagnostic tests/laboratory data note"
                }
              ]
            },
            "title": "Relevant diagnostic tests/laboratory data"
          }
        ],
        "title": "European Patient Summary",
        "status": "final",
        "subject": {
          "reference": "urn:uuid:805cec96-0a32-48bc-b5cd-0aa267f0941a",
          "display": "Russell Khan"
        },
        "custodian": {
          "reference": "urn:uuid:ace9ffbf-ec4a-4da5-8903-27fba98347e3"
        },
        "date": "2025-01-19",
        "confidentiality": "N"
      }
    },
    {
      "fullUrl": "urn:uuid:805cec96-0a32-48bc-b5cd-0aa267f0941a",
      "resource": {
        "resourceType": "Patient",
        "id": "805cec96-0a32-48bc-b5cd-0aa267f0941a",
        "meta": {
          "security": [
            {
              "system": "http://terminology.hl7.org/CodeSystem/v3-ActReason",
              "code": "HTEST"
            },
            {
              "system": "http://terminology.hl7.org/CodeSystem/v3-ActReason",
              "code": "TRAIN"
            }
          ],
          "tag": [
            {
              "system": "https://synderai.net/fhir/CodeSystem/tags",
              "code": "synthetic",
              "display": "SYNDERAI Synthetic data"
            }
          ],
          "profile": [
            "http://hl7.eu/fhir/eps/StructureDefinition/patient-eu-eps"
          ]
        },
        "identifier": [
          {
            "type": {
              "coding": [
                {
                  "code": "PT",
                  "system": "http://terminology.hl7.org/CodeSystem/v2-0203"
                }
              ]
            },
            "system": "http://ec.europa.eu/identifier/eci",
            "value": "7982-255119-2"
          },
          {
            "type": {
              "coding": [
                {
                  "code": "MR",
                  "system": "http://terminology.hl7.org/CodeSystem/v2-0203"
                }
              ]
            },
            "system": "http://local.setting.eu/identifier",
            "value": "7070b0e2-4aa2-c981-d552-92289a13285c"
          }
        ],
        "name": [
          {
            "family": "Khan"
          },
          {
            "given": [
              "Russell"
            ]
          },
          {
            "text": "Russell Khan"
          }
        ],
        "address": [
          {
            "line": [
              "1 Holly well"
            ],
            "use": "home",
            "type": "physical",
            "postalCode": "B9",
            "city": "Allantown",
            "country": "United Kingdom"
          }
        ],
        "telecom": [
          {
            "system": "phone",
            "value": "0115 4960345"
          }
        ],
        "extension": [
          {
            "url": "http://hl7.org/fhir/StructureDefinition/patient-nationality",
            "valueCodeableConcept": {
              "coding": [
                {
                  "code": "GB",
                  "system": "http://hl7.org/fhir/ValueSet/country"
                }
              ]
            }
          }
        ],
        "text": {
          "status": "generated",
          "div": "<div xmlns=\"http://www.w3.org/1999/xhtml\"><table class=\"hl7__ips\"><tr><td>Russell Khan</td><td>male</td><td>29-Aug-1980</td></tr></table></div>"
        },
        "gender": "male",
        "birthDate": "1980-08-29"
      }
    },
    {
      "fullUrl": "urn:uuid:c1d8dfa0-e1f6-4881-9f91-cff6850e970b",
      "resource": {
        "resourceType": "PractitionerRole",
        "id": "c1d8dfa0-e1f6-4881-9f91-cff6850e970b",
        "meta": {
          "profile": [
            "http://hl7.eu/fhir/base/StructureDefinition/practitionerRole-eu"
          ]
        },
        "text": {
          "status": "generated",
          "div": "<div xmlns=\"http://www.w3.org/1999/xhtml\"><table class=\"hl7__ips\">Provider Role Id c1d8dfa0-e1f6-4881-9f91-cff6850e970b</table></div>"
        },
        "practitioner": {
          "reference": "urn:uuid:bdfbab0f-dc50-4bf2-9a01-9de3bf81d9e6"
        },
        "organization": {
          "reference": "urn:uuid:ace9ffbf-ec4a-4da5-8903-27fba98347e3"
        }
      }
    },
    {
      "fullUrl": "urn:uuid:bdfbab0f-dc50-4bf2-9a01-9de3bf81d9e6",
      "resource": {
        "resourceType": "Practitioner",
        "id": "bdfbab0f-dc50-4bf2-9a01-9de3bf81d9e6",
        "meta": {
          "profile": [
            "http://hl7.eu/fhir/base/StructureDefinition/practitioner-eu"
          ]
        },
        "name": [
          {
            "prefix": [
              "Dr."
            ],
            "given": [
              "Hel"
            ],
            "family": "Ping"
          }
        ],
        "text": {
          "status": "generated",
          "div": "<div xmlns=\"http://www.w3.org/1999/xhtml\"><table class=\"hl7__ips\">Dr. Hel Ping</table></div>"
        }
      }
    },
    {
      "fullUrl": "urn:uuid:ace9ffbf-ec4a-4da5-8903-27fba98347e3",
      "resource": {
        "resourceType": "Organization",
        "id": "ace9ffbf-ec4a-4da5-8903-27fba98347e3",
        "meta": {
          "profile": [
            "http://hl7.eu/fhir/base/StructureDefinition/organization-eu"
          ]
        },
        "identifier": [
          {
            "assigner": {
              "display": "HL7 Europe"
            },
            "system": "urn:oid:2.16.840.1.113883.2.51.999",
            "value": "53c65e54-7d06-45f7-99f0-515da5fb8fbd"
          }
        ],
        "address": [
          {
            "city": "Birmingham",
            "postalCode": "B4 6",
            "country": "United Kingdom"
          }
        ],
        "text": {
          "status": "generated",
          "div": "<div xmlns=\"http://www.w3.org/1999/xhtml\"><table class=\"hl7__ips\">Birmingham Children&#039;s Hospital</table></div>"
        },
        "name": "Birmingham Children&#039;s Hospital"
      }
    },
    {
      "fullUrl": "urn:uuid:2f3f3a99-e43c-42fa-89df-309477f5494f",
      "resource": {
        "resourceType": "Condition",
        "id": "2f3f3a99-e43c-42fa-89df-309477f5494f",
        "meta": {
          "profile": [
            "http://hl7.org/fhir/uv/ips/StructureDefinition/Condition-uv-ips"
          ]
        },
        "category": [
          {
            "coding": [
              {
                "code": "problem-list-item",
                "system": "http://terminology.hl7.org/CodeSystem/condition-category",
                "display": "Problem List Item"
              }
            ]
          }
        ],
        "code": {
          "coding": [
            {
              "code": "59621000",
              "system": "http://snomed.info/sct",
              "display": "Essential hypertension (disorder)"
            }
          ],
          "text": "Essential hypertension"
        },
        "text": {
          "status": "generated",
          "div": "<div xmlns=\"http://www.w3.org/1999/xhtml\"><table class=\"hl7__ips\"><tr><td>Essential hypertension</td><td><span class=\"nb\">15-Sep-2002</span></td><td>active</td></tr></table></div>"
        },
        "onsetDateTime": "2002-09-15",
        "subject": {
          "reference": "urn:uuid:",
          "display": "Russell Khan"
        },
        "asserter": {
          "reference": "urn:uuid:",
          "display": "Birmingham Children&#039;s Hospital"
        }
      }
    },
    {
      "fullUrl": "urn:uuid:dd0238fc-0b0a-4431-93e9-5eebb7ba6bfe",
      "resource": {
        "resourceType": "Condition",
        "id": "dd0238fc-0b0a-4431-93e9-5eebb7ba6bfe",
        "meta": {
          "profile": [
            "http://hl7.org/fhir/uv/ips/StructureDefinition/Condition-uv-ips"
          ]
        },
        "category": [
          {
            "coding": [
              {
                "code": "problem-list-item",
                "system": "http://terminology.hl7.org/CodeSystem/condition-category",
                "display": "Problem List Item"
              }
            ]
          }
        ],
        "code": {
          "coding": [
            {
              "code": "195662009",
              "system": "http://snomed.info/sct",
              "display": "Acute viral pharyngitis (disorder)"
            }
          ],
          "text": "Acute viral pharyngitis"
        },
        "text": {
          "status": "generated",
          "div": "<div xmlns=\"http://www.w3.org/1999/xhtml\"><table class=\"hl7__ips\"><tr><td><span class=\"grayedout\">Acute viral pharyngitis</span></td><td><span class=\"nb\">13-Mar-2025 - 23-Mar-2025</span></td><td><span class=\"grayedout\">inactive</span></td></tr></table></div>"
        },
        "onsetDateTime": "2025-03-13",
        "abatementDateTime": "2025-03-23",
        "subject": {
          "reference": "urn:uuid:",
          "display": "Russell Khan"
        },
        "asserter": {
          "reference": "urn:uuid:",
          "display": "Birmingham Children&#039;s Hospital"
        }
      }
    },
    {
      "fullUrl": "urn:uuid:42c93a54-0a5d-498a-bb7c-375c81e29161",
      "resource": {
        "resourceType": "Condition",
        "id": "42c93a54-0a5d-498a-bb7c-375c81e29161",
        "meta": {
          "profile": [
            "http://hl7.org/fhir/uv/ips/StructureDefinition/Condition-uv-ips"
          ]
        },
        "category": [
          {
            "coding": [
              {
                "code": "problem-list-item",
                "system": "http://terminology.hl7.org/CodeSystem/condition-category",
                "display": "Problem List Item"
              }
            ]
          }
        ],
        "code": {
          "coding": [
            {
              "code": "307426000",
              "system": "http://snomed.info/sct",
              "display": "Acute infective cystitis (disorder)"
            }
          ],
          "text": "Acute infective cystitis"
        },
        "text": {
          "status": "generated",
          "div": "<div xmlns=\"http://www.w3.org/1999/xhtml\"><table class=\"hl7__ips\"><tr><td><span class=\"grayedout\">Acute infective cystitis</span></td><td><span class=\"nb\">01-Nov-2021 - 03-Nov-2021</span></td><td><span class=\"grayedout\">inactive</span></td></tr></table></div>"
        },
        "onsetDateTime": "2021-11-01",
        "abatementDateTime": "2021-11-03",
        "subject": {
          "reference": "urn:uuid:",
          "display": "Russell Khan"
        },
        "asserter": {
          "reference": "urn:uuid:",
          "display": "Birmingham Children&#039;s Hospital"
        }
      }
    },
    {
      "fullUrl": "urn:uuid:0ffb3a27-6adf-45ac-90a2-fb6c1a1a022f",
      "resource": {
        "resourceType": "Condition",
        "id": "0ffb3a27-6adf-45ac-90a2-fb6c1a1a022f",
        "meta": {
          "profile": [
            "http://hl7.org/fhir/uv/ips/StructureDefinition/Condition-uv-ips"
          ]
        },
        "category": [
          {
            "coding": [
              {
                "code": "problem-list-item",
                "system": "http://terminology.hl7.org/CodeSystem/condition-category",
                "display": "Problem List Item"
              }
            ]
          }
        ],
        "code": {
          "coding": [
            {
              "code": "58150001",
              "system": "http://snomed.info/sct",
              "display": "Fracture of clavicle (disorder)"
            }
          ],
          "text": "Fracture of clavicle"
        },
        "text": {
          "status": "generated",
          "div": "<div xmlns=\"http://www.w3.org/1999/xhtml\"><table class=\"hl7__ips\"><tr><td><span class=\"grayedout\">Fracture of clavicle</span></td><td><span class=\"nb\">26-Sep-2018 - 10-Nov-2018</span></td><td><span class=\"grayedout\">inactive</span></td></tr></table></div>"
        },
        "onsetDateTime": "2018-09-26",
        "abatementDateTime": "2018-11-10",
        "subject": {
          "reference": "urn:uuid:",
          "display": "Russell Khan"
        },
        "asserter": {
          "reference": "urn:uuid:",
          "display": "Birmingham Children&#039;s Hospital"
        }
      }
    },
    {
      "fullUrl": "urn:uuid:9e2ebf02-b9e9-4cdd-a071-d538976119e4",
      "resource": {
        "resourceType": "Condition",
        "id": "9e2ebf02-b9e9-4cdd-a071-d538976119e4",
        "meta": {
          "profile": [
            "http://hl7.org/fhir/uv/ips/StructureDefinition/Condition-uv-ips"
          ]
        },
        "category": [
          {
            "coding": [
              {
                "code": "problem-list-item",
                "system": "http://terminology.hl7.org/CodeSystem/condition-category",
                "display": "Problem List Item"
              }
            ]
          }
        ],
        "code": {
          "coding": [
            {
              "code": "125605004",
              "system": "http://snomed.info/sct",
              "display": "Fracture of bone (disorder)"
            }
          ],
          "text": "Fracture of bone"
        },
        "text": {
          "status": "generated",
          "div": "<div xmlns=\"http://www.w3.org/1999/xhtml\"><table class=\"hl7__ips\"><tr><td><span class=\"grayedout\">Fracture of bone</span></td><td><span class=\"nb\">26-Sep-2018 - 10-Nov-2018</span></td><td><span class=\"grayedout\">inactive</span></td></tr></table></div>"
        },
        "onsetDateTime": "2018-09-26",
        "abatementDateTime": "2018-11-10",
        "subject": {
          "reference": "urn:uuid:",
          "display": "Russell Khan"
        },
        "asserter": {
          "reference": "urn:uuid:",
          "display": "Birmingham Children&#039;s Hospital"
        }
      }
    },
    {
      "fullUrl": "urn:uuid:6a48ada0-6881-49f1-9a22-a33c20fccfaf",
      "resource": {
        "resourceType": "Condition",
        "id": "6a48ada0-6881-49f1-9a22-a33c20fccfaf",
        "meta": {
          "profile": [
            "http://hl7.org/fhir/uv/ips/StructureDefinition/Condition-uv-ips"
          ]
        },
        "category": [
          {
            "coding": [
              {
                "code": "problem-list-item",
                "system": "http://terminology.hl7.org/CodeSystem/condition-category",
                "display": "Problem List Item"
              }
            ]
          }
        ],
        "code": {
          "coding": [
            {
              "code": "195662009",
              "system": "http://snomed.info/sct",
              "display": "Acute viral pharyngitis (disorder)"
            }
          ],
          "text": "Acute viral pharyngitis"
        },
        "text": {
          "status": "generated",
          "div": "<div xmlns=\"http://www.w3.org/1999/xhtml\"><table class=\"hl7__ips\"><tr><td><span class=\"grayedout\">Acute viral pharyngitis</span></td><td><span class=\"nb\">11-Dec-2016 - 22-Dec-2016</span></td><td><span class=\"grayedout\">inactive</span></td></tr></table></div>"
        },
        "onsetDateTime": "2016-12-11",
        "abatementDateTime": "2016-12-22",
        "subject": {
          "reference": "urn:uuid:",
          "display": "Russell Khan"
        },
        "asserter": {
          "reference": "urn:uuid:",
          "display": "Birmingham Children&#039;s Hospital"
        }
      }
    },
    {
      "fullUrl": "urn:uuid:386f609f-0c2b-485e-9ec4-e07adc95c291",
      "resource": {
        "resourceType": "Medication",
        "id": "386f609f-0c2b-485e-9ec4-e07adc95c291",
        "meta": {
          "profile": [
            "http://hl7.eu/fhir/eps/StructureDefinition/Medication-eu-eps"
          ]
        },
        "code": {
          "coding": [
            {
              "code": "1153431000",
              "system": "http://snomed.info/sct",
              "display": "Amlodipine (as amlodipine besylate) 2.5 mg oral tablet"
            }
          ],
          "text": "Amlodipine (as amlodipine besylate) 2.5 mg oral tablet"
        },
        "text": {
          "status": "generated",
          "div": "<div xmlns=\"http://www.w3.org/1999/xhtml\">Amlodipine (as amlodipine besylate) 2.5 mg oral tablet</div>"
        }
      }
    },
    {
      "fullUrl": "urn:uuid:083fed8e-0479-4f97-a580-cae224a0ccdd",
      "resource": {
        "resourceType": "MedicationStatement",
        "id": "083fed8e-0479-4f97-a580-cae224a0ccdd",
        "meta": {
          "profile": [
            "http://hl7.eu/fhir/eps/StructureDefinition/MedicationStatement-eu-eps"
          ]
        },
        "effectivePeriod": {
          "start": "2025-01-19"
        },
        "dosage": [
          {
            "doseAndRate": [
              {
                "doseQuantity": {
                  "value": 1,
                  "unit": "{tbl}",
                  "system": "$ucum",
                  "code": "{tbl}"
                }
              }
            ],
            "timing": {
              "repeat": {
                "frequency": 1,
                "period": 1,
                "periodUnit": "d"
              }
            },
            "text": "1 tablet (2.5 mg) by mouth once daily",
            "asNeededBoolean": false
          }
        ],
        "reasonCode": [
          {
            "coding": [
              {
                "code": "59621000",
                "system": "http://snomed.info/sct",
                "display": "Essential hypertension (disorder)"
              }
            ]
          }
        ],
        "text": {
          "status": "generated",
          "div": "<div xmlns=\"http://www.w3.org/1999/xhtml\"><table class=\"hl7__ips first25\"><tr><th>Medication</th><th>Since</th><th>Form</th><th>Dosage</th><th>Reason</th></tr><tr><td>Amlodipine (as amlodipine besylate) 2.5 mg oral tablet</td><td><span class=\"nb\">2025-01-19</span></td><td>-</td><td>1 tablet (2.5 mg) by mouth once daily</td><td>Essential hypertension (disorder)</td></tr></table></div>"
        },
        "status": "active",
        "medicationReference": {
          "reference": "urn:uuid:386f609f-0c2b-485e-9ec4-e07adc95c291",
          "display": "Amlodipine (as amlodipine besylate) 2.5 mg oral tablet"
        },
        "subject": {
          "reference": "urn:uuid:805cec96-0a32-48bc-b5cd-0aa267f0941a",
          "display": "Russell Khan"
        }
      }
    },
    {
      "fullUrl": "urn:uuid:18217a85-d7c9-42e4-aef2-c339e5472a39",
      "resource": {
        "resourceType": "Medication",
        "id": "18217a85-d7c9-42e4-aef2-c339e5472a39",
        "meta": {
          "profile": [
            "http://hl7.eu/fhir/eps/StructureDefinition/Medication-eu-eps"
          ]
        },
        "code": {
          "coding": [
            {
              "code": "376209006",
              "system": "http://snomed.info/sct",
              "display": "Hydrochlorothiazide 25 mg oral tablet"
            }
          ],
          "text": "Hydrochlorothiazide 25 mg oral tablet"
        },
        "text": {
          "status": "generated",
          "div": "<div xmlns=\"http://www.w3.org/1999/xhtml\">Hydrochlorothiazide 25 mg oral tablet</div>"
        }
      }
    },
    {
      "fullUrl": "urn:uuid:25d04c31-2bbd-4774-926d-1bff0792bcf0",
      "resource": {
        "resourceType": "MedicationStatement",
        "id": "25d04c31-2bbd-4774-926d-1bff0792bcf0",
        "meta": {
          "profile": [
            "http://hl7.eu/fhir/eps/StructureDefinition/MedicationStatement-eu-eps"
          ]
        },
        "effectivePeriod": {
          "start": "2025-01-19"
        },
        "dosage": [
          {
            "doseAndRate": [
              {
                "doseQuantity": {
                  "value": 1,
                  "unit": "{tbl}",
                  "system": "$ucum",
                  "code": "{tbl}"
                }
              }
            ],
            "timing": {
              "repeat": {
                "frequency": 1,
                "period": 1,
                "periodUnit": "d"
              }
            },
            "text": "1 tablet (25 mg) by mouth once daily",
            "asNeededBoolean": false
          }
        ],
        "reasonCode": [
          {
            "coding": [
              {
                "code": "59621000",
                "system": "http://snomed.info/sct",
                "display": "Essential hypertension (disorder)"
              }
            ]
          }
        ],
        "text": {
          "status": "generated",
          "div": "<div xmlns=\"http://www.w3.org/1999/xhtml\"><table class=\"hl7__ips first25\"><tr><th>Medication</th><th>Since</th><th>Form</th><th>Dosage</th><th>Reason</th></tr><tr><td>Hydrochlorothiazide 25 mg oral tablet</td><td><span class=\"nb\">2025-01-19</span></td><td>-</td><td>1 tablet (25 mg) by mouth once daily</td><td>Essential hypertension (disorder)</td></tr></table></div>"
        },
        "status": "active",
        "medicationReference": {
          "reference": "urn:uuid:18217a85-d7c9-42e4-aef2-c339e5472a39",
          "display": "Hydrochlorothiazide 25 mg oral tablet"
        },
        "subject": {
          "reference": "urn:uuid:805cec96-0a32-48bc-b5cd-0aa267f0941a",
          "display": "Russell Khan"
        }
      }
    },
    {
      "fullUrl": "urn:uuid:fc70e209-e863-4102-8894-8f9c424eddaa",
      "resource": {
        "resourceType": "Medication",
        "id": "fc70e209-e863-4102-8894-8f9c424eddaa",
        "meta": {
          "profile": [
            "http://hl7.eu/fhir/eps/StructureDefinition/Medication-eu-eps"
          ]
        },
        "code": {
          "coding": [
            {
              "code": "318859000",
              "system": "http://snomed.info/sct",
              "display": "Lisinopril 10 mg oral tablet"
            }
          ],
          "text": "Lisinopril 10 mg oral tablet"
        },
        "text": {
          "status": "generated",
          "div": "<div xmlns=\"http://www.w3.org/1999/xhtml\">Lisinopril 10 mg oral tablet</div>"
        }
      }
    },
    {
      "fullUrl": "urn:uuid:561583c6-38a8-441e-809d-f5b4e76aac20",
      "resource": {
        "resourceType": "MedicationStatement",
        "id": "561583c6-38a8-441e-809d-f5b4e76aac20",
        "meta": {
          "profile": [
            "http://hl7.eu/fhir/eps/StructureDefinition/MedicationStatement-eu-eps"
          ]
        },
        "effectivePeriod": {
          "start": "2025-01-19"
        },
        "dosage": [
          {
            "doseAndRate": [
              {
                "doseQuantity": {
                  "value": 1,
                  "unit": "{tbl}",
                  "system": "$ucum",
                  "code": "{tbl}"
                }
              }
            ],
            "timing": {
              "repeat": {
                "frequency": 1,
                "period": 1,
                "periodUnit": "d"
              }
            },
            "text": "1 tablet (10 mg) by mouth once daily",
            "asNeededBoolean": false
          }
        ],
        "reasonCode": [
          {
            "coding": [
              {
                "code": "59621000",
                "system": "http://snomed.info/sct",
                "display": "Essential hypertension (disorder)"
              }
            ]
          }
        ],
        "text": {
          "status": "generated",
          "div": "<div xmlns=\"http://www.w3.org/1999/xhtml\"><table class=\"hl7__ips first25\"><tr><th>Medication</th><th>Since</th><th>Form</th><th>Dosage</th><th>Reason</th></tr><tr><td>Lisinopril 10 mg oral tablet</td><td><span class=\"nb\">2025-01-19</span></td><td>-</td><td>1 tablet (10 mg) by mouth once daily</td><td>Essential hypertension (disorder)</td></tr></table></div>"
        },
        "status": "active",
        "medicationReference": {
          "reference": "urn:uuid:fc70e209-e863-4102-8894-8f9c424eddaa",
          "display": "Lisinopril 10 mg oral tablet"
        },
        "subject": {
          "reference": "urn:uuid:805cec96-0a32-48bc-b5cd-0aa267f0941a",
          "display": "Russell Khan"
        }
      }
    },
    {
      "fullUrl": "urn:uuid:bc9d0f4f-77f5-40ed-8051-617bd70f7a70",
      "resource": {
        "resourceType": "Medication",
        "id": "bc9d0f4f-77f5-40ed-8051-617bd70f7a70",
        "meta": {
          "profile": [
            "http://hl7.eu/fhir/eps/StructureDefinition/Medication-eu-eps"
          ]
        },
        "code": {
          "coding": [
            {
              "code": "376561007",
              "system": "http://snomed.info/sct",
              "display": "Albuterol (as albuterol sulfate) 830 microgram/mL solution for inhalation"
            }
          ],
          "text": "Albuterol (as albuterol sulfate) 830 microgram/mL solution for inhalation"
        },
        "text": {
          "status": "generated",
          "div": "<div xmlns=\"http://www.w3.org/1999/xhtml\">Albuterol (as albuterol sulfate) 830 microgram/mL solution for inhalation</div>"
        }
      }
    },
    {
      "fullUrl": "urn:uuid:910a2a0e-8d34-4608-8e57-9e89d555a32a",
      "resource": {
        "resourceType": "MedicationStatement",
        "id": "910a2a0e-8d34-4608-8e57-9e89d555a32a",
        "meta": {
          "profile": [
            "http://hl7.eu/fhir/eps/StructureDefinition/MedicationStatement-eu-eps"
          ]
        },
        "effectivePeriod": {
          "start": "2025-01-19"
        },
        "dosage": [
          {
            "doseAndRate": [
              {
                "doseQuantity": {
                  "value": 2.5,
                  "unit": "mg",
                  "system": "$ucum",
                  "code": "mg"
                }
              }
            ],
            "timing": {
              "repeat": {
                "frequency": 1,
                "period": 4,
                "periodUnit": "h"
              }
            },
            "text": "2.5 mg (3 mL of 830 microgram/mL solution) via nebulizer every 4 to 6 hours as needed",
            "asNeededBoolean": true
          }
        ],
        "reasonCode": [
          {
            "coding": [
              {
                "code": "233678006",
                "system": "http://snomed.info/sct",
                "display": "Childhood asthma"
              }
            ]
          }
        ],
        "text": {
          "status": "generated",
          "div": "<div xmlns=\"http://www.w3.org/1999/xhtml\"><table class=\"hl7__ips first25\"><tr><th>Medication</th><th>Since</th><th>Form</th><th>Dosage</th><th>Reason</th></tr><tr><td>Albuterol (as albuterol sulfate) 830 microgram/mL solution for inhalation</td><td><span class=\"nb\">2025-01-19</span></td><td>-</td><td>2.5 mg (3 mL of 830 microgram/mL solution) via nebulizer every 4 to 6 hours as needed</td><td>Childhood asthma</td></tr></table></div>"
        },
        "status": "active",
        "medicationReference": {
          "reference": "urn:uuid:bc9d0f4f-77f5-40ed-8051-617bd70f7a70",
          "display": "Albuterol (as albuterol sulfate) 830 microgram/mL solution for inhalation"
        },
        "subject": {
          "reference": "urn:uuid:805cec96-0a32-48bc-b5cd-0aa267f0941a",
          "display": "Russell Khan"
        }
      }
    },
    {
      "fullUrl": "urn:uuid:7cd806cd-74d0-4e38-b2ed-8cf95f4f33c1",
      "resource": {
        "resourceType": "Medication",
        "id": "7cd806cd-74d0-4e38-b2ed-8cf95f4f33c1",
        "meta": {
          "profile": [
            "http://hl7.eu/fhir/eps/StructureDefinition/Medication-eu-eps"
          ]
        },
        "code": {
          "coding": [
            {
              "code": "895996",
              "system": "http://www.nlm.nih.gov/research/umls/rxnorm",
              "display": "120 ACTUAT fluticasone propionate 0.044 MG/ACTUAT Metered Dose Inhaler [Flovent]"
            }
          ],
          "text": "120 ACTUAT fluticasone propionate 0.044 MG/ACTUAT Metered Dose Inhaler [Flovent]"
        },
        "text": {
          "status": "generated",
          "div": "<div xmlns=\"http://www.w3.org/1999/xhtml\">120 ACTUAT fluticasone propionate 0.044 MG/ACTUAT Metered Dose Inhaler [Flovent]</div>"
        }
      }
    },
    {
      "fullUrl": "urn:uuid:ecc2c713-fc6e-4201-ad6b-71fd468c6729",
      "resource": {
        "resourceType": "MedicationStatement",
        "id": "ecc2c713-fc6e-4201-ad6b-71fd468c6729",
        "meta": {
          "profile": [
            "http://hl7.eu/fhir/eps/StructureDefinition/MedicationStatement-eu-eps"
          ]
        },
        "effectivePeriod": {
          "start": "2025-01-19"
        },
        "dosage": [
          {
            "doseAndRate": [
              {
                "doseQuantity": {
                  "value": 44,
                  "unit": "mcg",
                  "system": "$ucum",
                  "code": "mcg"
                }
              }
            ],
            "timing": {
              "repeat": {
                "frequency": 2,
                "period": 1,
                "periodUnit": "d"
              }
            },
            "text": "44 mcg inhaled twice daily",
            "asNeededBoolean": false
          }
        ],
        "reasonCode": [
          {
            "coding": [
              {
                "code": "233678006",
                "system": "http://snomed.info/sct",
                "display": "Childhood asthma"
              }
            ]
          }
        ],
        "text": {
          "status": "generated",
          "div": "<div xmlns=\"http://www.w3.org/1999/xhtml\"><table class=\"hl7__ips first25\"><tr><th>Medication</th><th>Since</th><th>Form</th><th>Dosage</th><th>Reason</th></tr><tr><td>120 ACTUAT fluticasone propionate 0.044 MG/ACTUAT Metered Dose Inhaler [Flovent]</td><td><span class=\"nb\">2025-01-19</span></td><td>-</td><td>44 mcg inhaled twice daily</td><td>Childhood asthma</td></tr></table></div>"
        },
        "status": "active",
        "medicationReference": {
          "reference": "urn:uuid:7cd806cd-74d0-4e38-b2ed-8cf95f4f33c1",
          "display": "120 ACTUAT fluticasone propionate 0.044 MG/ACTUAT Metered Dose Inhaler [Flovent]"
        },
        "subject": {
          "reference": "urn:uuid:805cec96-0a32-48bc-b5cd-0aa267f0941a",
          "display": "Russell Khan"
        }
      }
    },
    {
      "fullUrl": "urn:uuid:779cd6e6-34d5-49ba-bc2d-2cedf92543df",
      "resource": {
        "resourceType": "Immunization",
        "id": "779cd6e6-34d5-49ba-bc2d-2cedf92543df",
        "meta": {
          "profile": [
            "http://hl7.org/fhir/uv/ips/StructureDefinition/Immunization-uv-ips"
          ]
        },
        "vaccineCode": {
          "coding": [
            {
              "code": "1181000221105",
              "system": "http://snomed.info/sct",
              "display": "Vaccine product containing Influenza virus antigen"
            },
            {
              "code": "J07BB02",
              "system": "http://www.whocc.no/atc",
              "display": "Influenza, inactivated, split virus"
            }
          ],
          "text": "Influenza virus antigen only vaccine product"
        },
        "site": {
          "coding": [
            {
              "code": "244979005",
              "system": "http://snomed.info/sct",
              "display": "Entire muscle of upper arm"
            }
          ],
          "text": "Entire muscle of upper arm"
        },
        "route": {
          "coding": [
            {
              "code": "78421000",
              "system": "http://snomed.info/sct",
              "display": "Intramuscular route"
            }
          ],
          "text": "Intramuscular route"
        },
        "text": {
          "status": "generated",
          "div": "<div xmlns=\"http://www.w3.org/1999/xhtml\"><table class=\"hl7__ips\"><tr><td>Influenza virus antigen only vaccine product</td><td><span class=\"nb\">19-Jan-2025</span></td></tr></table></div>"
        },
        "status": "completed",
        "patient": {
          "reference": "urn:uuid:805cec96-0a32-48bc-b5cd-0aa267f0941a",
          "display": "Russell Khan"
        },
        "occurrenceDateTime": "2025-01-19",
        "lotNumber": "TA-Fznx",
        "expirationDate": "2025-05-05"
      }
    },
    {
      "fullUrl": "urn:uuid:440c3444-f243-48a8-ab50-de1cd3da67ec",
      "resource": {
        "resourceType": "Immunization",
        "id": "440c3444-f243-48a8-ab50-de1cd3da67ec",
        "meta": {
          "profile": [
            "http://hl7.org/fhir/uv/ips/StructureDefinition/Immunization-uv-ips"
          ]
        },
        "vaccineCode": {
          "coding": [
            {
              "code": "29061000087103",
              "system": "http://snomed.info/sct",
              "display": "Vaccine product containing recombinant viral vector encoding SARS-CoV-2 spike protein"
            },
            {
              "code": "J07BX03",
              "system": "http://www.whocc.no/atc",
              "display": "COVID-19 vector vaccines (non-replicating)"
            }
          ],
          "text": "COVID-19 non-replicating viral vector vaccine"
        },
        "site": {
          "coding": [
            {
              "code": "244979005",
              "system": "http://snomed.info/sct",
              "display": "Entire muscle of upper arm"
            }
          ],
          "text": "Entire muscle of upper arm"
        },
        "route": {
          "coding": [
            {
              "code": "78421000",
              "system": "http://snomed.info/sct",
              "display": "Intramuscular route"
            }
          ],
          "text": "Intramuscular route"
        },
        "text": {
          "status": "generated",
          "div": "<div xmlns=\"http://www.w3.org/1999/xhtml\"><table class=\"hl7__ips\"><tr><td>COVID-19 non-replicating viral vector vaccine</td><td><span class=\"nb\">25-Apr-2021</span></td></tr></table></div>"
        },
        "status": "completed",
        "patient": {
          "reference": "urn:uuid:805cec96-0a32-48bc-b5cd-0aa267f0941a",
          "display": "Russell Khan"
        },
        "occurrenceDateTime": "2021-04-25",
        "lotNumber": "MY-Dsm0QD",
        "expirationDate": "2021-10-22"
      }
    },
    {
      "fullUrl": "urn:uuid:6aeb5541-f51a-457d-9a29-45204bac1c79",
      "resource": {
        "resourceType": "Immunization",
        "id": "6aeb5541-f51a-457d-9a29-45204bac1c79",
        "meta": {
          "profile": [
            "http://hl7.org/fhir/uv/ips/StructureDefinition/Immunization-uv-ips"
          ]
        },
        "vaccineCode": {
          "coding": [
            {
              "code": "871751006",
              "system": "http://snomed.info/sct",
              "display": "Vaccine product containing Hepatitis A virus antigen"
            },
            {
              "code": "J07BC02",
              "system": "http://www.whocc.no/atc",
              "display": "Hepatitis A vaccines"
            }
          ],
          "text": "Hepatitis A virus antigen only vaccine product"
        },
        "site": {
          "coding": [
            {
              "code": "244979005",
              "system": "http://snomed.info/sct",
              "display": "Entire muscle of upper arm"
            }
          ],
          "text": "Entire muscle of upper arm"
        },
        "route": {
          "coding": [
            {
              "code": "78421000",
              "system": "http://snomed.info/sct",
              "display": "Intramuscular route"
            }
          ],
          "text": "Intramuscular route"
        },
        "text": {
          "status": "generated",
          "div": "<div xmlns=\"http://www.w3.org/1999/xhtml\"><table class=\"hl7__ips\"><tr><td>Hepatitis A virus antigen only vaccine product</td><td><span class=\"nb\">27-Dec-2020</span></td></tr></table></div>"
        },
        "status": "completed",
        "patient": {
          "reference": "urn:uuid:805cec96-0a32-48bc-b5cd-0aa267f0941a",
          "display": "Russell Khan"
        },
        "occurrenceDateTime": "2020-12-27",
        "lotNumber": "DA-ZH17Vp",
        "expirationDate": "2021-09-15"
      }
    },
    {
      "fullUrl": "urn:uuid:8bd73c1a-6984-46f6-b79d-c95c7318449c",
      "resource": {
        "resourceType": "Immunization",
        "id": "8bd73c1a-6984-46f6-b79d-c95c7318449c",
        "meta": {
          "profile": [
            "http://hl7.org/fhir/uv/ips/StructureDefinition/Immunization-uv-ips"
          ]
        },
        "vaccineCode": {
          "coding": [
            {
              "code": "777725002",
              "system": "http://snomed.info/sct",
              "display": "Vaccine product containing only Clostridium tetani toxoid antigen adsorbed"
            },
            {
              "code": "J07AM51",
              "system": "http://www.whocc.no/atc",
              "display": "Diphtheria-tetanus vaccines, adult type"
            }
          ],
          "text": "Clostridium tetani toxoid antigen adsorbed only vaccine product"
        },
        "site": {
          "coding": [
            {
              "code": "244979005",
              "system": "http://snomed.info/sct",
              "display": "Entire muscle of upper arm"
            }
          ],
          "text": "Entire muscle of upper arm"
        },
        "route": {
          "coding": [
            {
              "code": "78421000",
              "system": "http://snomed.info/sct",
              "display": "Intramuscular route"
            }
          ],
          "text": "Intramuscular route"
        },
        "text": {
          "status": "generated",
          "div": "<div xmlns=\"http://www.w3.org/1999/xhtml\"><table class=\"hl7__ips\"><tr><td>Clostridium tetani toxoid antigen adsorbed only vaccine product</td><td><span class=\"nb\">27-Dec-2020</span></td></tr></table></div>"
        },
        "status": "completed",
        "patient": {
          "reference": "urn:uuid:805cec96-0a32-48bc-b5cd-0aa267f0941a",
          "display": "Russell Khan"
        },
        "occurrenceDateTime": "2020-12-27",
        "lotNumber": "JM-L21mgX",
        "expirationDate": "2021-06-09"
      }
    },
    {
      "fullUrl": "urn:uuid:8ab0dc00-754a-49a8-b3a6-b0d9777f555e",
      "resource": {
        "resourceType": "Procedure",
        "id": "8ab0dc00-754a-49a8-b3a6-b0d9777f555e",
        "meta": {
          "profile": [
            "http://hl7.org/fhir/uv/ips/StructureDefinition/Procedure-uv-ips"
          ]
        },
        "code": {
          "coding": [
            {
              "code": "168594001",
              "system": "http://snomed.info/sct",
              "display": "Clavicle X-ray"
            }
          ],
          "text": "Plain X-ray of clavicle"
        },
        "text": {
          "status": "generated",
          "div": "<div xmlns=\"http://www.w3.org/1999/xhtml\"><table class=\"hl7__ips\"><tr><td>Plain X-ray of clavicle</td><td><span class=\"nb\">26-Sep-2018</span></td><td>-</td></tr></table></div>"
        },
        "status": "completed",
        "performedDateTime": "2018-09-26",
        "subject": {
          "reference": "urn:uuid:",
          "display": "Russell Khan"
        }
      }
    },
    {
      "fullUrl": "urn:uuid:accb63a1-0cd1-4476-9001-9160ef886d7c",
      "resource": {
        "resourceType": "Procedure",
        "id": "accb63a1-0cd1-4476-9001-9160ef886d7c",
        "meta": {
          "profile": [
            "http://hl7.org/fhir/uv/ips/StructureDefinition/Procedure-uv-ips"
          ]
        },
        "code": {
          "coding": [
            {
              "code": "305428000",
              "system": "http://snomed.info/sct",
              "display": "Admission to orthopedic department"
            }
          ],
          "text": "Admission to orthopedic department"
        },
        "reasonCode": [
          {
            "coding": [
              {
                "code": "58150001",
                "system": "http://snomed.info/sct",
                "display": "Fracture of clavicle"
              }
            ]
          }
        ],
        "text": {
          "status": "generated",
          "div": "<div xmlns=\"http://www.w3.org/1999/xhtml\"><table class=\"hl7__ips\"><tr><td>Admission to orthopedic department</td><td><span class=\"nb\">26-Sep-2018</span></td><td>Fracture of clavicle</td></tr></table></div>"
        },
        "status": "completed",
        "performedDateTime": "2018-09-26",
        "subject": {
          "reference": "urn:uuid:",
          "display": "Russell Khan"
        }
      }
    },
    {
      "fullUrl": "urn:uuid:ae8a3dfa-189e-4540-96cd-8853f5470644",
      "resource": {
        "resourceType": "AllergyIntolerance",
        "id": "ae8a3dfa-189e-4540-96cd-8853f5470644",
        "meta": {
          "profile": [
            "http://hl7.eu/fhir/eps/StructureDefinition/allergyIntolerance-eu-eps"
          ]
        },
        "code": {
          "text": ""
        },
        "clinicalStatus": {
          "coding": [
            {
              "code": "active",
              "system": "http://terminology.hl7.org/CodeSystem/allergyintolerance-clinical"
            }
          ]
        },
        "text": {
          "status": "generated",
          "div": "<div xmlns=\"http://www.w3.org/1999/xhtml\"><table class=\"hl7__ips\"><tr><th>Allergy/Intolerance</th><th>Onset Date</th><th>Status</th><th>Type</th><th>Reaction</th></tr><tr><td></td><td>?</td><td>active</td><td>?</td><td></td></tr></table></div>"
        },
        "verificationStatus": {
          "coding": [
            {
              "code": "confirmed",
              "system": "http://terminology.hl7.org/CodeSystem/allergyintolerance-verification"
            }
          ]
        },
        "patient": {
          "reference": "urn:uuid:805cec96-0a32-48bc-b5cd-0aa267f0941a",
          "display": "Russell Khan"
        },
        "_onsetDateTime": {
          "extension": [
            {
              "url": "http://hl7.org/fhir/StructureDefinition/data-absent-reason",
              "valueCode": "unknown"
            }
          ]
        }
      }
    },
    {
      "fullUrl": "urn:uuid:71e9e1c3-62af-4a32-ae9a-1860d1b3e5d7",
      "resource": {
        "resourceType": "CarePlan",
        "id": "71e9e1c3-62af-4a32-ae9a-1860d1b3e5d7",
        "category": [
          {
            "coding": [
              {
                "code": "assess-plan",
                "system": "http://terminology.hl7.org/CodeSystem/care-plan-category",
                "display": "Assessment and Plan"
              }
            ]
          }
        ],
        "activity": [
          {
            "detail": {
              "code": {
                "coding": [
                  {
                    "code": "443402002",
                    "system": "http://snomed.info/sct",
                    "display": "Lifestyle education regarding hypertension (procedure)"
                  }
                ]
              },
              "reasonCode": [
                {
                  "coding": [
                    {
                      "code": "59621000",
                      "system": "http://snomed.info/sct",
                      "display": "Essential hypertension (disorder)"
                    }
                  ]
                }
              ],
              "status": "unknown",
              "description": "Lifestyle education regarding hypertension",
              "kind": "Appointment"
            }
          }
        ],
        "period": {
          "start": "2002-09-15"
        },
        "goal": [
          {
            "reference": "urn:uuid:0e72c072-b453-42eb-9f94-78ace6cfab04"
          },
          {
            "reference": "urn:uuid:455b6f85-eb36-4d89-96f8-ca15dc9035af"
          }
        ],
        "text": {
          "status": "generated",
          "div": "<div xmlns=\"http://www.w3.org/1999/xhtml\"><table class=\"hl7__ips first25\"><tr><th>Active Planned Care / Goals</th><th>Start Date</th><th>Reason</th></tr><tr><td>Lifestyle education regarding hypertension</td><td><span class=\"nb\">15-Sep-2002</span></td><td>Essential hypertension (disorder)</td></tr><tr><td><ul><li>Achieve and maintain blood pressure below 130/80 mmHg through lifestyle modifications.</li><li>Patient will demonstrate understanding of hypertension and recommended lifestyle changes (diet, exercise, sodium reduction, weight management, alcohol moderation) within 3 months.</li></ul></td><td></td><td></td></tr></table></div>"
        },
        "status": "active",
        "intent": "plan",
        "subject": {
          "reference": "urn:uuid:805cec96-0a32-48bc-b5cd-0aa267f0941a",
          "display": "Russell Khan"
        }
      }
    },
    {
      "fullUrl": "urn:uuid:0a5165b6-c0dc-44ba-a470-11b70c74e1d7",
      "resource": {
        "resourceType": "CarePlan",
        "id": "0a5165b6-c0dc-44ba-a470-11b70c74e1d7",
        "category": [
          {
            "coding": [
              {
                "code": "assess-plan",
                "system": "http://terminology.hl7.org/CodeSystem/care-plan-category",
                "display": "Assessment and Plan"
              }
            ]
          }
        ],
        "activity": [
          {
            "detail": {
              "code": {
                "coding": [
                  {
                    "code": "718361005",
                    "system": "http://snomed.info/sct",
                    "display": "Weight management program (regime/therapy)"
                  }
                ]
              },
              "status": "unknown",
              "description": "Weight management program",
              "kind": "Appointment"
            }
          }
        ],
        "period": {
          "start": "1986-06-15"
        },
        "text": {
          "status": "generated",
          "div": "<div xmlns=\"http://www.w3.org/1999/xhtml\"><table class=\"hl7__ips first25\"><tr><th>Active Planned Care / Goals</th><th>Start Date</th><th>Reason</th></tr><tr><td>Weight management program</td><td><span class=\"nb\">15-Jun-1986</span></td><td>-</td></tr></table></div>"
        },
        "status": "active",
        "intent": "plan",
        "subject": {
          "reference": "urn:uuid:805cec96-0a32-48bc-b5cd-0aa267f0941a",
          "display": "Russell Khan"
        }
      }
    },
    {
      "fullUrl": "urn:uuid:4a0843cb-fd48-4d82-9947-2cdf2227a46b",
      "resource": {
        "resourceType": "CarePlan",
        "id": "4a0843cb-fd48-4d82-9947-2cdf2227a46b",
        "category": [
          {
            "coding": [
              {
                "code": "assess-plan",
                "system": "http://terminology.hl7.org/CodeSystem/care-plan-category",
                "display": "Assessment and Plan"
              }
            ]
          }
        ],
        "activity": [
          {
            "detail": {
              "code": {
                "coding": [
                  {
                    "code": "699728000",
                    "system": "http://snomed.info/sct",
                    "display": "Asthma self management (regime/therapy)"
                  }
                ]
              },
              "reasonCode": [
                {
                  "coding": [
                    {
                      "code": "233678006",
                      "system": "http://snomed.info/sct",
                      "display": "Childhood asthma"
                    }
                  ]
                }
              ],
              "status": "unknown",
              "description": "Asthma self management",
              "kind": "Appointment"
            }
          }
        ],
        "period": {
          "start": "1983-02-02"
        },
        "goal": [
          {
            "reference": "urn:uuid:50dc56bd-466a-4709-b02c-4ea8cbd7cc5c"
          },
          {
            "reference": "urn:uuid:440fc090-b97d-4763-b82b-ccf612d6e446"
          },
          {
            "reference": "urn:uuid:5910ab74-4f36-4d65-a9c5-a2c07490fb08"
          }
        ],
        "text": {
          "status": "generated",
          "div": "<div xmlns=\"http://www.w3.org/1999/xhtml\"><table class=\"hl7__ips first25\"><tr><th>Active Planned Care / Goals</th><th>Start Date</th><th>Reason</th></tr><tr><td>Asthma self management</td><td><span class=\"nb\">02-Feb-1983</span></td><td>Childhood asthma</td></tr><tr><td><ul><li>Patient will maintain peak expiratory flow at or above 80% of personal best through adherence to asthma self-management plan.</li><li>Patient will have no more than 2 uses of rescue inhaler per week.</li><li>Patient will experience daytime asthma symptoms no more than 2 days per week.</li></ul></td><td></td><td></td></tr></table></div>"
        },
        "status": "active",
        "intent": "plan",
        "subject": {
          "reference": "urn:uuid:805cec96-0a32-48bc-b5cd-0aa267f0941a",
          "display": "Russell Khan"
        }
      }
    },
    {
      "fullUrl": "urn:uuid:8f9c7098-b1d4-40bd-b869-7c46c13fddee",
      "resource": {
        "resourceType": "Observation",
        "id": "8f9c7098-b1d4-40bd-b869-7c46c13fddee",
        "meta": {
          "profile": [
            "http://hl7.org/fhir/StructureDefinition/vitalsigns"
          ]
        },
        "category": [
          {
            "coding": [
              {
                "system": "http://terminology.hl7.org/CodeSystem/observation-category",
                "code": "vital-signs",
                "display": "Vital Signs"
              }
            ]
          }
        ],
        "valueQuantity": {
          "value": 37.4,
          "code": "Cel",
          "unit": "Cel"
        },
        "text": {
          "status": "generated",
          "div": "<div xmlns=\"http://www.w3.org/1999/xhtml\"><table class=\"hl7__ips\"><tr><th>Vital Sign</th><th>Date</th><th>Measurement</th></tr><tr><td>Body temperature</td><td>13-Mar-2025</td><td>37.4 Cel</td></tr></table></div>"
        },
        "status": "final",
        "code": {
          "coding": [
            {
              "code": "$8310-5",
              "system": "http://loinc.org",
              "display": "Body temperature"
            }
          ]
        },
        "subject": {
          "reference": "urn:uuid:805cec96-0a32-48bc-b5cd-0aa267f0941a",
          "display": "Russell Khan"
        },
        "effectiveDateTime": "2025-03-13"
      }
    },
    {
      "fullUrl": "urn:uuid:9dfd0cf2-1dd5-4265-961f-43b1b6882a1b",
      "resource": {
        "resourceType": "Observation",
        "id": "9dfd0cf2-1dd5-4265-961f-43b1b6882a1b",
        "meta": {
          "profile": [
            "http://hl7.org/fhir/StructureDefinition/vitalsigns"
          ]
        },
        "category": [
          {
            "coding": [
              {
                "system": "http://terminology.hl7.org/CodeSystem/observation-category",
                "code": "vital-signs",
                "display": "Vital Signs"
              }
            ]
          }
        ],
        "valueQuantity": {
          "value": 168.1,
          "code": "cm",
          "unit": "cm"
        },
        "text": {
          "status": "generated",
          "div": "<div xmlns=\"http://www.w3.org/1999/xhtml\"><table class=\"hl7__ips\"><tr><th>Vital Sign</th><th>Date</th><th>Measurement</th></tr><tr><td>Body Height</td><td>19-Jan-2025</td><td>168.1 cm</td></tr></table></div>"
        },
        "status": "final",
        "code": {
          "coding": [
            {
              "code": "$8302-2",
              "system": "http://loinc.org",
              "display": "Body Height"
            }
          ]
        },
        "subject": {
          "reference": "urn:uuid:805cec96-0a32-48bc-b5cd-0aa267f0941a",
          "display": "Russell Khan"
        },
        "effectiveDateTime": "2025-01-19"
      }
    },
    {
      "fullUrl": "urn:uuid:91532997-c360-4b76-87af-41f78ab2ccd7",
      "resource": {
        "resourceType": "Observation",
        "id": "91532997-c360-4b76-87af-41f78ab2ccd7",
        "meta": {
          "profile": [
            "http://hl7.org/fhir/StructureDefinition/vitalsigns"
          ]
        },
        "category": [
          {
            "coding": [
              {
                "system": "http://terminology.hl7.org/CodeSystem/observation-category",
                "code": "vital-signs",
                "display": "Vital Signs"
              }
            ]
          }
        ],
        "valueQuantity": {
          "value": 0,
          "code": "{score}",
          "unit": "{score}"
        },
        "text": {
          "status": "generated",
          "div": "<div xmlns=\"http://www.w3.org/1999/xhtml\"><table class=\"hl7__ips\"><tr><th>Vital Sign</th><th>Date</th><th>Measurement</th></tr><tr><td>Pain severity - 0-10 verbal numeric rating [Score] - Reported</td><td>19-Jan-2025</td><td>0 {score}</td></tr></table></div>"
        },
        "status": "final",
        "code": {
          "coding": [
            {
              "code": "$72514-3",
              "system": "http://loinc.org",
              "display": "Pain severity - 0-10 verbal numeric rating [Score] - Reported"
            }
          ]
        },
        "subject": {
          "reference": "urn:uuid:805cec96-0a32-48bc-b5cd-0aa267f0941a",
          "display": "Russell Khan"
        },
        "effectiveDateTime": "2025-01-19"
      }
    },
    {
      "fullUrl": "urn:uuid:a40d5247-6de3-49ec-a26b-d908f31f1b68",
      "resource": {
        "resourceType": "Observation",
        "id": "a40d5247-6de3-49ec-a26b-d908f31f1b68",
        "meta": {
          "profile": [
            "http://hl7.org/fhir/StructureDefinition/vitalsigns"
          ]
        },
        "category": [
          {
            "coding": [
              {
                "system": "http://terminology.hl7.org/CodeSystem/observation-category",
                "code": "vital-signs",
                "display": "Vital Signs"
              }
            ]
          }
        ],
        "valueQuantity": {
          "value": 80.4,
          "code": "kg",
          "unit": "kg"
        },
        "text": {
          "status": "generated",
          "div": "<div xmlns=\"http://www.w3.org/1999/xhtml\"><table class=\"hl7__ips\"><tr><th>Vital Sign</th><th>Date</th><th>Measurement</th></tr><tr><td>Body Weight</td><td>19-Jan-2025</td><td>80.4 kg</td></tr></table></div>"
        },
        "status": "final",
        "code": {
          "coding": [
            {
              "code": "$29463-7",
              "system": "http://loinc.org",
              "display": "Body Weight"
            }
          ]
        },
        "subject": {
          "reference": "urn:uuid:805cec96-0a32-48bc-b5cd-0aa267f0941a",
          "display": "Russell Khan"
        },
        "effectiveDateTime": "2025-01-19"
      }
    },
    {
      "fullUrl": "urn:uuid:c4fd165e-f274-479d-9667-42b33d2ac41f",
      "resource": {
        "resourceType": "Observation",
        "id": "c4fd165e-f274-479d-9667-42b33d2ac41f",
        "meta": {
          "profile": [
            "http://hl7.org/fhir/StructureDefinition/vitalsigns"
          ]
        },
        "category": [
          {
            "coding": [
              {
                "system": "http://terminology.hl7.org/CodeSystem/observation-category",
                "code": "vital-signs",
                "display": "Vital Signs"
              }
            ]
          }
        ],
        "valueQuantity": {
          "value": 28.5,
          "code": "kg/m2",
          "unit": "kg/m2"
        },
        "text": {
          "status": "generated",
          "div": "<div xmlns=\"http://www.w3.org/1999/xhtml\"><table class=\"hl7__ips\"><tr><th>Vital Sign</th><th>Date</th><th>Measurement</th></tr><tr><td>Body mass index (BMI) [Ratio]</td><td>19-Jan-2025</td><td>28.5 kg/m2</td></tr></table></div>"
        },
        "status": "final",
        "code": {
          "coding": [
            {
              "code": "$39156-5",
              "system": "http://loinc.org",
              "display": "Body mass index (BMI) [Ratio]"
            }
          ]
        },
        "subject": {
          "reference": "urn:uuid:805cec96-0a32-48bc-b5cd-0aa267f0941a",
          "display": "Russell Khan"
        },
        "effectiveDateTime": "2025-01-19"
      }
    },
    {
      "fullUrl": "urn:uuid:745a656c-e461-4608-af6d-1efbd53f0488",
      "resource": {
        "resourceType": "Observation",
        "id": "745a656c-e461-4608-af6d-1efbd53f0488",
        "meta": {
          "profile": [
            "http://hl7.org/fhir/StructureDefinition/vitalsigns"
          ]
        },
        "category": [
          {
            "coding": [
              {
                "system": "http://terminology.hl7.org/CodeSystem/observation-category",
                "code": "vital-signs",
                "display": "Vital Signs"
              }
            ]
          }
        ],
        "valueQuantity": {
          "value": 56,
          "code": "mm[Hg]",
          "unit": "mm[Hg]"
        },
        "text": {
          "status": "generated",
          "div": "<div xmlns=\"http://www.w3.org/1999/xhtml\"><table class=\"hl7__ips\"><tr><th>Vital Sign</th><th>Date</th><th>Measurement</th></tr><tr><td>Diastolic Blood Pressure</td><td>19-Jan-2025</td><td>56 mm[Hg]</td></tr></table></div>"
        },
        "status": "final",
        "code": {
          "coding": [
            {
              "code": "$8462-4",
              "system": "http://loinc.org",
              "display": "Diastolic Blood Pressure"
            }
          ]
        },
        "subject": {
          "reference": "urn:uuid:805cec96-0a32-48bc-b5cd-0aa267f0941a",
          "display": "Russell Khan"
        },
        "effectiveDateTime": "2025-01-19"
      }
    },
    {
      "fullUrl": "urn:uuid:9568b8ce-939c-4588-a5b1-6ab07c8caa12",
      "resource": {
        "resourceType": "Observation",
        "id": "9568b8ce-939c-4588-a5b1-6ab07c8caa12",
        "meta": {
          "profile": [
            "http://hl7.org/fhir/StructureDefinition/vitalsigns"
          ]
        },
        "category": [
          {
            "coding": [
              {
                "system": "http://terminology.hl7.org/CodeSystem/observation-category",
                "code": "vital-signs",
                "display": "Vital Signs"
              }
            ]
          }
        ],
        "valueQuantity": {
          "value": 76,
          "code": "mm[Hg]",
          "unit": "mm[Hg]"
        },
        "text": {
          "status": "generated",
          "div": "<div xmlns=\"http://www.w3.org/1999/xhtml\"><table class=\"hl7__ips\"><tr><th>Vital Sign</th><th>Date</th><th>Measurement</th></tr><tr><td>Systolic Blood Pressure</td><td>19-Jan-2025</td><td>76 mm[Hg]</td></tr></table></div>"
        },
        "status": "final",
        "code": {
          "coding": [
            {
              "code": "$8480-6",
              "system": "http://loinc.org",
              "display": "Systolic Blood Pressure"
            }
          ]
        },
        "subject": {
          "reference": "urn:uuid:805cec96-0a32-48bc-b5cd-0aa267f0941a",
          "display": "Russell Khan"
        },
        "effectiveDateTime": "2025-01-19"
      }
    },
    {
      "fullUrl": "urn:uuid:2060df86-d2c1-4651-a1f7-34f70c238e33",
      "resource": {
        "resourceType": "Observation",
        "id": "2060df86-d2c1-4651-a1f7-34f70c238e33",
        "meta": {
          "profile": [
            "http://hl7.org/fhir/StructureDefinition/vitalsigns"
          ]
        },
        "category": [
          {
            "coding": [
              {
                "system": "http://terminology.hl7.org/CodeSystem/observation-category",
                "code": "vital-signs",
                "display": "Vital Signs"
              }
            ]
          }
        ],
        "valueQuantity": {
          "value": 84,
          "code": "/min",
          "unit": "/min"
        },
        "text": {
          "status": "generated",
          "div": "<div xmlns=\"http://www.w3.org/1999/xhtml\"><table class=\"hl7__ips\"><tr><th>Vital Sign</th><th>Date</th><th>Measurement</th></tr><tr><td>Heart rate</td><td>19-Jan-2025</td><td>84 /min</td></tr></table></div>"
        },
        "status": "final",
        "code": {
          "coding": [
            {
              "code": "$8867-4",
              "system": "http://loinc.org",
              "display": "Heart rate"
            }
          ]
        },
        "subject": {
          "reference": "urn:uuid:805cec96-0a32-48bc-b5cd-0aa267f0941a",
          "display": "Russell Khan"
        },
        "effectiveDateTime": "2025-01-19"
      }
    },
    {
      "fullUrl": "urn:uuid:c2e96a67-d118-4e1b-8cb5-f7a5d2fd2d19",
      "resource": {
        "resourceType": "Observation",
        "id": "c2e96a67-d118-4e1b-8cb5-f7a5d2fd2d19",
        "meta": {
          "profile": [
            "http://hl7.org/fhir/StructureDefinition/vitalsigns"
          ]
        },
        "category": [
          {
            "coding": [
              {
                "system": "http://terminology.hl7.org/CodeSystem/observation-category",
                "code": "vital-signs",
                "display": "Vital Signs"
              }
            ]
          }
        ],
        "valueQuantity": {
          "value": 14,
          "code": "/min",
          "unit": "/min"
        },
        "text": {
          "status": "generated",
          "div": "<div xmlns=\"http://www.w3.org/1999/xhtml\"><table class=\"hl7__ips\"><tr><th>Vital Sign</th><th>Date</th><th>Measurement</th></tr><tr><td>Respiratory rate</td><td>19-Jan-2025</td><td>14 /min</td></tr></table></div>"
        },
        "status": "final",
        "code": {
          "coding": [
            {
              "code": "$9279-1",
              "system": "http://loinc.org",
              "display": "Respiratory rate"
            }
          ]
        },
        "subject": {
          "reference": "urn:uuid:805cec96-0a32-48bc-b5cd-0aa267f0941a",
          "display": "Russell Khan"
        },
        "effectiveDateTime": "2025-01-19"
      }
    },
    {
      "fullUrl": "urn:uuid:4ba12d87-6876-4505-a38b-ab2a324e4891",
      "resource": {
        "resourceType": "Observation",
        "id": "4ba12d87-6876-4505-a38b-ab2a324e4891",
        "meta": {
          "profile": [
            "http://hl7.eu/fhir/laboratory/StructureDefinition/Observation-resultslab-eu-lab"
          ]
        },
        "performer": [
          {
            "display": "The Central European Lab"
          }
        ],
        "category": [
          {
            "coding": [
              {
                "system": "http://terminology.hl7.org/CodeSystem/observation-category",
                "code": "laboratory"
              }
            ]
          }
        ],
        "code": {
          "coding": [
            {
              "code": "2093-3",
              "system": "http://loinc.org",
              "display": "Cholesterol [Mass/volume] in Serum or Plasma"
            }
          ],
          "text": "Cholesterol [Mass/volume] in Serum or Plasma"
        },
        "valueQuantity": {
          "system": "http://unitsofmeasure.org",
          "value": 255.1,
          "unit": "mg/dL",
          "code": "mg/dL"
        },
        "referenceRange": [
          {
            "low": {
              "value": 0,
              "code": "mg/dL",
              "system": "http://unitsofmeasure.org"
            }
          },
          {
            "high": {
              "value": 200,
              "code": "mg/dL",
              "system": "http://unitsofmeasure.org"
            }
          }
        ],
        "interpretation": [
          {
            "coding": [
              {
                "code": "H",
                "system": "http://terminology.hl7.org/CodeSystem/v3-ObservationInterpretation",
                "display": "High"
              }
            ]
          }
        ],
        "text": {
          "status": "generated",
          "div": "<div xmlns=\"http://www.w3.org/1999/xhtml\"><table class=\"hl7__eu__lab__report\"><tr><th>Test</th><th>19-Jan-2025</th><th>Reference&#xA0;Range</th><th>Unit</th></tr><tr><td>Cholesterol [Mass/volume] in Serum or Plasma</td><td>255.1</td><td>0 - 200</td><td>H</td><td>mg/dL</td></tr></table></div>"
        },
        "status": "final",
        "subject": {
          "reference": "urn:uuid:805cec96-0a32-48bc-b5cd-0aa267f0941a",
          "display": "Russell Khan"
        },
        "effectiveDateTime": "2025-01-19T13:31:07Z"
      }
    },
    {
      "fullUrl": "urn:uuid:8a961050-7227-45e4-b60a-686721e9f481",
      "resource": {
        "resourceType": "Observation",
        "id": "8a961050-7227-45e4-b60a-686721e9f481",
        "meta": {
          "profile": [
            "http://hl7.eu/fhir/laboratory/StructureDefinition/Observation-resultslab-eu-lab"
          ]
        },
        "performer": [
          {
            "display": "The Central European Lab"
          }
        ],
        "category": [
          {
            "coding": [
              {
                "system": "http://terminology.hl7.org/CodeSystem/observation-category",
                "code": "laboratory"
              }
            ]
          }
        ],
        "code": {
          "coding": [
            {
              "code": "2571-8",
              "system": "http://loinc.org",
              "display": "Triglyceride [Mass/volume] in Serum or Plasma"
            }
          ],
          "text": "Triglyceride [Mass/volume] in Serum or Plasma"
        },
        "valueQuantity": {
          "system": "http://unitsofmeasure.org",
          "value": 110.8,
          "unit": "mg/dL",
          "code": "mg/dL"
        },
        "referenceRange": [
          {
            "low": {
              "value": 0,
              "code": "mg/dL",
              "system": "http://unitsofmeasure.org"
            }
          },
          {
            "high": {
              "value": 150,
              "code": "mg/dL",
              "system": "http://unitsofmeasure.org"
            }
          }
        ],
        "text": {
          "status": "generated",
          "div": "<div xmlns=\"http://www.w3.org/1999/xhtml\"><table class=\"hl7__eu__lab__report\"><tr><th>Test</th><th>19-Jan-2025</th><th>Reference&#xA0;Range</th><th>Unit</th></tr><tr><td>Triglyceride [Mass/volume] in Serum or Plasma</td><td>110.8</td><td>0 - 150</td><td></td><td>mg/dL</td></tr></table></div>"
        },
        "status": "final",
        "subject": {
          "reference": "urn:uuid:805cec96-0a32-48bc-b5cd-0aa267f0941a",
          "display": "Russell Khan"
        },
        "effectiveDateTime": "2025-01-19T13:31:07Z"
      }
    },
    {
      "fullUrl": "urn:uuid:c5baa484-e340-4904-a3bb-adc60da36af3",
      "resource": {
        "resourceType": "Observation",
        "id": "c5baa484-e340-4904-a3bb-adc60da36af3",
        "meta": {
          "profile": [
            "http://hl7.eu/fhir/laboratory/StructureDefinition/Observation-resultslab-eu-lab"
          ]
        },
        "performer": [
          {
            "display": "The Central European Lab"
          }
        ],
        "category": [
          {
            "coding": [
              {
                "system": "http://terminology.hl7.org/CodeSystem/observation-category",
                "code": "laboratory"
              }
            ]
          }
        ],
        "code": {
          "coding": [
            {
              "code": "18262-6",
              "system": "http://loinc.org",
              "display": "Cholesterol in LDL [Mass/volume] in Serum or Plasma by Direct assay"
            }
          ],
          "text": "Cholesterol in LDL [Mass/volume] in Serum or Plasma by Direct assay"
        },
        "valueQuantity": {
          "system": "http://unitsofmeasure.org",
          "value": 181.2,
          "unit": "mg/dL",
          "code": "mg/dL"
        },
        "referenceRange": [
          {
            "low": {
              "value": 0,
              "code": "mg/dL",
              "system": "http://unitsofmeasure.org"
            }
          },
          {
            "high": {
              "value": 130,
              "code": "mg/dL",
              "system": "http://unitsofmeasure.org"
            }
          }
        ],
        "interpretation": [
          {
            "coding": [
              {
                "code": "H",
                "system": "http://terminology.hl7.org/CodeSystem/v3-ObservationInterpretation",
                "display": "High"
              }
            ]
          }
        ],
        "text": {
          "status": "generated",
          "div": "<div xmlns=\"http://www.w3.org/1999/xhtml\"><table class=\"hl7__eu__lab__report\"><tr><th>Test</th><th>19-Jan-2025</th><th>Reference&#xA0;Range</th><th>Unit</th></tr><tr><td>Cholesterol in LDL [Mass/volume] in Serum or Plasma by Direct assay</td><td>181.2</td><td>0 - 130</td><td>H</td><td>mg/dL</td></tr></table></div>"
        },
        "status": "final",
        "subject": {
          "reference": "urn:uuid:805cec96-0a32-48bc-b5cd-0aa267f0941a",
          "display": "Russell Khan"
        },
        "effectiveDateTime": "2025-01-19T13:31:07Z"
      }
    },
    {
      "fullUrl": "urn:uuid:3724592d-b3a2-4acc-a53d-153701f74dbb",
      "resource": {
        "resourceType": "Observation",
        "id": "3724592d-b3a2-4acc-a53d-153701f74dbb",
        "meta": {
          "profile": [
            "http://hl7.eu/fhir/laboratory/StructureDefinition/Observation-resultslab-eu-lab"
          ]
        },
        "performer": [
          {
            "display": "The Central European Lab"
          }
        ],
        "category": [
          {
            "coding": [
              {
                "system": "http://terminology.hl7.org/CodeSystem/observation-category",
                "code": "laboratory"
              }
            ]
          }
        ],
        "code": {
          "coding": [
            {
              "code": "2085-9",
              "system": "http://loinc.org",
              "display": "Cholesterol in HDL [Mass/volume] in Serum or Plasma"
            }
          ],
          "text": "Cholesterol in HDL [Mass/volume] in Serum or Plasma"
        },
        "valueQuantity": {
          "system": "http://unitsofmeasure.org",
          "value": 51.8,
          "unit": "mg/dL",
          "code": "mg/dL"
        },
        "referenceRange": [
          {
            "low": {
              "value": 40,
              "code": "mg/dL",
              "system": "http://unitsofmeasure.org"
            }
          },
          {
            "high": {
              "value": 60,
              "code": "mg/dL",
              "system": "http://unitsofmeasure.org"
            }
          }
        ],
        "text": {
          "status": "generated",
          "div": "<div xmlns=\"http://www.w3.org/1999/xhtml\"><table class=\"hl7__eu__lab__report\"><tr><th>Test</th><th>19-Jan-2025</th><th>Reference&#xA0;Range</th><th>Unit</th></tr><tr><td>Cholesterol in HDL [Mass/volume] in Serum or Plasma</td><td>51.8</td><td>40 - 60</td><td></td><td>mg/dL</td></tr></table></div>"
        },
        "status": "final",
        "subject": {
          "reference": "urn:uuid:805cec96-0a32-48bc-b5cd-0aa267f0941a",
          "display": "Russell Khan"
        },
        "effectiveDateTime": "2025-01-19T13:31:07Z"
      }
    },
    {
      "fullUrl": "urn:uuid:64b874e1-6d1c-4945-b32b-4cc14d7c12ff",
      "resource": {
        "resourceType": "Device",
        "id": "64b874e1-6d1c-4945-b32b-4cc14d7c12ff",
        "deviceName": [
          {
            "name": "SYNDERAI Synthetic Generator",
            "type": "manufacturer-name"
          }
        ],
        "version": [
          {
            "value": "5.0"
          }
        ],
        "text": {
          "status": "generated",
          "div": "<div xmlns=\"http://www.w3.org/1999/xhtml\">SYNDERAI Synthetic Generator v5.0</div>"
        },
        "status": "active\"",
        "distinctIdentifier": "synderai-generator-50",
        "manufacturer": "SYNDERAI Project"
      }
    },
    {
      "fullUrl": "urn:uuid:456347a3-ad01-4969-b2e4-0dd34b0db778",
      "resource": {
        "resourceType": "Provenance",
        "id": "456347a3-ad01-4969-b2e4-0dd34b0db778",
        "target": [
          {
            "reference": "Patient/805cec96-0a32-48bc-b5cd-0aa267f0941a"
          },
          {
            "reference": "Bundle/43a0b203-416d-4ae8-9fe2-73a47389f444"
          },
          {
            "reference": "Composition/3d930115-860e-4891-9f6c-906de0e83229"
          },
          {
            "reference": "PractitionerRole/c1d8dfa0-e1f6-4881-9f91-cff6850e970b"
          },
          {
            "reference": "Organization/ace9ffbf-ec4a-4da5-8903-27fba98347e3"
          },
          {
            "reference": "Practitioner/bdfbab0f-dc50-4bf2-9a01-9de3bf81d9e6"
          }
        ],
        "activity": {
          "text": "Synthetic Example Data Generation"
        },
        "policy": [
          "https://synderai.net/synderai-synthetic-data-policy"
        ],
        "agent": [
          {
            "type": {
              "text": "author"
            },
            "who": {
              "reference": "Device/64b874e1-6d1c-4945-b32b-4cc14d7c12ff"
            }
          }
        ],
        "reason": [
          {
            "text": "Interoperability Testing and Training (non-clinical use)"
          }
        ],
        "text": {
          "status": "generated",
          "div": "<div xmlns=\"http://www.w3.org/1999/xhtml\">Provenance for SYNDERAI Synthetic Example Data Resource</div>"
        },
        "recorded": "2025-01-19T13:31:07Z"
      }
    }
  ],
  "type": "document",
  "timestamp": "2025-01-19T13:31:07Z"
}
