{
  "resourceType": "Bundle",
  "id": "6bc37bd5-bc15-4788-9013-f78eb006ada6",
  "meta": {
    "profile": [
      "http://hl7.eu/fhir/eps/StructureDefinition/bundle-eu-eps"
    ]
  },
  "identifier": {
    "assigner": {
      "display": "HL7 Europe"
    },
    "system": "urn:oid:2.16.840.1.113883.2.51.999",
    "value": "a6cb3335-e60a-42c7-bc93-5789175054cb"
  },
  "entry": [
    {
      "fullUrl": "urn:uuid:277b34d8-afd8-4a9a-abaa-acdc1a5128fe",
      "resource": {
        "resourceType": "Composition",
        "id": "277b34d8-afd8-4a9a-abaa-acdc1a5128fe",
        "meta": {
          "security": [
            {
              "system": "http://terminology.hl7.org/CodeSystem/v3-ActReason",
              "code": "HTEST"
            },
            {
              "system": "http://terminology.hl7.org/CodeSystem/v3-ActReason",
              "code": "TRAIN"
            }
          ],
          "tag": [
            {
              "system": "https://synderai.net/fhir/CodeSystem/tags",
              "code": "synthetic",
              "display": "SYNDERAI Synthetic data"
            }
          ],
          "profile": [
            "http://hl7.eu/fhir/eps/StructureDefinition/composition-eu-eps"
          ]
        },
        "identifier": {
          "assigner": {
            "display": "HL7 Europe"
          },
          "system": "urn:oid:2.16.840.1.113883.2.51.999",
          "value": "5c3ec021-8b4f-4cd5-abc2-3958aacee333"
        },
        "type": {
          "coding": [
            {
              "system": "http://loinc.org",
              "code": "60591-5",
              "display": "Patient summary Document"
            }
          ],
          "text": "Patient summary Document"
        },
        "author": [
          {
            "reference": "urn:uuid:2ec84c3a-be99-4ec6-bd11-ea0e040993ed"
          }
        ],
        "section": [
          {
            "text": {
              "status": "generated",
              "div": "<div xmlns=\"http://www.w3.org/1999/xhtml\"><table class=\"hl7__ips\"><tr><th>Condition</th><th>Onset Date</th><th>Status</th></tr><tr><td>Chronic kidney disease stage 2</td><td><span class=\"nb\">17-Apr-2008</span></td><td>active</td></tr><tr><td>Microalbuminuria due to type 2 diabetes mellitus</td><td><span class=\"nb\">17-Apr-2008</span></td><td>active</td></tr><tr><td>Disorder of kidney due to diabetes mellitus</td><td><span class=\"nb\">23-Mar-2006</span></td><td>active</td></tr><tr><td>Chronic kidney disease stage 1</td><td><span class=\"nb\">23-Mar-2006</span></td><td>active</td></tr><tr><td>Prediabetes</td><td><span class=\"nb\">04-Apr-2002</span></td><td>active</td></tr><tr><td>Essential hypertension</td><td><span class=\"nb\">19-Jan-1989</span></td><td>active</td></tr><tr><td>Excessive salivation</td><td><span class=\"nb\">26-Dec-1963</span></td><td>active</td></tr><tr><td>Osteoporosis</td><td><span class=\"nb\">26-Dec-1963</span></td><td>active</td></tr><tr><td>Cerebral palsy</td><td><span class=\"nb\">26-Dec-1963</span></td><td>active</td></tr><tr><td>Gastroesophageal reflux disease</td><td><span class=\"nb\">26-Dec-1963</span></td><td>active</td></tr></table></div>"
            },
            "entry": [
              {
                "reference": "urn:uuid:b3b002af-9386-42c9-b5b8-aa96f80c4e3f"
              },
              {
                "reference": "urn:uuid:b0abf88b-fd3d-40e9-8a9e-b2d0c72bc1df"
              },
              {
                "reference": "urn:uuid:f6cd5cab-c38e-4b4d-86aa-00a1f422a009"
              },
              {
                "reference": "urn:uuid:f4154fee-a220-463b-b3f4-b9193f1f650f"
              },
              {
                "reference": "urn:uuid:6b947bde-3e4d-444c-805c-f6e2990e76ff"
              },
              {
                "reference": "urn:uuid:f86f8cc7-772c-4718-829f-cc9ea1219813"
              },
              {
                "reference": "urn:uuid:92d4a60e-9868-4738-a5d5-dd91c193c62c"
              },
              {
                "reference": "urn:uuid:6d647c6a-5b36-425f-9471-7f9840554a79"
              },
              {
                "reference": "urn:uuid:a7bc16b6-5da6-4b28-bcaa-e1160e742837"
              },
              {
                "reference": "urn:uuid:d3f38f6b-dff0-4fd0-9a10-9e93d5c19335"
              }
            ],
            "code": {
              "coding": [
                {
                  "system": "http://loinc.org",
                  "code": "11450-4",
                  "display": "Problem list - Reported"
                }
              ]
            },
            "title": "Problem list"
          },
          {
            "text": {
              "status": "generated",
              "div": "<div xmlns=\"http://www.w3.org/1999/xhtml\"><table class=\"hl7__ips\"><tr><th>Medication</th><th>Since</th><th>Form</th><th>Dosage</th><th>Reason</th></tr><tr><td>insulin isophane human 70 UNT/ML / insulin regular human 30 UNT/ML Injectable Suspension [Humulin]</td><td><span class=\"nb\">2024-10-24</span></td><td>-</td><td>10 units subcutaneously twice daily</td><td>Prediabetes</td></tr><tr><td>Amlodipine (as amlodipine besylate) 2.5 mg oral tablet</td><td><span class=\"nb\">2024-10-24</span></td><td>-</td><td>1 tablet (2.5 mg) by mouth once daily</td><td>Essential hypertension (disorder)</td></tr><tr><td>Hydrochlorothiazide 25 mg oral tablet</td><td><span class=\"nb\">2024-10-24</span></td><td>-</td><td>1 tablet (25 mg) by mouth once daily</td><td>Essential hypertension (disorder)</td></tr><tr><td>Lisinopril 10 mg oral tablet</td><td><span class=\"nb\">2024-10-24</span></td><td>-</td><td>1 tablet (10 mg) by mouth once daily</td><td>Essential hypertension (disorder)</td></tr><tr><td>Alendronic acid (as alendronate sodium) 10 mg oral tablet</td><td><span class=\"nb\">2024-10-24</span></td><td>-</td><td>1 tablet (10 mg) once daily</td><td>-</td></tr><tr><td>Vitamin B12 5 MG/ML Injectable Solution</td><td><span class=\"nb\">1983-03-24</span></td><td>-</td><td>1 mL (5 mg) intramuscularly once monthly</td><td>-</td></tr></table></div>"
            },
            "entry": [
              {
                "reference": "urn:uuid:cc73bf82-9a04-429c-b37d-d0cb30184eff"
              },
              {
                "reference": "urn:uuid:3ebebccc-42b9-4f22-b1cc-3f25764a124c"
              },
              {
                "reference": "urn:uuid:736f8404-f760-497a-8fac-1a82b3dabe83"
              },
              {
                "reference": "urn:uuid:9f1f3d3a-ba66-414c-91e6-5adde2dba3dd"
              },
              {
                "reference": "urn:uuid:b4b2c68c-b79b-4434-a21b-351bc4c2e9c3"
              },
              {
                "reference": "urn:uuid:b5ed01b0-63c6-446e-bc02-5ebf35aa9a44"
              }
            ],
            "code": {
              "coding": [
                {
                  "system": "http://loinc.org",
                  "code": "10160-0",
                  "display": "History of Medication use Narrative"
                }
              ]
            },
            "title": "Medication list"
          },
          {
            "text": {
              "status": "generated",
              "div": "<div xmlns=\"http://www.w3.org/1999/xhtml\"><table class=\"hl7__ips\"><tr><th>Vaccine</th><th>Date</th></tr><tr><td>Influenza virus antigen only vaccine product</td><td><span class=\"nb\">16-May-2024</span></td></tr><tr><td>SARS-CoV-2 mRNA vaccine</td><td><span class=\"nb\">13-May-2021</span></td></tr></table></div>"
            },
            "entry": [
              {
                "reference": "urn:uuid:aa290e72-3534-43a3-9f1f-f8643db3b22b"
              },
              {
                "reference": "urn:uuid:86c62b93-9959-4739-8497-c8684ee302e6"
              }
            ],
            "code": {
              "coding": [
                {
                  "system": "http://loinc.org",
                  "code": "11369-6",
                  "display": "History of Immunization note"
                }
              ]
            },
            "title": "Immunizations list"
          },
          {
            "text": {
              "status": "generated",
              "div": "<div xmlns=\"http://www.w3.org/1999/xhtml\"><table class=\"hl7__ips\"><tr><th>Procedure</th><th>Date</th><th>Reason</th></tr><tr><td>Depression screening</td><td><span class=\"nb\">16-May-2024</span></td><td>-</td></tr><tr><td>Medication reconciliation</td><td><span class=\"nb\">16-May-2024</span></td><td>-</td></tr><tr><td>Assessment of health and social care needs</td><td><span class=\"nb\">16-May-2024</span></td><td>-</td></tr><tr><td>Assessment of anxiety</td><td><span class=\"nb\">16-May-2024</span></td><td>-</td></tr><tr><td>Screening for drug abuse</td><td><span class=\"nb\">16-May-2024</span></td><td>-</td></tr><tr><td>Assessment of substance use</td><td><span class=\"nb\">16-May-2024</span></td><td>-</td></tr><tr><td>Depression screening using Patient Health Questionnaire Two-Item score (procedure)</td><td><span class=\"nb\">16-May-2024</span></td><td>-</td></tr><tr><td>Assessment using Morse Fall Scale</td><td><span class=\"nb\">14-Sep-2023</span></td><td>-</td></tr></table></div>"
            },
            "entry": [
              {
                "reference": "urn:uuid:61322e25-fc79-45da-94f1-c847d2c3b338"
              },
              {
                "reference": "urn:uuid:b834e3b2-b097-4d07-8cd3-78c4bed5c17e"
              },
              {
                "reference": "urn:uuid:bf985189-1da9-4fb0-9f24-eaa3caf7bf71"
              },
              {
                "reference": "urn:uuid:a3ce63ff-b857-423d-91db-845dd66e3977"
              },
              {
                "reference": "urn:uuid:24a780f9-74c7-4d9e-ab8a-9d9400b2e545"
              },
              {
                "reference": "urn:uuid:6ecf9ca5-0c02-455e-a15c-8570ccf3b3ae"
              },
              {
                "reference": "urn:uuid:e2ab56f8-dc02-4000-a2e6-3d237104bf4b"
              },
              {
                "reference": "urn:uuid:5416403e-b55e-49de-8d0c-65ba3275443f"
              }
            ],
            "code": {
              "coding": [
                {
                  "system": "http://loinc.org",
                  "code": "47519-4",
                  "display": "History of Procedures Document"
                }
              ]
            },
            "title": "Procedure History list"
          },
          {
            "text": {
              "status": "generated",
              "div": "<div xmlns=\"http://www.w3.org/1999/xhtml\"><table class=\"hl7__ips\"><tr><th>Allergy/Intolerance</th><th>Onset Date</th><th>Status</th><th>Type</th><th>Reaction</th></tr><tr><td></td><td>?</td><td>active</td><td>?</td><td></td></tr></table></div>"
            },
            "entry": [
              {
                "reference": "urn:uuid:4120f4e7-be33-4bf3-b906-a4d2d3ab5813"
              }
            ],
            "code": {
              "coding": [
                {
                  "system": "http://loinc.org",
                  "code": "48765-2",
                  "display": "Allergies and adverse reactions Document"
                }
              ]
            },
            "title": "Allergies and Intolerances"
          },
          {
            "text": {
              "status": "generated",
              "div": "<div xmlns=\"http://www.w3.org/1999/xhtml\"><table class=\"hl7__ips\"><tr><th>Active Planned Care / Goals</th><th>Start Date</th><th>Reason</th></tr><tr><td>Diabetes self management plan</td><td><span class=\"nb\">04-Apr-2002</span></td><td>Prediabetes</td></tr><tr><td><ul><li>Patient will demonstrate understanding of diabetes self-management strategies including diet, exercise, and blood glucose monitoring.</li><li>Maintain hemoglobin A1c below 6.5% to reduce risk of diabetes progression.</li><li>Maintain fasting plasma glucose below 100 mg/dL to prevent progression to diabetes.</li><li>Achieve at least 5% reduction in body weight from baseline to improve glycemic control.</li><li>Engage in at least 150 minutes of moderate-intensity physical activity per week as part of diabetes self-management.</li></ul></td><td></td><td></td></tr><tr><td>Lifestyle education regarding hypertension</td><td><span class=\"nb\">19-Jan-1989</span></td><td>Essential hypertension (disorder)</td></tr><tr><td><ul><li>Achieve and maintain blood pressure within target range through lifestyle modifications.</li></ul></td><td></td><td></td></tr></table></div>"
            },
            "entry": [
              {
                "reference": "urn:uuid:0b042849-8b03-4717-a77c-e3939d0c2c3b"
              },
              {
                "reference": "urn:uuid:fe6b32bf-8db2-4243-87b4-f8d0ba0c221e"
              }
            ],
            "code": {
              "coding": [
                {
                  "system": "http://loinc.org",
                  "code": "18776-5",
                  "display": "Plan of care note"
                }
              ]
            },
            "title": "Care Plan"
          },
          {
            "text": {
              "status": "generated",
              "div": "<div xmlns=\"http://www.w3.org/1999/xhtml\"><table class=\"hl7__ips\"><tr><th>Vital Signs</th><th>2024-10-24</th><th>2024-08-08</th></tr><tr><td>Body Height</td><td>154.6 cm</td><td>154.6 cm</td></tr><tr><td>Pain severity - 0-10 verbal numeric rating [Score] - Reported</td><td>3 {score}</td><td>2 {score}</td></tr><tr><td>Body Weight</td><td>66.4 kg</td><td>66.4 kg</td></tr><tr><td>Body mass index (BMI) [Ratio]</td><td>27.8 kg/m2</td><td>27.8 kg/m2</td></tr><tr><td>Diastolic Blood Pressure</td><td>57 mm[Hg]</td><td>47 mm[Hg]</td></tr><tr><td>Systolic Blood Pressure</td><td>93 mm[Hg]</td><td>93 mm[Hg]</td></tr><tr><td>Heart rate</td><td>89 /min</td><td>79 /min</td></tr><tr><td>Respiratory rate</td><td>13 /min</td><td>13 /min</td></tr></table></div>"
            },
            "entry": [
              {
                "reference": "urn:uuid:b709c279-42bc-4e48-a8ce-de0b73f7fa54"
              },
              {
                "reference": "urn:uuid:c96a7838-3950-4b30-abd0-3b8c101ab8fb"
              },
              {
                "reference": "urn:uuid:e5e733a2-364c-4254-bc14-eae167e78650"
              },
              {
                "reference": "urn:uuid:eea84b1c-f807-4607-a5ef-8c1452bc8350"
              },
              {
                "reference": "urn:uuid:2603451a-3c6e-4eaa-80bf-f917d34939bf"
              },
              {
                "reference": "urn:uuid:e6093139-7a02-49c8-b641-311cc20df94f"
              },
              {
                "reference": "urn:uuid:5a4e2a6d-3a55-4fc0-a935-55014647dd67"
              },
              {
                "reference": "urn:uuid:8c3d9b2d-2e40-4acf-bdc2-0c36b60ca8fe"
              },
              {
                "reference": "urn:uuid:1b0a015f-1625-4f4d-9eab-5de584c84b9c"
              },
              {
                "reference": "urn:uuid:8fb72467-e190-4af5-9d64-e18f9c486084"
              },
              {
                "reference": "urn:uuid:e422c7dd-6f66-4402-a589-b8b93f9b6b62"
              },
              {
                "reference": "urn:uuid:571cb57c-1ca3-487d-a83f-9195836258bf"
              },
              {
                "reference": "urn:uuid:b8a24839-ce29-488e-9136-d977dac2d881"
              },
              {
                "reference": "urn:uuid:55d7550a-9732-49ad-a551-01880562c2f7"
              },
              {
                "reference": "urn:uuid:afe0f4c1-1a3c-46ca-b563-9c9f1ce87714"
              },
              {
                "reference": "urn:uuid:63eeda4e-d78c-4a8a-9606-c574d26a9ff3"
              }
            ],
            "code": {
              "coding": [
                {
                  "system": "http://loinc.org",
                  "code": "8716-3",
                  "display": "Vital signs note"
                }
              ]
            },
            "title": "Vital Signs"
          },
          {
            "text": {
              "status": "generated",
              "div": "<div xmlns=\"http://www.w3.org/1999/xhtml\"><table class=\"hl7__ips\"><table class=\"hl7__ips\"><thead><tr><th>Recent Lab Observations</th><th>24-OCT-2024</th><th>Reference&#xA0;Range</th><th>Unit</th></tr></thead><tbody><tr><td>Glucose [Mass/volume] in Serum or Plasma</td><td><strong>68.9 L</strong></td><td>70 - 139</td><td>mg/dL</td></tr><tr><td>Urea nitrogen [Mass/volume] in Serum or Plasma</td><td>10.9</td><td>7 - 20</td><td>mg/dL</td></tr><tr><td>Creatinine [Mass/volume] in Serum or Plasma</td><td><strong>1.9 H</strong></td><td>0.6 - 1.1</td><td>mg/dL</td></tr><tr><td>Calcium [Mass/volume] in Serum or Plasma</td><td>9.0</td><td>8.5 - 10.4</td><td>mg/dL</td></tr><tr><td>Sodium [Moles/volume] in Serum or Plasma</td><td>141.4</td><td>135 - 145</td><td>mmol/L</td></tr><tr><td>Potassium [Moles/volume] in Serum or Plasma</td><td>5.1</td><td>3.5 - 5.1</td><td>mmol/L</td></tr><tr><td>Chloride [Moles/volume] in Serum or Plasma</td><td>103.4</td><td>98 - 110</td><td>mmol/L</td></tr><tr><td>Carbon dioxide, total [Moles/volume] in Serum or Plasma</td><td><strong>21.5 L</strong></td><td>22 - 32</td><td>mmol/L</td></tr><tr><td>Appearance of Urine</td><td>Cloudy urine</td><td></td><td></td></tr><tr><td>Odor of Urine</td><td>Urine smell ammoniacal</td><td></td><td></td></tr><tr><td>Clarity of Urine</td><td>Translucent</td><td></td><td></td></tr><tr><td>Color of Urine</td><td>Brown color</td><td></td><td></td></tr><tr><td>Glucose [Mass/volume] in Urine by Test strip</td><td><strong>1.7 H</strong></td><td>0 - 0</td><td>mg/dL</td></tr><tr><td>Glucose [Presence] in Urine by Test strip</td><td>++</td><td></td><td></td></tr><tr><td>Bilirubin.total [Mass/volume] in Urine by Test strip</td><td>0.9</td><td>0 - 1.6</td><td>mg/dL</td></tr><tr><td>Bilirubin.total [Presence] in Urine by Test strip</td><td>Finding of bilirubin in urine</td><td></td><td></td></tr><tr><td>Ketones [Mass/volume] in Urine by Test strip</td><td><strong>7.4 H</strong></td><td>0 - 0.5</td><td>mg/dL</td></tr><tr><td>Ketones [Presence] in Urine by Test strip</td><td>Urine ketone test = +</td><td></td><td></td></tr><tr><td>Specific gravity of Urine by Test strip</td><td><strong>1.0 L</strong></td><td>1.005 - 1.03</td><td>{nominal}</td></tr><tr><td>pH of Urine by Test strip</td><td>5.8</td><td>4.5 - 7.5</td><td>pH</td></tr><tr><td>Protein [Mass/volume] in Urine by Test strip</td><td><strong>259.1 H</strong></td><td>0 - 15</td><td>mg/dL</td></tr><tr><td>Protein [Presence] in Urine by Test strip</td><td>Urine protein test = ++</td><td></td><td></td></tr><tr><td>Nitrite [Presence] in Urine by Test strip</td><td>Urine nitrite negative</td><td></td><td></td></tr><tr><td>Hemoglobin [Presence] in Urine by Test strip</td><td>Urine blood test = negative</td><td></td><td></td></tr><tr><td>Leukocyte esterase [Presence] in Urine by Test strip</td><td>Urine leukocyte test negative</td><td></td><td></td></tr><tr><td>Hemoglobin A1c/Hemoglobin.total in Blood</td><td><strong>3.2 L</strong></td><td>4 - 6</td><td>%</td></tr><tr><td>Glucose [Mass/volume] in Blood</td><td><strong>68.9 L</strong></td><td>70 - 100</td><td>mg/dL</td></tr><tr><td>Urea nitrogen [Mass/volume] in Blood</td><td>10.9</td><td>7 - 20</td><td>mg/dL</td></tr><tr><td>Creatinine [Mass/volume] in Blood</td><td><strong>1.9 H</strong></td><td>0.6 - 1.3</td><td>mg/dL</td></tr><tr><td>Calcium [Mass/volume] in Blood</td><td>9.0</td><td>8.6 - 10.4</td><td>mg/dL</td></tr><tr><td>Sodium [Moles/volume] in Blood</td><td>141.4</td><td>135 - 145</td><td>mmol/L</td></tr><tr><td>Potassium [Moles/volume] in Blood</td><td>5.1</td><td>3.5 - 5.1</td><td>mmol/L</td></tr><tr><td>Chloride [Moles/volume] in Blood</td><td>103.4</td><td>98 - 110</td><td>mmol/L</td></tr><tr><td>Carbon dioxide, total [Moles/volume] in Blood</td><td><strong>21.5 L</strong></td><td>22 - 29</td><td>mmol/L</td></tr></tbody></table></table></div>"
            },
            "entry": [
              {
                "reference": "urn:uuid:3d5d3892-d8b5-44a1-a9a6-f2e1666ca5a7"
              },
              {
                "reference": "urn:uuid:3c1c3e99-d018-46af-9bed-01e54bc8ba42"
              },
              {
                "reference": "urn:uuid:92fe857a-5749-4327-976c-da75ec0e8962"
              },
              {
                "reference": "urn:uuid:63ffe87f-ef24-4162-8c3b-b34a73eee32a"
              },
              {
                "reference": "urn:uuid:acfe122e-5e61-422f-b812-304078912ca8"
              },
              {
                "reference": "urn:uuid:ea18caeb-5c69-4f9f-8d8e-3d38cd93b60b"
              },
              {
                "reference": "urn:uuid:9db43f38-dc1f-4d54-96cd-f33280456b5f"
              },
              {
                "reference": "urn:uuid:3593a395-cc76-417a-ac8b-12ef6f796255"
              },
              {
                "reference": "urn:uuid:5f3adafd-5c1b-423b-b26b-ec787f4364cb"
              },
              {
                "reference": "urn:uuid:e35ed0d4-413b-464c-aa40-de1230f18718"
              },
              {
                "reference": "urn:uuid:0df4f14c-e7c9-4a40-b9dd-ebec9d62f727"
              },
              {
                "reference": "urn:uuid:dbe79379-edb6-4e9c-92e7-17267ba09904"
              },
              {
                "reference": "urn:uuid:e51bb30b-e5b6-40c4-8829-9814481b816f"
              },
              {
                "reference": "urn:uuid:3366dc12-8874-4766-bdd3-24c8bd2f3dca"
              },
              {
                "reference": "urn:uuid:a0c213c4-82fd-434b-a8d1-59261046a6c9"
              },
              {
                "reference": "urn:uuid:10b4dd3f-b756-424d-9462-032376818585"
              },
              {
                "reference": "urn:uuid:8423949c-5d6e-41be-bc0f-3e7f6b691225"
              },
              {
                "reference": "urn:uuid:0fa76bc3-bd79-41a1-8ce4-a95494c080eb"
              },
              {
                "reference": "urn:uuid:ae50b657-5bd2-4555-a8a5-2845088cf633"
              },
              {
                "reference": "urn:uuid:8eb5c26f-bfc8-421f-87e6-9a51568d8b76"
              },
              {
                "reference": "urn:uuid:1a017319-0932-4d07-85d5-afac8d781e3d"
              },
              {
                "reference": "urn:uuid:37a144e9-8e68-4087-beb0-1fcfb055255c"
              },
              {
                "reference": "urn:uuid:53d4382b-1491-4e4b-9346-b5edc1127326"
              },
              {
                "reference": "urn:uuid:6cc20089-2fcf-44da-9282-5ef82d57de75"
              },
              {
                "reference": "urn:uuid:c2e307ef-2ed2-4f87-8ac0-251bc7b5f369"
              },
              {
                "reference": "urn:uuid:58ac9dd5-3413-49c5-bc72-fbb1c9e6a12f"
              },
              {
                "reference": "urn:uuid:4aaac597-b84f-44f7-bf9d-a089620b9cbf"
              },
              {
                "reference": "urn:uuid:6d284126-28f4-4e38-bfb0-014d834b5db3"
              },
              {
                "reference": "urn:uuid:c76a1350-c955-420a-b603-90e30dc60aa3"
              },
              {
                "reference": "urn:uuid:5a339c55-2118-4093-8139-6f12647d39c6"
              },
              {
                "reference": "urn:uuid:4a9e3864-a9f2-4915-9035-2d0fd1cc02aa"
              },
              {
                "reference": "urn:uuid:dcac6cc9-961f-497f-969e-d822a9aae2d6"
              },
              {
                "reference": "urn:uuid:5475cacf-8d62-4c57-be4e-b94d791b5e63"
              },
              {
                "reference": "urn:uuid:532eeadc-84f1-4f76-b820-84ae972dc828"
              }
            ],
            "code": {
              "coding": [
                {
                  "system": "http://loinc.org",
                  "code": "30954-2",
                  "display": "Relevant diagnostic tests/laboratory data note"
                }
              ]
            },
            "title": "Relevant diagnostic tests/laboratory data"
          },
          {
            "text": {
              "status": "generated",
              "div": "<div xmlns=\"http://www.w3.org/1999/xhtml\"><table class=\"hl7__ips\"><tr><th>Device</th><th>Date (since)</th></tr><tr><td>Blood glucose meter (physical object)</td><td><span class=\"nb\">04-Apr-2002</span></td></tr></table></div>"
            },
            "entry": [
              {
                "reference": "urn:uuid:ca64800e-f5c6-4380-aee4-419d68870862"
              }
            ],
            "code": {
              "coding": [
                {
                  "system": "http://loinc.org",
                  "code": "46264-8",
                  "display": "History of medical device use"
                }
              ]
            },
            "title": "Device Use"
          }
        ],
        "title": "European Patient Summary",
        "status": "final",
        "subject": {
          "reference": "urn:uuid:192df278-7c1b-41d4-b3d7-297f889e4e95",
          "display": "Molly Jenkins"
        },
        "custodian": {
          "reference": "urn:uuid:449cdf74-d84b-44d0-b8f7-7ca16367e86a"
        },
        "date": "2024-10-24",
        "confidentiality": "N"
      }
    },
    {
      "fullUrl": "urn:uuid:192df278-7c1b-41d4-b3d7-297f889e4e95",
      "resource": {
        "resourceType": "Patient",
        "id": "192df278-7c1b-41d4-b3d7-297f889e4e95",
        "meta": {
          "security": [
            {
              "system": "http://terminology.hl7.org/CodeSystem/v3-ActReason",
              "code": "HTEST"
            },
            {
              "system": "http://terminology.hl7.org/CodeSystem/v3-ActReason",
              "code": "TRAIN"
            }
          ],
          "tag": [
            {
              "system": "https://synderai.net/fhir/CodeSystem/tags",
              "code": "synthetic",
              "display": "SYNDERAI Synthetic data"
            }
          ],
          "profile": [
            "http://hl7.eu/fhir/eps/StructureDefinition/patient-eu-eps"
          ]
        },
        "identifier": [
          {
            "type": {
              "coding": [
                {
                  "code": "PT",
                  "system": "http://terminology.hl7.org/CodeSystem/v2-0203"
                }
              ]
            },
            "system": "http://ec.europa.eu/identifier/eci",
            "value": "7634-012682-0"
          },
          {
            "type": {
              "coding": [
                {
                  "code": "MR",
                  "system": "http://terminology.hl7.org/CodeSystem/v2-0203"
                }
              ]
            },
            "system": "http://local.setting.eu/identifier",
            "value": "9934a8eb-b6e1-34e1-edf5-57a0262d1bea"
          }
        ],
        "name": [
          {
            "family": "Jenkins"
          },
          {
            "given": [
              "Molly"
            ]
          },
          {
            "text": "Molly Jenkins"
          }
        ],
        "address": [
          {
            "line": [
              "98 Ali field"
            ],
            "use": "home",
            "type": "physical",
            "postalCode": "AB42",
            "city": "Port Jennamouth",
            "country": "United Kingdom"
          }
        ],
        "telecom": [
          {
            "system": "phone",
            "value": "(0118) 496 0334"
          }
        ],
        "extension": [
          {
            "url": "http://hl7.org/fhir/StructureDefinition/patient-nationality",
            "valueCodeableConcept": {
              "coding": [
                {
                  "code": "GB",
                  "system": "http://hl7.org/fhir/ValueSet/country"
                }
              ]
            }
          }
        ],
        "text": {
          "status": "generated",
          "div": "<div xmlns=\"http://www.w3.org/1999/xhtml\"><table class=\"hl7__ips\"><tr><td>Molly Jenkins</td><td>female</td><td>14-Aug-1967</td></tr></table></div>"
        },
        "gender": "female",
        "birthDate": "1967-08-14"
      }
    },
    {
      "fullUrl": "urn:uuid:2ec84c3a-be99-4ec6-bd11-ea0e040993ed",
      "resource": {
        "resourceType": "PractitionerRole",
        "id": "2ec84c3a-be99-4ec6-bd11-ea0e040993ed",
        "meta": {
          "profile": [
            "http://hl7.eu/fhir/base/StructureDefinition/practitionerRole-eu"
          ]
        },
        "text": {
          "status": "generated",
          "div": "<div xmlns=\"http://www.w3.org/1999/xhtml\"><table class=\"hl7__ips\">Provider Role Id 2ec84c3a-be99-4ec6-bd11-ea0e040993ed</table></div>"
        },
        "practitioner": {
          "reference": "urn:uuid:905c47c4-2965-436d-872f-eae61f7254e0"
        },
        "organization": {
          "reference": "urn:uuid:449cdf74-d84b-44d0-b8f7-7ca16367e86a"
        }
      }
    },
    {
      "fullUrl": "urn:uuid:905c47c4-2965-436d-872f-eae61f7254e0",
      "resource": {
        "resourceType": "Practitioner",
        "id": "905c47c4-2965-436d-872f-eae61f7254e0",
        "meta": {
          "profile": [
            "http://hl7.eu/fhir/base/StructureDefinition/practitioner-eu"
          ]
        },
        "name": [
          {
            "prefix": [
              "Dr."
            ],
            "given": [
              "Hel"
            ],
            "family": "Ping"
          }
        ],
        "text": {
          "status": "generated",
          "div": "<div xmlns=\"http://www.w3.org/1999/xhtml\"><table class=\"hl7__ips\">Dr. Hel Ping</table></div>"
        }
      }
    },
    {
      "fullUrl": "urn:uuid:449cdf74-d84b-44d0-b8f7-7ca16367e86a",
      "resource": {
        "resourceType": "Organization",
        "id": "449cdf74-d84b-44d0-b8f7-7ca16367e86a",
        "meta": {
          "profile": [
            "http://hl7.eu/fhir/base/StructureDefinition/organization-eu"
          ]
        },
        "identifier": [
          {
            "assigner": {
              "display": "HL7 Europe"
            },
            "system": "urn:oid:2.16.840.1.113883.2.51.999",
            "value": "f3845b8c-8fc6-4ebb-958f-a1677d8e65bd"
          }
        ],
        "address": [
          {
            "city": "Aberdeen",
            "postalCode": "AB11 6",
            "country": "United Kingdom"
          }
        ],
        "text": {
          "status": "generated",
          "div": "<div xmlns=\"http://www.w3.org/1999/xhtml\"><table class=\"hl7__ips\">Aberdeen Community Health and Care Village</table></div>"
        },
        "name": "Aberdeen Community Health and Care Village"
      }
    },
    {
      "fullUrl": "urn:uuid:b3b002af-9386-42c9-b5b8-aa96f80c4e3f",
      "resource": {
        "resourceType": "Condition",
        "id": "b3b002af-9386-42c9-b5b8-aa96f80c4e3f",
        "meta": {
          "profile": [
            "http://hl7.org/fhir/uv/ips/StructureDefinition/Condition-uv-ips"
          ]
        },
        "category": [
          {
            "coding": [
              {
                "code": "problem-list-item",
                "system": "http://terminology.hl7.org/CodeSystem/condition-category",
                "display": "Problem List Item"
              }
            ]
          }
        ],
        "code": {
          "coding": [
            {
              "code": "431856006",
              "system": "http://snomed.info/sct",
              "display": "Chronic kidney disease stage 2 (disorder)"
            }
          ],
          "text": "Chronic kidney disease stage 2"
        },
        "text": {
          "status": "generated",
          "div": "<div xmlns=\"http://www.w3.org/1999/xhtml\"><table class=\"hl7__ips\"><tr><td>Chronic kidney disease stage 2</td><td><span class=\"nb\">17-Apr-2008</span></td><td>active</td></tr></table></div>"
        },
        "onsetDateTime": "2008-04-17",
        "subject": {
          "reference": "urn:uuid:",
          "display": "Molly Jenkins"
        },
        "asserter": {
          "reference": "urn:uuid:",
          "display": "Aberdeen Community Health and Care Village"
        }
      }
    },
    {
      "fullUrl": "urn:uuid:b0abf88b-fd3d-40e9-8a9e-b2d0c72bc1df",
      "resource": {
        "resourceType": "Condition",
        "id": "b0abf88b-fd3d-40e9-8a9e-b2d0c72bc1df",
        "meta": {
          "profile": [
            "http://hl7.org/fhir/uv/ips/StructureDefinition/Condition-uv-ips"
          ]
        },
        "category": [
          {
            "coding": [
              {
                "code": "problem-list-item",
                "system": "http://terminology.hl7.org/CodeSystem/condition-category",
                "display": "Problem List Item"
              }
            ]
          }
        ],
        "code": {
          "coding": [
            {
              "code": "90781000119102",
              "system": "http://snomed.info/sct",
              "display": "Microalbuminuria due to type 2 diabetes mellitus (disorder)"
            }
          ],
          "text": "Microalbuminuria due to type 2 diabetes mellitus"
        },
        "text": {
          "status": "generated",
          "div": "<div xmlns=\"http://www.w3.org/1999/xhtml\"><table class=\"hl7__ips\"><tr><td>Microalbuminuria due to type 2 diabetes mellitus</td><td><span class=\"nb\">17-Apr-2008</span></td><td>active</td></tr></table></div>"
        },
        "onsetDateTime": "2008-04-17",
        "subject": {
          "reference": "urn:uuid:",
          "display": "Molly Jenkins"
        },
        "asserter": {
          "reference": "urn:uuid:",
          "display": "Aberdeen Community Health and Care Village"
        }
      }
    },
    {
      "fullUrl": "urn:uuid:f6cd5cab-c38e-4b4d-86aa-00a1f422a009",
      "resource": {
        "resourceType": "Condition",
        "id": "f6cd5cab-c38e-4b4d-86aa-00a1f422a009",
        "meta": {
          "profile": [
            "http://hl7.org/fhir/uv/ips/StructureDefinition/Condition-uv-ips"
          ]
        },
        "category": [
          {
            "coding": [
              {
                "code": "problem-list-item",
                "system": "http://terminology.hl7.org/CodeSystem/condition-category",
                "display": "Problem List Item"
              }
            ]
          }
        ],
        "code": {
          "coding": [
            {
              "code": "127013003",
              "system": "http://snomed.info/sct",
              "display": "Disorder of kidney due to diabetes mellitus (disorder)"
            }
          ],
          "text": "Disorder of kidney due to diabetes mellitus"
        },
        "text": {
          "status": "generated",
          "div": "<div xmlns=\"http://www.w3.org/1999/xhtml\"><table class=\"hl7__ips\"><tr><td>Disorder of kidney due to diabetes mellitus</td><td><span class=\"nb\">23-Mar-2006</span></td><td>active</td></tr></table></div>"
        },
        "onsetDateTime": "2006-03-23",
        "subject": {
          "reference": "urn:uuid:",
          "display": "Molly Jenkins"
        },
        "asserter": {
          "reference": "urn:uuid:",
          "display": "Aberdeen Community Health and Care Village"
        }
      }
    },
    {
      "fullUrl": "urn:uuid:f4154fee-a220-463b-b3f4-b9193f1f650f",
      "resource": {
        "resourceType": "Condition",
        "id": "f4154fee-a220-463b-b3f4-b9193f1f650f",
        "meta": {
          "profile": [
            "http://hl7.org/fhir/uv/ips/StructureDefinition/Condition-uv-ips"
          ]
        },
        "category": [
          {
            "coding": [
              {
                "code": "problem-list-item",
                "system": "http://terminology.hl7.org/CodeSystem/condition-category",
                "display": "Problem List Item"
              }
            ]
          }
        ],
        "code": {
          "coding": [
            {
              "code": "431855005",
              "system": "http://snomed.info/sct",
              "display": "Chronic kidney disease stage 1 (disorder)"
            }
          ],
          "text": "Chronic kidney disease stage 1"
        },
        "text": {
          "status": "generated",
          "div": "<div xmlns=\"http://www.w3.org/1999/xhtml\"><table class=\"hl7__ips\"><tr><td>Chronic kidney disease stage 1</td><td><span class=\"nb\">23-Mar-2006</span></td><td>active</td></tr></table></div>"
        },
        "onsetDateTime": "2006-03-23",
        "subject": {
          "reference": "urn:uuid:",
          "display": "Molly Jenkins"
        },
        "asserter": {
          "reference": "urn:uuid:",
          "display": "Aberdeen Community Health and Care Village"
        }
      }
    },
    {
      "fullUrl": "urn:uuid:6b947bde-3e4d-444c-805c-f6e2990e76ff",
      "resource": {
        "resourceType": "Condition",
        "id": "6b947bde-3e4d-444c-805c-f6e2990e76ff",
        "meta": {
          "profile": [
            "http://hl7.org/fhir/uv/ips/StructureDefinition/Condition-uv-ips"
          ]
        },
        "category": [
          {
            "coding": [
              {
                "code": "problem-list-item",
                "system": "http://terminology.hl7.org/CodeSystem/condition-category",
                "display": "Problem List Item"
              }
            ]
          }
        ],
        "code": {
          "coding": [
            {
              "code": "15777000",
              "system": "http://snomed.info/sct",
              "display": "Prediabetes (disorder)"
            }
          ],
          "text": "Prediabetes"
        },
        "text": {
          "status": "generated",
          "div": "<div xmlns=\"http://www.w3.org/1999/xhtml\"><table class=\"hl7__ips\"><tr><td>Prediabetes</td><td><span class=\"nb\">04-Apr-2002</span></td><td>active</td></tr></table></div>"
        },
        "onsetDateTime": "2002-04-04",
        "subject": {
          "reference": "urn:uuid:",
          "display": "Molly Jenkins"
        },
        "asserter": {
          "reference": "urn:uuid:",
          "display": "Aberdeen Community Health and Care Village"
        }
      }
    },
    {
      "fullUrl": "urn:uuid:f86f8cc7-772c-4718-829f-cc9ea1219813",
      "resource": {
        "resourceType": "Condition",
        "id": "f86f8cc7-772c-4718-829f-cc9ea1219813",
        "meta": {
          "profile": [
            "http://hl7.org/fhir/uv/ips/StructureDefinition/Condition-uv-ips"
          ]
        },
        "category": [
          {
            "coding": [
              {
                "code": "problem-list-item",
                "system": "http://terminology.hl7.org/CodeSystem/condition-category",
                "display": "Problem List Item"
              }
            ]
          }
        ],
        "code": {
          "coding": [
            {
              "code": "59621000",
              "system": "http://snomed.info/sct",
              "display": "Essential hypertension (disorder)"
            }
          ],
          "text": "Essential hypertension"
        },
        "text": {
          "status": "generated",
          "div": "<div xmlns=\"http://www.w3.org/1999/xhtml\"><table class=\"hl7__ips\"><tr><td>Essential hypertension</td><td><span class=\"nb\">19-Jan-1989</span></td><td>active</td></tr></table></div>"
        },
        "onsetDateTime": "1989-01-19",
        "subject": {
          "reference": "urn:uuid:",
          "display": "Molly Jenkins"
        },
        "asserter": {
          "reference": "urn:uuid:",
          "display": "Aberdeen Community Health and Care Village"
        }
      }
    },
    {
      "fullUrl": "urn:uuid:92d4a60e-9868-4738-a5d5-dd91c193c62c",
      "resource": {
        "resourceType": "Condition",
        "id": "92d4a60e-9868-4738-a5d5-dd91c193c62c",
        "meta": {
          "profile": [
            "http://hl7.org/fhir/uv/ips/StructureDefinition/Condition-uv-ips"
          ]
        },
        "category": [
          {
            "coding": [
              {
                "code": "problem-list-item",
                "system": "http://terminology.hl7.org/CodeSystem/condition-category",
                "display": "Problem List Item"
              }
            ]
          }
        ],
        "code": {
          "coding": [
            {
              "code": "53827007",
              "system": "http://snomed.info/sct",
              "display": "Excessive salivation (disorder)"
            }
          ],
          "text": "Excessive salivation"
        },
        "text": {
          "status": "generated",
          "div": "<div xmlns=\"http://www.w3.org/1999/xhtml\"><table class=\"hl7__ips\"><tr><td>Excessive salivation</td><td><span class=\"nb\">26-Dec-1963</span></td><td>active</td></tr></table></div>"
        },
        "onsetDateTime": "1963-12-26",
        "subject": {
          "reference": "urn:uuid:",
          "display": "Molly Jenkins"
        },
        "asserter": {
          "reference": "urn:uuid:",
          "display": "Aberdeen Community Health and Care Village"
        }
      }
    },
    {
      "fullUrl": "urn:uuid:6d647c6a-5b36-425f-9471-7f9840554a79",
      "resource": {
        "resourceType": "Condition",
        "id": "6d647c6a-5b36-425f-9471-7f9840554a79",
        "meta": {
          "profile": [
            "http://hl7.org/fhir/uv/ips/StructureDefinition/Condition-uv-ips"
          ]
        },
        "category": [
          {
            "coding": [
              {
                "code": "problem-list-item",
                "system": "http://terminology.hl7.org/CodeSystem/condition-category",
                "display": "Problem List Item"
              }
            ]
          }
        ],
        "code": {
          "coding": [
            {
              "code": "64859006",
              "system": "http://snomed.info/sct",
              "display": "Osteoporosis (disorder)"
            }
          ],
          "text": "Osteoporosis"
        },
        "text": {
          "status": "generated",
          "div": "<div xmlns=\"http://www.w3.org/1999/xhtml\"><table class=\"hl7__ips\"><tr><td>Osteoporosis</td><td><span class=\"nb\">26-Dec-1963</span></td><td>active</td></tr></table></div>"
        },
        "onsetDateTime": "1963-12-26",
        "subject": {
          "reference": "urn:uuid:",
          "display": "Molly Jenkins"
        },
        "asserter": {
          "reference": "urn:uuid:",
          "display": "Aberdeen Community Health and Care Village"
        }
      }
    },
    {
      "fullUrl": "urn:uuid:a7bc16b6-5da6-4b28-bcaa-e1160e742837",
      "resource": {
        "resourceType": "Condition",
        "id": "a7bc16b6-5da6-4b28-bcaa-e1160e742837",
        "meta": {
          "profile": [
            "http://hl7.org/fhir/uv/ips/StructureDefinition/Condition-uv-ips"
          ]
        },
        "category": [
          {
            "coding": [
              {
                "code": "problem-list-item",
                "system": "http://terminology.hl7.org/CodeSystem/condition-category",
                "display": "Problem List Item"
              }
            ]
          }
        ],
        "code": {
          "coding": [
            {
              "code": "128188000",
              "system": "http://snomed.info/sct",
              "display": "Cerebral palsy (disorder)"
            }
          ],
          "text": "Cerebral palsy"
        },
        "text": {
          "status": "generated",
          "div": "<div xmlns=\"http://www.w3.org/1999/xhtml\"><table class=\"hl7__ips\"><tr><td>Cerebral palsy</td><td><span class=\"nb\">26-Dec-1963</span></td><td>active</td></tr></table></div>"
        },
        "onsetDateTime": "1963-12-26",
        "subject": {
          "reference": "urn:uuid:",
          "display": "Molly Jenkins"
        },
        "asserter": {
          "reference": "urn:uuid:",
          "display": "Aberdeen Community Health and Care Village"
        }
      }
    },
    {
      "fullUrl": "urn:uuid:d3f38f6b-dff0-4fd0-9a10-9e93d5c19335",
      "resource": {
        "resourceType": "Condition",
        "id": "d3f38f6b-dff0-4fd0-9a10-9e93d5c19335",
        "meta": {
          "profile": [
            "http://hl7.org/fhir/uv/ips/StructureDefinition/Condition-uv-ips"
          ]
        },
        "category": [
          {
            "coding": [
              {
                "code": "problem-list-item",
                "system": "http://terminology.hl7.org/CodeSystem/condition-category",
                "display": "Problem List Item"
              }
            ]
          }
        ],
        "code": {
          "coding": [
            {
              "code": "235595009",
              "system": "http://snomed.info/sct",
              "display": "Gastroesophageal reflux disease (disorder)"
            }
          ],
          "text": "Gastroesophageal reflux disease"
        },
        "text": {
          "status": "generated",
          "div": "<div xmlns=\"http://www.w3.org/1999/xhtml\"><table class=\"hl7__ips\"><tr><td>Gastroesophageal reflux disease</td><td><span class=\"nb\">26-Dec-1963</span></td><td>active</td></tr></table></div>"
        },
        "onsetDateTime": "1963-12-26",
        "subject": {
          "reference": "urn:uuid:",
          "display": "Molly Jenkins"
        },
        "asserter": {
          "reference": "urn:uuid:",
          "display": "Aberdeen Community Health and Care Village"
        }
      }
    },
    {
      "fullUrl": "urn:uuid:0f5b297b-020c-4a02-b674-6007baac44a9",
      "resource": {
        "resourceType": "Condition",
        "id": "0f5b297b-020c-4a02-b674-6007baac44a9",
        "meta": {
          "profile": [
            "http://hl7.org/fhir/uv/ips/StructureDefinition/Condition-uv-ips"
          ]
        },
        "category": [
          {
            "coding": [
              {
                "code": "problem-list-item",
                "system": "http://terminology.hl7.org/CodeSystem/condition-category",
                "display": "Problem List Item"
              }
            ]
          }
        ],
        "code": {
          "coding": [
            {
              "code": "195662009",
              "system": "http://snomed.info/sct",
              "display": "Acute viral pharyngitis (disorder)"
            }
          ],
          "text": "Acute viral pharyngitis"
        },
        "text": {
          "status": "generated",
          "div": "<div xmlns=\"http://www.w3.org/1999/xhtml\"><table class=\"hl7__ips\"><tr><td><span class=\"grayedout\">Acute viral pharyngitis</span></td><td><span class=\"nb\">07-May-2024 - 18-May-2024</span></td><td><span class=\"grayedout\">inactive</span></td></tr></table></div>"
        },
        "onsetDateTime": "2024-05-07",
        "abatementDateTime": "2024-05-18",
        "subject": {
          "reference": "urn:uuid:",
          "display": "Molly Jenkins"
        },
        "asserter": {
          "reference": "urn:uuid:",
          "display": "Aberdeen Community Health and Care Village"
        }
      }
    },
    {
      "fullUrl": "urn:uuid:b1ec3e3d-0433-4b09-b18d-490078d92ed9",
      "resource": {
        "resourceType": "Condition",
        "id": "b1ec3e3d-0433-4b09-b18d-490078d92ed9",
        "meta": {
          "profile": [
            "http://hl7.org/fhir/uv/ips/StructureDefinition/Condition-uv-ips"
          ]
        },
        "category": [
          {
            "coding": [
              {
                "code": "problem-list-item",
                "system": "http://terminology.hl7.org/CodeSystem/condition-category",
                "display": "Problem List Item"
              }
            ]
          }
        ],
        "code": {
          "coding": [
            {
              "code": "10509002",
              "system": "http://snomed.info/sct",
              "display": "Acute bronchitis (disorder)"
            }
          ],
          "text": "Acute bronchitis"
        },
        "text": {
          "status": "generated",
          "div": "<div xmlns=\"http://www.w3.org/1999/xhtml\"><table class=\"hl7__ips\"><tr><td><span class=\"grayedout\">Acute bronchitis</span></td><td><span class=\"nb\">05-Sep-2023 - 23-Sep-2023</span></td><td><span class=\"grayedout\">inactive</span></td></tr></table></div>"
        },
        "onsetDateTime": "2023-09-05",
        "abatementDateTime": "2023-09-23",
        "subject": {
          "reference": "urn:uuid:",
          "display": "Molly Jenkins"
        },
        "asserter": {
          "reference": "urn:uuid:",
          "display": "Aberdeen Community Health and Care Village"
        }
      }
    },
    {
      "fullUrl": "urn:uuid:e4e93228-b71d-4bac-86ee-9c8128e4d07e",
      "resource": {
        "resourceType": "Medication",
        "id": "e4e93228-b71d-4bac-86ee-9c8128e4d07e",
        "meta": {
          "profile": [
            "http://hl7.eu/fhir/eps/StructureDefinition/Medication-eu-eps"
          ]
        },
        "code": {
          "coding": [
            {
              "code": "106892",
              "system": "http://www.nlm.nih.gov/research/umls/rxnorm",
              "display": "insulin isophane  human 70 UNT/ML / insulin  regular  human 30 UNT/ML Injectable Suspension [Humulin]"
            }
          ],
          "text": "insulin isophane  human 70 UNT/ML / insulin  regular  human 30 UNT/ML Injectable Suspension [Humulin]"
        },
        "text": {
          "status": "generated",
          "div": "<div xmlns=\"http://www.w3.org/1999/xhtml\">insulin isophane human 70 UNT/ML / insulin regular human 30 UNT/ML Injectable Suspension [Humulin]</div>"
        }
      }
    },
    {
      "fullUrl": "urn:uuid:cc73bf82-9a04-429c-b37d-d0cb30184eff",
      "resource": {
        "resourceType": "MedicationStatement",
        "id": "cc73bf82-9a04-429c-b37d-d0cb30184eff",
        "meta": {
          "profile": [
            "http://hl7.eu/fhir/eps/StructureDefinition/MedicationStatement-eu-eps"
          ]
        },
        "effectivePeriod": {
          "start": "2024-10-24"
        },
        "dosage": [
          {
            "doseAndRate": [
              {
                "doseQuantity": {
                  "value": 10,
                  "unit": "U",
                  "system": "$ucum",
                  "code": "U"
                }
              }
            ],
            "timing": {
              "repeat": {
                "frequency": 2,
                "period": 1,
                "periodUnit": "d"
              }
            },
            "text": "10 units subcutaneously twice daily",
            "asNeededBoolean": false
          }
        ],
        "reasonCode": [
          {
            "coding": [
              {
                "code": "15777000",
                "system": "http://snomed.info/sct",
                "display": "Prediabetes"
              }
            ]
          }
        ],
        "text": {
          "status": "generated",
          "div": "<div xmlns=\"http://www.w3.org/1999/xhtml\"><table class=\"hl7__ips first25\"><tr><th>Medication</th><th>Since</th><th>Form</th><th>Dosage</th><th>Reason</th></tr><tr><td>insulin isophane human 70 UNT/ML / insulin regular human 30 UNT/ML Injectable Suspension [Humulin]</td><td><span class=\"nb\">2024-10-24</span></td><td>-</td><td>10 units subcutaneously twice daily</td><td>Prediabetes</td></tr></table></div>"
        },
        "status": "active",
        "medicationReference": {
          "reference": "urn:uuid:e4e93228-b71d-4bac-86ee-9c8128e4d07e",
          "display": "insulin isophane  human 70 UNT/ML / insulin  regular  human 30 UNT/ML Injectable Suspension [Humulin]"
        },
        "subject": {
          "reference": "urn:uuid:192df278-7c1b-41d4-b3d7-297f889e4e95",
          "display": "Molly Jenkins"
        }
      }
    },
    {
      "fullUrl": "urn:uuid:9fe8b2cb-8e96-4374-b3d9-eaa876b5cb08",
      "resource": {
        "resourceType": "Medication",
        "id": "9fe8b2cb-8e96-4374-b3d9-eaa876b5cb08",
        "meta": {
          "profile": [
            "http://hl7.eu/fhir/eps/StructureDefinition/Medication-eu-eps"
          ]
        },
        "code": {
          "coding": [
            {
              "code": "1153431000",
              "system": "http://snomed.info/sct",
              "display": "Amlodipine (as amlodipine besylate) 2.5 mg oral tablet"
            }
          ],
          "text": "Amlodipine (as amlodipine besylate) 2.5 mg oral tablet"
        },
        "text": {
          "status": "generated",
          "div": "<div xmlns=\"http://www.w3.org/1999/xhtml\">Amlodipine (as amlodipine besylate) 2.5 mg oral tablet</div>"
        }
      }
    },
    {
      "fullUrl": "urn:uuid:3ebebccc-42b9-4f22-b1cc-3f25764a124c",
      "resource": {
        "resourceType": "MedicationStatement",
        "id": "3ebebccc-42b9-4f22-b1cc-3f25764a124c",
        "meta": {
          "profile": [
            "http://hl7.eu/fhir/eps/StructureDefinition/MedicationStatement-eu-eps"
          ]
        },
        "effectivePeriod": {
          "start": "2024-10-24"
        },
        "dosage": [
          {
            "doseAndRate": [
              {
                "doseQuantity": {
                  "value": 1,
                  "unit": "{tbl}",
                  "code": "{tbl}"
                }
              }
            ],
            "timing": {
              "repeat": {
                "frequency": 1,
                "period": 1,
                "periodUnit": "d"
              }
            },
            "text": "1 tablet (2.5 mg) by mouth once daily",
            "asNeededBoolean": false
          }
        ],
        "reasonCode": [
          {
            "coding": [
              {
                "code": "59621000",
                "system": "http://snomed.info/sct",
                "display": "Essential hypertension (disorder)"
              }
            ]
          }
        ],
        "text": {
          "status": "generated",
          "div": "<div xmlns=\"http://www.w3.org/1999/xhtml\"><table class=\"hl7__ips first25\"><tr><th>Medication</th><th>Since</th><th>Form</th><th>Dosage</th><th>Reason</th></tr><tr><td>Amlodipine (as amlodipine besylate) 2.5 mg oral tablet</td><td><span class=\"nb\">2024-10-24</span></td><td>-</td><td>1 tablet (2.5 mg) by mouth once daily</td><td>Essential hypertension (disorder)</td></tr></table></div>"
        },
        "status": "active",
        "medicationReference": {
          "reference": "urn:uuid:9fe8b2cb-8e96-4374-b3d9-eaa876b5cb08",
          "display": "Amlodipine (as amlodipine besylate) 2.5 mg oral tablet"
        },
        "subject": {
          "reference": "urn:uuid:192df278-7c1b-41d4-b3d7-297f889e4e95",
          "display": "Molly Jenkins"
        }
      }
    },
    {
      "fullUrl": "urn:uuid:0d630be9-da45-4e47-bda8-d2a596eaadac",
      "resource": {
        "resourceType": "Medication",
        "id": "0d630be9-da45-4e47-bda8-d2a596eaadac",
        "meta": {
          "profile": [
            "http://hl7.eu/fhir/eps/StructureDefinition/Medication-eu-eps"
          ]
        },
        "code": {
          "coding": [
            {
              "code": "376209006",
              "system": "http://snomed.info/sct",
              "display": "Hydrochlorothiazide 25 mg oral tablet"
            }
          ],
          "text": "Hydrochlorothiazide 25 mg oral tablet"
        },
        "text": {
          "status": "generated",
          "div": "<div xmlns=\"http://www.w3.org/1999/xhtml\">Hydrochlorothiazide 25 mg oral tablet</div>"
        }
      }
    },
    {
      "fullUrl": "urn:uuid:736f8404-f760-497a-8fac-1a82b3dabe83",
      "resource": {
        "resourceType": "MedicationStatement",
        "id": "736f8404-f760-497a-8fac-1a82b3dabe83",
        "meta": {
          "profile": [
            "http://hl7.eu/fhir/eps/StructureDefinition/MedicationStatement-eu-eps"
          ]
        },
        "effectivePeriod": {
          "start": "2024-10-24"
        },
        "dosage": [
          {
            "doseAndRate": [
              {
                "doseQuantity": {
                  "value": 1,
                  "unit": "{tbl}",
                  "code": "{tbl}"
                }
              }
            ],
            "timing": {
              "repeat": {
                "frequency": 1,
                "period": 1,
                "periodUnit": "d"
              }
            },
            "text": "1 tablet (25 mg) by mouth once daily",
            "asNeededBoolean": false
          }
        ],
        "reasonCode": [
          {
            "coding": [
              {
                "code": "59621000",
                "system": "http://snomed.info/sct",
                "display": "Essential hypertension (disorder)"
              }
            ]
          }
        ],
        "text": {
          "status": "generated",
          "div": "<div xmlns=\"http://www.w3.org/1999/xhtml\"><table class=\"hl7__ips first25\"><tr><th>Medication</th><th>Since</th><th>Form</th><th>Dosage</th><th>Reason</th></tr><tr><td>Hydrochlorothiazide 25 mg oral tablet</td><td><span class=\"nb\">2024-10-24</span></td><td>-</td><td>1 tablet (25 mg) by mouth once daily</td><td>Essential hypertension (disorder)</td></tr></table></div>"
        },
        "status": "active",
        "medicationReference": {
          "reference": "urn:uuid:0d630be9-da45-4e47-bda8-d2a596eaadac",
          "display": "Hydrochlorothiazide 25 mg oral tablet"
        },
        "subject": {
          "reference": "urn:uuid:192df278-7c1b-41d4-b3d7-297f889e4e95",
          "display": "Molly Jenkins"
        }
      }
    },
    {
      "fullUrl": "urn:uuid:e7ccbf71-f9e8-4c45-9738-12464b68fbac",
      "resource": {
        "resourceType": "Medication",
        "id": "e7ccbf71-f9e8-4c45-9738-12464b68fbac",
        "meta": {
          "profile": [
            "http://hl7.eu/fhir/eps/StructureDefinition/Medication-eu-eps"
          ]
        },
        "code": {
          "coding": [
            {
              "code": "318859000",
              "system": "http://snomed.info/sct",
              "display": "Lisinopril 10 mg oral tablet"
            }
          ],
          "text": "Lisinopril 10 mg oral tablet"
        },
        "text": {
          "status": "generated",
          "div": "<div xmlns=\"http://www.w3.org/1999/xhtml\">Lisinopril 10 mg oral tablet</div>"
        }
      }
    },
    {
      "fullUrl": "urn:uuid:9f1f3d3a-ba66-414c-91e6-5adde2dba3dd",
      "resource": {
        "resourceType": "MedicationStatement",
        "id": "9f1f3d3a-ba66-414c-91e6-5adde2dba3dd",
        "meta": {
          "profile": [
            "http://hl7.eu/fhir/eps/StructureDefinition/MedicationStatement-eu-eps"
          ]
        },
        "effectivePeriod": {
          "start": "2024-10-24"
        },
        "dosage": [
          {
            "doseAndRate": [
              {
                "doseQuantity": {
                  "value": 1,
                  "unit": "{tbl}",
                  "code": "{tbl}"
                }
              }
            ],
            "timing": {
              "repeat": {
                "frequency": 1,
                "period": 1,
                "periodUnit": "d"
              }
            },
            "text": "1 tablet (10 mg) by mouth once daily",
            "asNeededBoolean": false
          }
        ],
        "reasonCode": [
          {
            "coding": [
              {
                "code": "59621000",
                "system": "http://snomed.info/sct",
                "display": "Essential hypertension (disorder)"
              }
            ]
          }
        ],
        "text": {
          "status": "generated",
          "div": "<div xmlns=\"http://www.w3.org/1999/xhtml\"><table class=\"hl7__ips first25\"><tr><th>Medication</th><th>Since</th><th>Form</th><th>Dosage</th><th>Reason</th></tr><tr><td>Lisinopril 10 mg oral tablet</td><td><span class=\"nb\">2024-10-24</span></td><td>-</td><td>1 tablet (10 mg) by mouth once daily</td><td>Essential hypertension (disorder)</td></tr></table></div>"
        },
        "status": "active",
        "medicationReference": {
          "reference": "urn:uuid:e7ccbf71-f9e8-4c45-9738-12464b68fbac",
          "display": "Lisinopril 10 mg oral tablet"
        },
        "subject": {
          "reference": "urn:uuid:192df278-7c1b-41d4-b3d7-297f889e4e95",
          "display": "Molly Jenkins"
        }
      }
    },
    {
      "fullUrl": "urn:uuid:6b282a73-c4e8-4e6c-af32-9dd3228d655f",
      "resource": {
        "resourceType": "Medication",
        "id": "6b282a73-c4e8-4e6c-af32-9dd3228d655f",
        "meta": {
          "profile": [
            "http://hl7.eu/fhir/eps/StructureDefinition/Medication-eu-eps"
          ]
        },
        "code": {
          "coding": [
            {
              "code": "783144007",
              "system": "http://snomed.info/sct",
              "display": "Alendronic acid (as alendronate sodium) 10 mg oral tablet"
            }
          ],
          "text": "Alendronic acid (as alendronate sodium) 10 mg oral tablet"
        },
        "text": {
          "status": "generated",
          "div": "<div xmlns=\"http://www.w3.org/1999/xhtml\">Alendronic acid (as alendronate sodium) 10 mg oral tablet</div>"
        }
      }
    },
    {
      "fullUrl": "urn:uuid:b4b2c68c-b79b-4434-a21b-351bc4c2e9c3",
      "resource": {
        "resourceType": "MedicationStatement",
        "id": "b4b2c68c-b79b-4434-a21b-351bc4c2e9c3",
        "meta": {
          "profile": [
            "http://hl7.eu/fhir/eps/StructureDefinition/MedicationStatement-eu-eps"
          ]
        },
        "effectivePeriod": {
          "start": "2024-10-24"
        },
        "dosage": [
          {
            "doseAndRate": [
              {
                "doseQuantity": {
                  "value": 1,
                  "unit": "{tbl}",
                  "system": "$ucum",
                  "code": "{tbl}"
                }
              }
            ],
            "timing": {
              "repeat": {
                "frequency": 1,
                "period": 1,
                "periodUnit": "d"
              }
            },
            "text": "1 tablet (10 mg) once daily",
            "asNeededBoolean": false
          }
        ],
        "text": {
          "status": "generated",
          "div": "<div xmlns=\"http://www.w3.org/1999/xhtml\"><table class=\"hl7__ips first25\"><tr><th>Medication</th><th>Since</th><th>Form</th><th>Dosage</th><th>Reason</th></tr><tr><td>Alendronic acid (as alendronate sodium) 10 mg oral tablet</td><td><span class=\"nb\">2024-10-24</span></td><td>-</td><td>1 tablet (10 mg) once daily</td><td>-</td></tr></table></div>"
        },
        "status": "active",
        "medicationReference": {
          "reference": "urn:uuid:6b282a73-c4e8-4e6c-af32-9dd3228d655f",
          "display": "Alendronic acid (as alendronate sodium) 10 mg oral tablet"
        },
        "subject": {
          "reference": "urn:uuid:192df278-7c1b-41d4-b3d7-297f889e4e95",
          "display": "Molly Jenkins"
        }
      }
    },
    {
      "fullUrl": "urn:uuid:167662d3-f92b-4dac-93bc-67c40f62e7cd",
      "resource": {
        "resourceType": "Medication",
        "id": "167662d3-f92b-4dac-93bc-67c40f62e7cd",
        "meta": {
          "profile": [
            "http://hl7.eu/fhir/eps/StructureDefinition/Medication-eu-eps"
          ]
        },
        "code": {
          "coding": [
            {
              "code": "2001499",
              "system": "http://www.nlm.nih.gov/research/umls/rxnorm",
              "display": "Vitamin B12 5 MG/ML Injectable Solution"
            }
          ],
          "text": "Vitamin B12 5 MG/ML Injectable Solution"
        },
        "text": {
          "status": "generated",
          "div": "<div xmlns=\"http://www.w3.org/1999/xhtml\">Vitamin B12 5 MG/ML Injectable Solution</div>"
        }
      }
    },
    {
      "fullUrl": "urn:uuid:b5ed01b0-63c6-446e-bc02-5ebf35aa9a44",
      "resource": {
        "resourceType": "MedicationStatement",
        "id": "b5ed01b0-63c6-446e-bc02-5ebf35aa9a44",
        "meta": {
          "profile": [
            "http://hl7.eu/fhir/eps/StructureDefinition/MedicationStatement-eu-eps"
          ]
        },
        "effectivePeriod": {
          "start": "1983-03-24"
        },
        "dosage": [
          {
            "doseAndRate": [
              {
                "doseQuantity": {
                  "value": 1,
                  "unit": "mL",
                  "system": "$ucum",
                  "code": "mL"
                }
              }
            ],
            "timing": {
              "repeat": {
                "frequency": 1,
                "period": 1,
                "periodUnit": "mo"
              }
            },
            "text": "1 mL (5 mg) intramuscularly once monthly",
            "asNeededBoolean": false
          }
        ],
        "text": {
          "status": "generated",
          "div": "<div xmlns=\"http://www.w3.org/1999/xhtml\"><table class=\"hl7__ips first25\"><tr><th>Medication</th><th>Since</th><th>Form</th><th>Dosage</th><th>Reason</th></tr><tr><td>Vitamin B12 5 MG/ML Injectable Solution</td><td><span class=\"nb\">1983-03-24</span></td><td>-</td><td>1 mL (5 mg) intramuscularly once monthly</td><td>-</td></tr></table></div>"
        },
        "status": "active",
        "medicationReference": {
          "reference": "urn:uuid:167662d3-f92b-4dac-93bc-67c40f62e7cd",
          "display": "Vitamin B12 5 MG/ML Injectable Solution"
        },
        "subject": {
          "reference": "urn:uuid:192df278-7c1b-41d4-b3d7-297f889e4e95",
          "display": "Molly Jenkins"
        }
      }
    },
    {
      "fullUrl": "urn:uuid:aa290e72-3534-43a3-9f1f-f8643db3b22b",
      "resource": {
        "resourceType": "Immunization",
        "id": "aa290e72-3534-43a3-9f1f-f8643db3b22b",
        "meta": {
          "profile": [
            "http://hl7.org/fhir/uv/ips/StructureDefinition/Immunization-uv-ips"
          ]
        },
        "vaccineCode": {
          "coding": [
            {
              "code": "1181000221105",
              "system": "http://snomed.info/sct",
              "display": "Vaccine product containing Influenza virus antigen"
            },
            {
              "code": "J07BB02",
              "system": "http://www.whocc.no/atc",
              "display": "Influenza, inactivated, split virus"
            }
          ],
          "text": "Influenza virus antigen only vaccine product"
        },
        "site": {
          "coding": [
            {
              "code": "244979005",
              "system": "http://snomed.info/sct",
              "display": "Entire muscle of upper arm"
            }
          ],
          "text": "Entire muscle of upper arm"
        },
        "route": {
          "coding": [
            {
              "code": "78421000",
              "system": "http://snomed.info/sct",
              "display": "Intramuscular route"
            }
          ],
          "text": "Intramuscular route"
        },
        "text": {
          "status": "generated",
          "div": "<div xmlns=\"http://www.w3.org/1999/xhtml\"><table class=\"hl7__ips\"><tr><td>Influenza virus antigen only vaccine product</td><td><span class=\"nb\">16-May-2024</span></td></tr></table></div>"
        },
        "status": "completed",
        "patient": {
          "reference": "urn:uuid:192df278-7c1b-41d4-b3d7-297f889e4e95",
          "display": "Molly Jenkins"
        },
        "occurrenceDateTime": "2024-05-16",
        "lotNumber": "MN-R1fz",
        "expirationDate": "2024-11-17"
      }
    },
    {
      "fullUrl": "urn:uuid:86c62b93-9959-4739-8497-c8684ee302e6",
      "resource": {
        "resourceType": "Immunization",
        "id": "86c62b93-9959-4739-8497-c8684ee302e6",
        "meta": {
          "profile": [
            "http://hl7.org/fhir/uv/ips/StructureDefinition/Immunization-uv-ips"
          ]
        },
        "vaccineCode": {
          "coding": [
            {
              "code": "1119349007",
              "system": "http://snomed.info/sct",
              "display": "Vaccine product containing SARS-CoV-2 mRNA"
            },
            {
              "code": "J07BX03",
              "system": "http://www.whocc.no/atc",
              "display": "COVID-19 mRNA vaccines"
            }
          ],
          "text": "SARS-CoV-2 mRNA vaccine"
        },
        "site": {
          "coding": [
            {
              "code": "244979005",
              "system": "http://snomed.info/sct",
              "display": "Entire muscle of upper arm"
            }
          ],
          "text": "Entire muscle of upper arm"
        },
        "route": {
          "coding": [
            {
              "code": "78421000",
              "system": "http://snomed.info/sct",
              "display": "Intramuscular route"
            }
          ],
          "text": "Intramuscular route"
        },
        "text": {
          "status": "generated",
          "div": "<div xmlns=\"http://www.w3.org/1999/xhtml\"><table class=\"hl7__ips\"><tr><td>SARS-CoV-2 mRNA vaccine</td><td><span class=\"nb\">13-May-2021</span></td></tr></table></div>"
        },
        "status": "completed",
        "patient": {
          "reference": "urn:uuid:192df278-7c1b-41d4-b3d7-297f889e4e95",
          "display": "Molly Jenkins"
        },
        "occurrenceDateTime": "2021-05-13",
        "lotNumber": "RP-BLpiw6w",
        "expirationDate": "2022-02-26"
      }
    },
    {
      "fullUrl": "urn:uuid:61322e25-fc79-45da-94f1-c847d2c3b338",
      "resource": {
        "resourceType": "Procedure",
        "id": "61322e25-fc79-45da-94f1-c847d2c3b338",
        "meta": {
          "profile": [
            "http://hl7.org/fhir/uv/ips/StructureDefinition/Procedure-uv-ips"
          ]
        },
        "code": {
          "coding": [
            {
              "code": "171207006",
              "system": "http://snomed.info/sct",
              "display": "Depression screening (procedure)"
            }
          ],
          "text": "Depression screening"
        },
        "text": {
          "status": "generated",
          "div": "<div xmlns=\"http://www.w3.org/1999/xhtml\"><table class=\"hl7__ips\"><tr><td>Depression screening</td><td><span class=\"nb\">16-May-2024</span></td><td>-</td></tr></table></div>"
        },
        "status": "completed",
        "performedDateTime": "2024-05-16",
        "subject": {
          "reference": "urn:uuid:",
          "display": "Molly Jenkins"
        }
      }
    },
    {
      "fullUrl": "urn:uuid:b834e3b2-b097-4d07-8cd3-78c4bed5c17e",
      "resource": {
        "resourceType": "Procedure",
        "id": "b834e3b2-b097-4d07-8cd3-78c4bed5c17e",
        "meta": {
          "profile": [
            "http://hl7.org/fhir/uv/ips/StructureDefinition/Procedure-uv-ips"
          ]
        },
        "code": {
          "coding": [
            {
              "code": "430193006",
              "system": "http://snomed.info/sct",
              "display": "Medication Reconciliation (procedure)"
            }
          ],
          "text": "Medication reconciliation"
        },
        "text": {
          "status": "generated",
          "div": "<div xmlns=\"http://www.w3.org/1999/xhtml\"><table class=\"hl7__ips\"><tr><td>Medication reconciliation</td><td><span class=\"nb\">16-May-2024</span></td><td>-</td></tr></table></div>"
        },
        "status": "completed",
        "performedDateTime": "2024-05-16",
        "subject": {
          "reference": "urn:uuid:",
          "display": "Molly Jenkins"
        }
      }
    },
    {
      "fullUrl": "urn:uuid:bf985189-1da9-4fb0-9f24-eaa3caf7bf71",
      "resource": {
        "resourceType": "Procedure",
        "id": "bf985189-1da9-4fb0-9f24-eaa3caf7bf71",
        "meta": {
          "profile": [
            "http://hl7.org/fhir/uv/ips/StructureDefinition/Procedure-uv-ips"
          ]
        },
        "code": {
          "coding": [
            {
              "code": "710824005",
              "system": "http://snomed.info/sct",
              "display": "Assessment of health and social care needs (procedure)"
            }
          ],
          "text": "Assessment of health and social care needs"
        },
        "text": {
          "status": "generated",
          "div": "<div xmlns=\"http://www.w3.org/1999/xhtml\"><table class=\"hl7__ips\"><tr><td>Assessment of health and social care needs</td><td><span class=\"nb\">16-May-2024</span></td><td>-</td></tr></table></div>"
        },
        "status": "completed",
        "performedDateTime": "2024-05-16",
        "subject": {
          "reference": "urn:uuid:",
          "display": "Molly Jenkins"
        }
      }
    },
    {
      "fullUrl": "urn:uuid:a3ce63ff-b857-423d-91db-845dd66e3977",
      "resource": {
        "resourceType": "Procedure",
        "id": "a3ce63ff-b857-423d-91db-845dd66e3977",
        "meta": {
          "profile": [
            "http://hl7.org/fhir/uv/ips/StructureDefinition/Procedure-uv-ips"
          ]
        },
        "code": {
          "coding": [
            {
              "code": "710841007",
              "system": "http://snomed.info/sct",
              "display": "Assessment of anxiety (procedure)"
            }
          ],
          "text": "Assessment of anxiety"
        },
        "text": {
          "status": "generated",
          "div": "<div xmlns=\"http://www.w3.org/1999/xhtml\"><table class=\"hl7__ips\"><tr><td>Assessment of anxiety</td><td><span class=\"nb\">16-May-2024</span></td><td>-</td></tr></table></div>"
        },
        "status": "completed",
        "performedDateTime": "2024-05-16",
        "subject": {
          "reference": "urn:uuid:",
          "display": "Molly Jenkins"
        }
      }
    },
    {
      "fullUrl": "urn:uuid:24a780f9-74c7-4d9e-ab8a-9d9400b2e545",
      "resource": {
        "resourceType": "Procedure",
        "id": "24a780f9-74c7-4d9e-ab8a-9d9400b2e545",
        "meta": {
          "profile": [
            "http://hl7.org/fhir/uv/ips/StructureDefinition/Procedure-uv-ips"
          ]
        },
        "code": {
          "coding": [
            {
              "code": "713106006",
              "system": "http://snomed.info/sct",
              "display": "Screening for drug abuse (procedure)"
            }
          ],
          "text": "Screening for drug abuse"
        },
        "text": {
          "status": "generated",
          "div": "<div xmlns=\"http://www.w3.org/1999/xhtml\"><table class=\"hl7__ips\"><tr><td>Screening for drug abuse</td><td><span class=\"nb\">16-May-2024</span></td><td>-</td></tr></table></div>"
        },
        "status": "completed",
        "performedDateTime": "2024-05-16",
        "subject": {
          "reference": "urn:uuid:",
          "display": "Molly Jenkins"
        }
      }
    },
    {
      "fullUrl": "urn:uuid:6ecf9ca5-0c02-455e-a15c-8570ccf3b3ae",
      "resource": {
        "resourceType": "Procedure",
        "id": "6ecf9ca5-0c02-455e-a15c-8570ccf3b3ae",
        "meta": {
          "profile": [
            "http://hl7.org/fhir/uv/ips/StructureDefinition/Procedure-uv-ips"
          ]
        },
        "code": {
          "coding": [
            {
              "code": "428211000124100",
              "system": "http://snomed.info/sct",
              "display": "Assessment of substance use (procedure)"
            }
          ],
          "text": "Assessment of substance use"
        },
        "text": {
          "status": "generated",
          "div": "<div xmlns=\"http://www.w3.org/1999/xhtml\"><table class=\"hl7__ips\"><tr><td>Assessment of substance use</td><td><span class=\"nb\">16-May-2024</span></td><td>-</td></tr></table></div>"
        },
        "status": "completed",
        "performedDateTime": "2024-05-16",
        "subject": {
          "reference": "urn:uuid:",
          "display": "Molly Jenkins"
        }
      }
    },
    {
      "fullUrl": "urn:uuid:e2ab56f8-dc02-4000-a2e6-3d237104bf4b",
      "resource": {
        "resourceType": "Procedure",
        "id": "e2ab56f8-dc02-4000-a2e6-3d237104bf4b",
        "meta": {
          "profile": [
            "http://hl7.org/fhir/uv/ips/StructureDefinition/Procedure-uv-ips"
          ]
        },
        "code": {
          "coding": [
            {
              "code": "454711000124102",
              "system": "http://snomed.info/sct",
              "display": "Depression screening using Patient Health Questionnaire Two-Item score (procedure)"
            }
          ]
        },
        "text": {
          "status": "generated",
          "div": "<div xmlns=\"http://www.w3.org/1999/xhtml\"><table class=\"hl7__ips\"><tr><td>Depression screening using Patient Health Questionnaire Two-Item score (procedure)</td><td><span class=\"nb\">16-May-2024</span></td><td>-</td></tr></table></div>"
        },
        "status": "completed",
        "performedDateTime": "2024-05-16",
        "subject": {
          "reference": "urn:uuid:",
          "display": "Molly Jenkins"
        }
      }
    },
    {
      "fullUrl": "urn:uuid:5416403e-b55e-49de-8d0c-65ba3275443f",
      "resource": {
        "resourceType": "Procedure",
        "id": "5416403e-b55e-49de-8d0c-65ba3275443f",
        "meta": {
          "profile": [
            "http://hl7.org/fhir/uv/ips/StructureDefinition/Procedure-uv-ips"
          ]
        },
        "code": {
          "coding": [
            {
              "code": "762993000",
              "system": "http://snomed.info/sct",
              "display": "Assessment using Morse Fall Scale (procedure)"
            }
          ],
          "text": "Assessment using Morse Fall Scale"
        },
        "text": {
          "status": "generated",
          "div": "<div xmlns=\"http://www.w3.org/1999/xhtml\"><table class=\"hl7__ips\"><tr><td>Assessment using Morse Fall Scale</td><td><span class=\"nb\">14-Sep-2023</span></td><td>-</td></tr></table></div>"
        },
        "status": "completed",
        "performedDateTime": "2023-09-14",
        "subject": {
          "reference": "urn:uuid:",
          "display": "Molly Jenkins"
        }
      }
    },
    {
      "fullUrl": "urn:uuid:4120f4e7-be33-4bf3-b906-a4d2d3ab5813",
      "resource": {
        "resourceType": "AllergyIntolerance",
        "id": "4120f4e7-be33-4bf3-b906-a4d2d3ab5813",
        "meta": {
          "profile": [
            "http://hl7.eu/fhir/eps/StructureDefinition/allergyIntolerance-eu-eps"
          ]
        },
        "code": {
          "text": ""
        },
        "clinicalStatus": {
          "coding": [
            {
              "code": "active",
              "system": "http://terminology.hl7.org/CodeSystem/allergyintolerance-clinical"
            }
          ]
        },
        "text": {
          "status": "generated",
          "div": "<div xmlns=\"http://www.w3.org/1999/xhtml\"><table class=\"hl7__ips\"><tr><th>Allergy/Intolerance</th><th>Onset Date</th><th>Status</th><th>Type</th><th>Reaction</th></tr><tr><td></td><td>?</td><td>active</td><td>?</td><td></td></tr></table></div>"
        },
        "verificationStatus": {
          "coding": [
            {
              "code": "confirmed",
              "system": "http://terminology.hl7.org/CodeSystem/allergyintolerance-verification"
            }
          ]
        },
        "patient": {
          "reference": "urn:uuid:192df278-7c1b-41d4-b3d7-297f889e4e95",
          "display": "Molly Jenkins"
        },
        "_onsetDateTime": {
          "extension": [
            {
              "url": "http://hl7.org/fhir/StructureDefinition/data-absent-reason",
              "valueCode": "unknown"
            }
          ]
        }
      }
    },
    {
      "fullUrl": "urn:uuid:0b042849-8b03-4717-a77c-e3939d0c2c3b",
      "resource": {
        "resourceType": "CarePlan",
        "id": "0b042849-8b03-4717-a77c-e3939d0c2c3b",
        "category": [
          {
            "coding": [
              {
                "code": "assess-plan",
                "system": "http://terminology.hl7.org/CodeSystem/care-plan-category",
                "display": "Assessment and Plan"
              }
            ]
          }
        ],
        "activity": [
          {
            "detail": {
              "code": {
                "coding": [
                  {
                    "code": "698360004",
                    "system": "http://snomed.info/sct",
                    "display": "Diabetes self management plan (qualifier value)"
                  }
                ]
              },
              "reasonCode": [
                {
                  "coding": [
                    {
                      "code": "15777000",
                      "system": "http://snomed.info/sct",
                      "display": "Prediabetes"
                    }
                  ]
                }
              ],
              "status": "unknown",
              "description": "Diabetes self management plan",
              "kind": "Appointment"
            }
          }
        ],
        "period": {
          "start": "2002-04-04"
        },
        "goal": [
          {
            "reference": "urn:uuid:e0fbc28c-1801-46b1-a08a-6610efe50991"
          },
          {
            "reference": "urn:uuid:6610a7c6-d673-4c88-8b3d-445c3eea1c23"
          },
          {
            "reference": "urn:uuid:b876bbbc-f40a-4a9d-ab7d-f6a146ca1fe6"
          },
          {
            "reference": "urn:uuid:3a1932ce-cb7b-415b-aef9-175d718976e6"
          },
          {
            "reference": "urn:uuid:1088c871-ebc1-4859-be05-b2f558785e6b"
          }
        ],
        "text": {
          "status": "generated",
          "div": "<div xmlns=\"http://www.w3.org/1999/xhtml\"><table class=\"hl7__ips first25\"><tr><th>Active Planned Care / Goals</th><th>Start Date</th><th>Reason</th></tr><tr><td>Diabetes self management plan</td><td><span class=\"nb\">04-Apr-2002</span></td><td>Prediabetes</td></tr><tr><td><ul><li>Patient will demonstrate understanding of diabetes self-management strategies including diet, exercise, and blood glucose monitoring.</li><li>Maintain hemoglobin A1c below 6.5% to reduce risk of diabetes progression.</li><li>Maintain fasting plasma glucose below 100 mg/dL to prevent progression to diabetes.</li><li>Achieve at least 5% reduction in body weight from baseline to improve glycemic control.</li><li>Engage in at least 150 minutes of moderate-intensity physical activity per week as part of diabetes self-management.</li></ul></td><td></td><td></td></tr></table></div>"
        },
        "status": "active",
        "intent": "plan",
        "subject": {
          "reference": "urn:uuid:192df278-7c1b-41d4-b3d7-297f889e4e95",
          "display": "Molly Jenkins"
        }
      }
    },
    {
      "fullUrl": "urn:uuid:fe6b32bf-8db2-4243-87b4-f8d0ba0c221e",
      "resource": {
        "resourceType": "CarePlan",
        "id": "fe6b32bf-8db2-4243-87b4-f8d0ba0c221e",
        "category": [
          {
            "coding": [
              {
                "code": "assess-plan",
                "system": "http://terminology.hl7.org/CodeSystem/care-plan-category",
                "display": "Assessment and Plan"
              }
            ]
          }
        ],
        "activity": [
          {
            "detail": {
              "code": {
                "coding": [
                  {
                    "code": "443402002",
                    "system": "http://snomed.info/sct",
                    "display": "Lifestyle education regarding hypertension (procedure)"
                  }
                ]
              },
              "reasonCode": [
                {
                  "coding": [
                    {
                      "code": "59621000",
                      "system": "http://snomed.info/sct",
                      "display": "Essential hypertension (disorder)"
                    }
                  ]
                }
              ],
              "status": "unknown",
              "description": "Lifestyle education regarding hypertension",
              "kind": "Appointment"
            }
          }
        ],
        "period": {
          "start": "1989-01-19"
        },
        "goal": [
          {
            "reference": "urn:uuid:0404dbff-499c-4550-94f1-dddf3c183936"
          }
        ],
        "text": {
          "status": "generated",
          "div": "<div xmlns=\"http://www.w3.org/1999/xhtml\"><table class=\"hl7__ips first25\"><tr><th>Active Planned Care / Goals</th><th>Start Date</th><th>Reason</th></tr><tr><td>Lifestyle education regarding hypertension</td><td><span class=\"nb\">19-Jan-1989</span></td><td>Essential hypertension (disorder)</td></tr><tr><td><ul><li>Achieve and maintain blood pressure within target range through lifestyle modifications.</li></ul></td><td></td><td></td></tr></table></div>"
        },
        "status": "active",
        "intent": "plan",
        "subject": {
          "reference": "urn:uuid:192df278-7c1b-41d4-b3d7-297f889e4e95",
          "display": "Molly Jenkins"
        }
      }
    },
    {
      "fullUrl": "urn:uuid:b709c279-42bc-4e48-a8ce-de0b73f7fa54",
      "resource": {
        "resourceType": "Observation",
        "id": "b709c279-42bc-4e48-a8ce-de0b73f7fa54",
        "meta": {
          "profile": [
            "http://hl7.org/fhir/StructureDefinition/vitalsigns"
          ]
        },
        "category": [
          {
            "coding": [
              {
                "system": "http://terminology.hl7.org/CodeSystem/observation-category",
                "code": "vital-signs",
                "display": "Vital Signs"
              }
            ]
          }
        ],
        "valueQuantity": {
          "value": 154.6,
          "code": "cm",
          "unit": "cm"
        },
        "text": {
          "status": "generated",
          "div": "<div xmlns=\"http://www.w3.org/1999/xhtml\"><table class=\"hl7__ips\"><tr><th>Vital Sign</th><th>Date</th><th>Measurement</th></tr><tr><td>Body Height</td><td>24-Oct-2024</td><td>154.6 cm</td></tr></table></div>"
        },
        "status": "final",
        "code": {
          "coding": [
            {
              "code": "$8302-2",
              "system": "http://loinc.org",
              "display": "Body Height"
            }
          ]
        },
        "subject": {
          "reference": "urn:uuid:192df278-7c1b-41d4-b3d7-297f889e4e95",
          "display": "Molly Jenkins"
        },
        "effectiveDateTime": "2024-10-24"
      }
    },
    {
      "fullUrl": "urn:uuid:c96a7838-3950-4b30-abd0-3b8c101ab8fb",
      "resource": {
        "resourceType": "Observation",
        "id": "c96a7838-3950-4b30-abd0-3b8c101ab8fb",
        "meta": {
          "profile": [
            "http://hl7.org/fhir/StructureDefinition/vitalsigns"
          ]
        },
        "category": [
          {
            "coding": [
              {
                "system": "http://terminology.hl7.org/CodeSystem/observation-category",
                "code": "vital-signs",
                "display": "Vital Signs"
              }
            ]
          }
        ],
        "valueQuantity": {
          "value": 3,
          "code": "{score}",
          "unit": "{score}"
        },
        "text": {
          "status": "generated",
          "div": "<div xmlns=\"http://www.w3.org/1999/xhtml\"><table class=\"hl7__ips\"><tr><th>Vital Sign</th><th>Date</th><th>Measurement</th></tr><tr><td>Pain severity - 0-10 verbal numeric rating [Score] - Reported</td><td>24-Oct-2024</td><td>3 {score}</td></tr></table></div>"
        },
        "status": "final",
        "code": {
          "coding": [
            {
              "code": "$72514-3",
              "system": "http://loinc.org",
              "display": "Pain severity - 0-10 verbal numeric rating [Score] - Reported"
            }
          ]
        },
        "subject": {
          "reference": "urn:uuid:192df278-7c1b-41d4-b3d7-297f889e4e95",
          "display": "Molly Jenkins"
        },
        "effectiveDateTime": "2024-10-24"
      }
    },
    {
      "fullUrl": "urn:uuid:e5e733a2-364c-4254-bc14-eae167e78650",
      "resource": {
        "resourceType": "Observation",
        "id": "e5e733a2-364c-4254-bc14-eae167e78650",
        "meta": {
          "profile": [
            "http://hl7.org/fhir/StructureDefinition/vitalsigns"
          ]
        },
        "category": [
          {
            "coding": [
              {
                "system": "http://terminology.hl7.org/CodeSystem/observation-category",
                "code": "vital-signs",
                "display": "Vital Signs"
              }
            ]
          }
        ],
        "valueQuantity": {
          "value": 66.4,
          "code": "kg",
          "unit": "kg"
        },
        "text": {
          "status": "generated",
          "div": "<div xmlns=\"http://www.w3.org/1999/xhtml\"><table class=\"hl7__ips\"><tr><th>Vital Sign</th><th>Date</th><th>Measurement</th></tr><tr><td>Body Weight</td><td>24-Oct-2024</td><td>66.4 kg</td></tr></table></div>"
        },
        "status": "final",
        "code": {
          "coding": [
            {
              "code": "$29463-7",
              "system": "http://loinc.org",
              "display": "Body Weight"
            }
          ]
        },
        "subject": {
          "reference": "urn:uuid:192df278-7c1b-41d4-b3d7-297f889e4e95",
          "display": "Molly Jenkins"
        },
        "effectiveDateTime": "2024-10-24"
      }
    },
    {
      "fullUrl": "urn:uuid:eea84b1c-f807-4607-a5ef-8c1452bc8350",
      "resource": {
        "resourceType": "Observation",
        "id": "eea84b1c-f807-4607-a5ef-8c1452bc8350",
        "meta": {
          "profile": [
            "http://hl7.org/fhir/StructureDefinition/vitalsigns"
          ]
        },
        "category": [
          {
            "coding": [
              {
                "system": "http://terminology.hl7.org/CodeSystem/observation-category",
                "code": "vital-signs",
                "display": "Vital Signs"
              }
            ]
          }
        ],
        "valueQuantity": {
          "value": 27.8,
          "code": "kg/m2",
          "unit": "kg/m2"
        },
        "text": {
          "status": "generated",
          "div": "<div xmlns=\"http://www.w3.org/1999/xhtml\"><table class=\"hl7__ips\"><tr><th>Vital Sign</th><th>Date</th><th>Measurement</th></tr><tr><td>Body mass index (BMI) [Ratio]</td><td>24-Oct-2024</td><td>27.8 kg/m2</td></tr></table></div>"
        },
        "status": "final",
        "code": {
          "coding": [
            {
              "code": "$39156-5",
              "system": "http://loinc.org",
              "display": "Body mass index (BMI) [Ratio]"
            }
          ]
        },
        "subject": {
          "reference": "urn:uuid:192df278-7c1b-41d4-b3d7-297f889e4e95",
          "display": "Molly Jenkins"
        },
        "effectiveDateTime": "2024-10-24"
      }
    },
    {
      "fullUrl": "urn:uuid:2603451a-3c6e-4eaa-80bf-f917d34939bf",
      "resource": {
        "resourceType": "Observation",
        "id": "2603451a-3c6e-4eaa-80bf-f917d34939bf",
        "meta": {
          "profile": [
            "http://hl7.org/fhir/StructureDefinition/vitalsigns"
          ]
        },
        "category": [
          {
            "coding": [
              {
                "system": "http://terminology.hl7.org/CodeSystem/observation-category",
                "code": "vital-signs",
                "display": "Vital Signs"
              }
            ]
          }
        ],
        "valueQuantity": {
          "value": 57,
          "code": "mm[Hg]",
          "unit": "mm[Hg]"
        },
        "text": {
          "status": "generated",
          "div": "<div xmlns=\"http://www.w3.org/1999/xhtml\"><table class=\"hl7__ips\"><tr><th>Vital Sign</th><th>Date</th><th>Measurement</th></tr><tr><td>Diastolic Blood Pressure</td><td>24-Oct-2024</td><td>57 mm[Hg]</td></tr></table></div>"
        },
        "status": "final",
        "code": {
          "coding": [
            {
              "code": "$8462-4",
              "system": "http://loinc.org",
              "display": "Diastolic Blood Pressure"
            }
          ]
        },
        "subject": {
          "reference": "urn:uuid:192df278-7c1b-41d4-b3d7-297f889e4e95",
          "display": "Molly Jenkins"
        },
        "effectiveDateTime": "2024-10-24"
      }
    },
    {
      "fullUrl": "urn:uuid:e6093139-7a02-49c8-b641-311cc20df94f",
      "resource": {
        "resourceType": "Observation",
        "id": "e6093139-7a02-49c8-b641-311cc20df94f",
        "meta": {
          "profile": [
            "http://hl7.org/fhir/StructureDefinition/vitalsigns"
          ]
        },
        "category": [
          {
            "coding": [
              {
                "system": "http://terminology.hl7.org/CodeSystem/observation-category",
                "code": "vital-signs",
                "display": "Vital Signs"
              }
            ]
          }
        ],
        "valueQuantity": {
          "value": 93,
          "code": "mm[Hg]",
          "unit": "mm[Hg]"
        },
        "text": {
          "status": "generated",
          "div": "<div xmlns=\"http://www.w3.org/1999/xhtml\"><table class=\"hl7__ips\"><tr><th>Vital Sign</th><th>Date</th><th>Measurement</th></tr><tr><td>Systolic Blood Pressure</td><td>24-Oct-2024</td><td>93 mm[Hg]</td></tr></table></div>"
        },
        "status": "final",
        "code": {
          "coding": [
            {
              "code": "$8480-6",
              "system": "http://loinc.org",
              "display": "Systolic Blood Pressure"
            }
          ]
        },
        "subject": {
          "reference": "urn:uuid:192df278-7c1b-41d4-b3d7-297f889e4e95",
          "display": "Molly Jenkins"
        },
        "effectiveDateTime": "2024-10-24"
      }
    },
    {
      "fullUrl": "urn:uuid:5a4e2a6d-3a55-4fc0-a935-55014647dd67",
      "resource": {
        "resourceType": "Observation",
        "id": "5a4e2a6d-3a55-4fc0-a935-55014647dd67",
        "meta": {
          "profile": [
            "http://hl7.org/fhir/StructureDefinition/vitalsigns"
          ]
        },
        "category": [
          {
            "coding": [
              {
                "system": "http://terminology.hl7.org/CodeSystem/observation-category",
                "code": "vital-signs",
                "display": "Vital Signs"
              }
            ]
          }
        ],
        "valueQuantity": {
          "value": 89,
          "code": "/min",
          "unit": "/min"
        },
        "text": {
          "status": "generated",
          "div": "<div xmlns=\"http://www.w3.org/1999/xhtml\"><table class=\"hl7__ips\"><tr><th>Vital Sign</th><th>Date</th><th>Measurement</th></tr><tr><td>Heart rate</td><td>24-Oct-2024</td><td>89 /min</td></tr></table></div>"
        },
        "status": "final",
        "code": {
          "coding": [
            {
              "code": "$8867-4",
              "system": "http://loinc.org",
              "display": "Heart rate"
            }
          ]
        },
        "subject": {
          "reference": "urn:uuid:192df278-7c1b-41d4-b3d7-297f889e4e95",
          "display": "Molly Jenkins"
        },
        "effectiveDateTime": "2024-10-24"
      }
    },
    {
      "fullUrl": "urn:uuid:8c3d9b2d-2e40-4acf-bdc2-0c36b60ca8fe",
      "resource": {
        "resourceType": "Observation",
        "id": "8c3d9b2d-2e40-4acf-bdc2-0c36b60ca8fe",
        "meta": {
          "profile": [
            "http://hl7.org/fhir/StructureDefinition/vitalsigns"
          ]
        },
        "category": [
          {
            "coding": [
              {
                "system": "http://terminology.hl7.org/CodeSystem/observation-category",
                "code": "vital-signs",
                "display": "Vital Signs"
              }
            ]
          }
        ],
        "valueQuantity": {
          "value": 13,
          "code": "/min",
          "unit": "/min"
        },
        "text": {
          "status": "generated",
          "div": "<div xmlns=\"http://www.w3.org/1999/xhtml\"><table class=\"hl7__ips\"><tr><th>Vital Sign</th><th>Date</th><th>Measurement</th></tr><tr><td>Respiratory rate</td><td>24-Oct-2024</td><td>13 /min</td></tr></table></div>"
        },
        "status": "final",
        "code": {
          "coding": [
            {
              "code": "$9279-1",
              "system": "http://loinc.org",
              "display": "Respiratory rate"
            }
          ]
        },
        "subject": {
          "reference": "urn:uuid:192df278-7c1b-41d4-b3d7-297f889e4e95",
          "display": "Molly Jenkins"
        },
        "effectiveDateTime": "2024-10-24"
      }
    },
    {
      "fullUrl": "urn:uuid:1b0a015f-1625-4f4d-9eab-5de584c84b9c",
      "resource": {
        "resourceType": "Observation",
        "id": "1b0a015f-1625-4f4d-9eab-5de584c84b9c",
        "meta": {
          "profile": [
            "http://hl7.org/fhir/StructureDefinition/vitalsigns"
          ]
        },
        "category": [
          {
            "coding": [
              {
                "system": "http://terminology.hl7.org/CodeSystem/observation-category",
                "code": "vital-signs",
                "display": "Vital Signs"
              }
            ]
          }
        ],
        "valueQuantity": {
          "value": 154.6,
          "code": "cm",
          "unit": "cm"
        },
        "text": {
          "status": "generated",
          "div": "<div xmlns=\"http://www.w3.org/1999/xhtml\"><table class=\"hl7__ips\"><tr><th>Vital Sign</th><th>Date</th><th>Measurement</th></tr><tr><td>Body Height</td><td>08-Aug-2024</td><td>154.6 cm</td></tr></table></div>"
        },
        "status": "final",
        "code": {
          "coding": [
            {
              "code": "$8302-2",
              "system": "http://loinc.org",
              "display": "Body Height"
            }
          ]
        },
        "subject": {
          "reference": "urn:uuid:192df278-7c1b-41d4-b3d7-297f889e4e95",
          "display": "Molly Jenkins"
        },
        "effectiveDateTime": "2024-08-08"
      }
    },
    {
      "fullUrl": "urn:uuid:8fb72467-e190-4af5-9d64-e18f9c486084",
      "resource": {
        "resourceType": "Observation",
        "id": "8fb72467-e190-4af5-9d64-e18f9c486084",
        "meta": {
          "profile": [
            "http://hl7.org/fhir/StructureDefinition/vitalsigns"
          ]
        },
        "category": [
          {
            "coding": [
              {
                "system": "http://terminology.hl7.org/CodeSystem/observation-category",
                "code": "vital-signs",
                "display": "Vital Signs"
              }
            ]
          }
        ],
        "valueQuantity": {
          "value": 2,
          "code": "{score}",
          "unit": "{score}"
        },
        "text": {
          "status": "generated",
          "div": "<div xmlns=\"http://www.w3.org/1999/xhtml\"><table class=\"hl7__ips\"><tr><th>Vital Sign</th><th>Date</th><th>Measurement</th></tr><tr><td>Pain severity - 0-10 verbal numeric rating [Score] - Reported</td><td>08-Aug-2024</td><td>2 {score}</td></tr></table></div>"
        },
        "status": "final",
        "code": {
          "coding": [
            {
              "code": "$72514-3",
              "system": "http://loinc.org",
              "display": "Pain severity - 0-10 verbal numeric rating [Score] - Reported"
            }
          ]
        },
        "subject": {
          "reference": "urn:uuid:192df278-7c1b-41d4-b3d7-297f889e4e95",
          "display": "Molly Jenkins"
        },
        "effectiveDateTime": "2024-08-08"
      }
    },
    {
      "fullUrl": "urn:uuid:e422c7dd-6f66-4402-a589-b8b93f9b6b62",
      "resource": {
        "resourceType": "Observation",
        "id": "e422c7dd-6f66-4402-a589-b8b93f9b6b62",
        "meta": {
          "profile": [
            "http://hl7.org/fhir/StructureDefinition/vitalsigns"
          ]
        },
        "category": [
          {
            "coding": [
              {
                "system": "http://terminology.hl7.org/CodeSystem/observation-category",
                "code": "vital-signs",
                "display": "Vital Signs"
              }
            ]
          }
        ],
        "valueQuantity": {
          "value": 66.4,
          "code": "kg",
          "unit": "kg"
        },
        "text": {
          "status": "generated",
          "div": "<div xmlns=\"http://www.w3.org/1999/xhtml\"><table class=\"hl7__ips\"><tr><th>Vital Sign</th><th>Date</th><th>Measurement</th></tr><tr><td>Body Weight</td><td>08-Aug-2024</td><td>66.4 kg</td></tr></table></div>"
        },
        "status": "final",
        "code": {
          "coding": [
            {
              "code": "$29463-7",
              "system": "http://loinc.org",
              "display": "Body Weight"
            }
          ]
        },
        "subject": {
          "reference": "urn:uuid:192df278-7c1b-41d4-b3d7-297f889e4e95",
          "display": "Molly Jenkins"
        },
        "effectiveDateTime": "2024-08-08"
      }
    },
    {
      "fullUrl": "urn:uuid:571cb57c-1ca3-487d-a83f-9195836258bf",
      "resource": {
        "resourceType": "Observation",
        "id": "571cb57c-1ca3-487d-a83f-9195836258bf",
        "meta": {
          "profile": [
            "http://hl7.org/fhir/StructureDefinition/vitalsigns"
          ]
        },
        "category": [
          {
            "coding": [
              {
                "system": "http://terminology.hl7.org/CodeSystem/observation-category",
                "code": "vital-signs",
                "display": "Vital Signs"
              }
            ]
          }
        ],
        "valueQuantity": {
          "value": 27.8,
          "code": "kg/m2",
          "unit": "kg/m2"
        },
        "text": {
          "status": "generated",
          "div": "<div xmlns=\"http://www.w3.org/1999/xhtml\"><table class=\"hl7__ips\"><tr><th>Vital Sign</th><th>Date</th><th>Measurement</th></tr><tr><td>Body mass index (BMI) [Ratio]</td><td>08-Aug-2024</td><td>27.8 kg/m2</td></tr></table></div>"
        },
        "status": "final",
        "code": {
          "coding": [
            {
              "code": "$39156-5",
              "system": "http://loinc.org",
              "display": "Body mass index (BMI) [Ratio]"
            }
          ]
        },
        "subject": {
          "reference": "urn:uuid:192df278-7c1b-41d4-b3d7-297f889e4e95",
          "display": "Molly Jenkins"
        },
        "effectiveDateTime": "2024-08-08"
      }
    },
    {
      "fullUrl": "urn:uuid:b8a24839-ce29-488e-9136-d977dac2d881",
      "resource": {
        "resourceType": "Observation",
        "id": "b8a24839-ce29-488e-9136-d977dac2d881",
        "meta": {
          "profile": [
            "http://hl7.org/fhir/StructureDefinition/vitalsigns"
          ]
        },
        "category": [
          {
            "coding": [
              {
                "system": "http://terminology.hl7.org/CodeSystem/observation-category",
                "code": "vital-signs",
                "display": "Vital Signs"
              }
            ]
          }
        ],
        "valueQuantity": {
          "value": 47,
          "code": "mm[Hg]",
          "unit": "mm[Hg]"
        },
        "text": {
          "status": "generated",
          "div": "<div xmlns=\"http://www.w3.org/1999/xhtml\"><table class=\"hl7__ips\"><tr><th>Vital Sign</th><th>Date</th><th>Measurement</th></tr><tr><td>Diastolic Blood Pressure</td><td>08-Aug-2024</td><td>47 mm[Hg]</td></tr></table></div>"
        },
        "status": "final",
        "code": {
          "coding": [
            {
              "code": "$8462-4",
              "system": "http://loinc.org",
              "display": "Diastolic Blood Pressure"
            }
          ]
        },
        "subject": {
          "reference": "urn:uuid:192df278-7c1b-41d4-b3d7-297f889e4e95",
          "display": "Molly Jenkins"
        },
        "effectiveDateTime": "2024-08-08"
      }
    },
    {
      "fullUrl": "urn:uuid:55d7550a-9732-49ad-a551-01880562c2f7",
      "resource": {
        "resourceType": "Observation",
        "id": "55d7550a-9732-49ad-a551-01880562c2f7",
        "meta": {
          "profile": [
            "http://hl7.org/fhir/StructureDefinition/vitalsigns"
          ]
        },
        "category": [
          {
            "coding": [
              {
                "system": "http://terminology.hl7.org/CodeSystem/observation-category",
                "code": "vital-signs",
                "display": "Vital Signs"
              }
            ]
          }
        ],
        "valueQuantity": {
          "value": 93,
          "code": "mm[Hg]",
          "unit": "mm[Hg]"
        },
        "text": {
          "status": "generated",
          "div": "<div xmlns=\"http://www.w3.org/1999/xhtml\"><table class=\"hl7__ips\"><tr><th>Vital Sign</th><th>Date</th><th>Measurement</th></tr><tr><td>Systolic Blood Pressure</td><td>08-Aug-2024</td><td>93 mm[Hg]</td></tr></table></div>"
        },
        "status": "final",
        "code": {
          "coding": [
            {
              "code": "$8480-6",
              "system": "http://loinc.org",
              "display": "Systolic Blood Pressure"
            }
          ]
        },
        "subject": {
          "reference": "urn:uuid:192df278-7c1b-41d4-b3d7-297f889e4e95",
          "display": "Molly Jenkins"
        },
        "effectiveDateTime": "2024-08-08"
      }
    },
    {
      "fullUrl": "urn:uuid:afe0f4c1-1a3c-46ca-b563-9c9f1ce87714",
      "resource": {
        "resourceType": "Observation",
        "id": "afe0f4c1-1a3c-46ca-b563-9c9f1ce87714",
        "meta": {
          "profile": [
            "http://hl7.org/fhir/StructureDefinition/vitalsigns"
          ]
        },
        "category": [
          {
            "coding": [
              {
                "system": "http://terminology.hl7.org/CodeSystem/observation-category",
                "code": "vital-signs",
                "display": "Vital Signs"
              }
            ]
          }
        ],
        "valueQuantity": {
          "value": 79,
          "code": "/min",
          "unit": "/min"
        },
        "text": {
          "status": "generated",
          "div": "<div xmlns=\"http://www.w3.org/1999/xhtml\"><table class=\"hl7__ips\"><tr><th>Vital Sign</th><th>Date</th><th>Measurement</th></tr><tr><td>Heart rate</td><td>08-Aug-2024</td><td>79 /min</td></tr></table></div>"
        },
        "status": "final",
        "code": {
          "coding": [
            {
              "code": "$8867-4",
              "system": "http://loinc.org",
              "display": "Heart rate"
            }
          ]
        },
        "subject": {
          "reference": "urn:uuid:192df278-7c1b-41d4-b3d7-297f889e4e95",
          "display": "Molly Jenkins"
        },
        "effectiveDateTime": "2024-08-08"
      }
    },
    {
      "fullUrl": "urn:uuid:63eeda4e-d78c-4a8a-9606-c574d26a9ff3",
      "resource": {
        "resourceType": "Observation",
        "id": "63eeda4e-d78c-4a8a-9606-c574d26a9ff3",
        "meta": {
          "profile": [
            "http://hl7.org/fhir/StructureDefinition/vitalsigns"
          ]
        },
        "category": [
          {
            "coding": [
              {
                "system": "http://terminology.hl7.org/CodeSystem/observation-category",
                "code": "vital-signs",
                "display": "Vital Signs"
              }
            ]
          }
        ],
        "valueQuantity": {
          "value": 13,
          "code": "/min",
          "unit": "/min"
        },
        "text": {
          "status": "generated",
          "div": "<div xmlns=\"http://www.w3.org/1999/xhtml\"><table class=\"hl7__ips\"><tr><th>Vital Sign</th><th>Date</th><th>Measurement</th></tr><tr><td>Respiratory rate</td><td>08-Aug-2024</td><td>13 /min</td></tr></table></div>"
        },
        "status": "final",
        "code": {
          "coding": [
            {
              "code": "$9279-1",
              "system": "http://loinc.org",
              "display": "Respiratory rate"
            }
          ]
        },
        "subject": {
          "reference": "urn:uuid:192df278-7c1b-41d4-b3d7-297f889e4e95",
          "display": "Molly Jenkins"
        },
        "effectiveDateTime": "2024-08-08"
      }
    },
    {
      "fullUrl": "urn:uuid:3d5d3892-d8b5-44a1-a9a6-f2e1666ca5a7",
      "resource": {
        "resourceType": "Observation",
        "id": "3d5d3892-d8b5-44a1-a9a6-f2e1666ca5a7",
        "meta": {
          "profile": [
            "http://hl7.eu/fhir/laboratory/StructureDefinition/Observation-resultslab-eu-lab"
          ]
        },
        "performer": [
          {
            "display": "The Central European Lab"
          }
        ],
        "category": [
          {
            "coding": [
              {
                "system": "http://terminology.hl7.org/CodeSystem/observation-category",
                "code": "laboratory"
              }
            ]
          }
        ],
        "code": {
          "coding": [
            {
              "code": "2345-7",
              "system": "http://loinc.org",
              "display": "Glucose [Mass/volume] in Serum or Plasma"
            }
          ],
          "text": "Glucose [Mass/volume] in Serum or Plasma"
        },
        "valueQuantity": {
          "system": "http://unitsofmeasure.org",
          "value": 68.9,
          "unit": "mg/dL",
          "code": "mg/dL"
        },
        "referenceRange": [
          {
            "low": {
              "value": 70,
              "code": "mg/dL",
              "system": "http://unitsofmeasure.org"
            }
          },
          {
            "high": {
              "value": 139,
              "code": "mg/dL",
              "system": "http://unitsofmeasure.org"
            }
          }
        ],
        "interpretation": [
          {
            "coding": [
              {
                "code": "L",
                "system": "http://terminology.hl7.org/CodeSystem/v3-ObservationInterpretation",
                "display": "Low"
              }
            ]
          }
        ],
        "text": {
          "status": "generated",
          "div": "<div xmlns=\"http://www.w3.org/1999/xhtml\"><table class=\"hl7__eu__lab__report\"><tr><th>Test</th><th>24-Oct-2024</th><th>Reference&#xA0;Range</th><th>Unit</th></tr><tr><td>Glucose [Mass/volume] in Serum or Plasma</td><td>68.9</td><td>70 - 139</td><td>L</td><td>mg/dL</td></tr></table></div>"
        },
        "status": "final",
        "subject": {
          "reference": "urn:uuid:192df278-7c1b-41d4-b3d7-297f889e4e95",
          "display": "Molly Jenkins"
        },
        "effectiveDateTime": "2024-10-24T14:42:11Z"
      }
    },
    {
      "fullUrl": "urn:uuid:3c1c3e99-d018-46af-9bed-01e54bc8ba42",
      "resource": {
        "resourceType": "Observation",
        "id": "3c1c3e99-d018-46af-9bed-01e54bc8ba42",
        "meta": {
          "profile": [
            "http://hl7.eu/fhir/laboratory/StructureDefinition/Observation-resultslab-eu-lab"
          ]
        },
        "performer": [
          {
            "display": "The Central European Lab"
          }
        ],
        "category": [
          {
            "coding": [
              {
                "system": "http://terminology.hl7.org/CodeSystem/observation-category",
                "code": "laboratory"
              }
            ]
          }
        ],
        "code": {
          "coding": [
            {
              "code": "3094-0",
              "system": "http://loinc.org",
              "display": "Urea nitrogen [Mass/volume] in Serum or Plasma"
            }
          ],
          "text": "Urea nitrogen [Mass/volume] in Serum or Plasma"
        },
        "valueQuantity": {
          "system": "http://unitsofmeasure.org",
          "value": 10.9,
          "unit": "mg/dL",
          "code": "mg/dL"
        },
        "referenceRange": [
          {
            "low": {
              "value": 7,
              "code": "mg/dL",
              "system": "http://unitsofmeasure.org"
            }
          },
          {
            "high": {
              "value": 20,
              "code": "mg/dL",
              "system": "http://unitsofmeasure.org"
            }
          }
        ],
        "text": {
          "status": "generated",
          "div": "<div xmlns=\"http://www.w3.org/1999/xhtml\"><table class=\"hl7__eu__lab__report\"><tr><th>Test</th><th>24-Oct-2024</th><th>Reference&#xA0;Range</th><th>Unit</th></tr><tr><td>Urea nitrogen [Mass/volume] in Serum or Plasma</td><td>10.9</td><td>7 - 20</td><td></td><td>mg/dL</td></tr></table></div>"
        },
        "status": "final",
        "subject": {
          "reference": "urn:uuid:192df278-7c1b-41d4-b3d7-297f889e4e95",
          "display": "Molly Jenkins"
        },
        "effectiveDateTime": "2024-10-24T14:42:11Z"
      }
    },
    {
      "fullUrl": "urn:uuid:92fe857a-5749-4327-976c-da75ec0e8962",
      "resource": {
        "resourceType": "Observation",
        "id": "92fe857a-5749-4327-976c-da75ec0e8962",
        "meta": {
          "profile": [
            "http://hl7.eu/fhir/laboratory/StructureDefinition/Observation-resultslab-eu-lab"
          ]
        },
        "performer": [
          {
            "display": "The Central European Lab"
          }
        ],
        "category": [
          {
            "coding": [
              {
                "system": "http://terminology.hl7.org/CodeSystem/observation-category",
                "code": "laboratory"
              }
            ]
          }
        ],
        "code": {
          "coding": [
            {
              "code": "2160-0",
              "system": "http://loinc.org",
              "display": "Creatinine [Mass/volume] in Serum or Plasma"
            }
          ],
          "text": "Creatinine [Mass/volume] in Serum or Plasma"
        },
        "valueQuantity": {
          "system": "http://unitsofmeasure.org",
          "value": 1.9,
          "unit": "mg/dL",
          "code": "mg/dL"
        },
        "referenceRange": [
          {
            "low": {
              "value": 0.6,
              "code": "mg/dL",
              "system": "http://unitsofmeasure.org"
            }
          },
          {
            "high": {
              "value": 1.1,
              "code": "mg/dL",
              "system": "http://unitsofmeasure.org"
            }
          }
        ],
        "interpretation": [
          {
            "coding": [
              {
                "code": "H",
                "system": "http://terminology.hl7.org/CodeSystem/v3-ObservationInterpretation",
                "display": "High"
              }
            ]
          }
        ],
        "text": {
          "status": "generated",
          "div": "<div xmlns=\"http://www.w3.org/1999/xhtml\"><table class=\"hl7__eu__lab__report\"><tr><th>Test</th><th>24-Oct-2024</th><th>Reference&#xA0;Range</th><th>Unit</th></tr><tr><td>Creatinine [Mass/volume] in Serum or Plasma</td><td>1.9</td><td>0.6 - 1.1</td><td>H</td><td>mg/dL</td></tr></table></div>"
        },
        "status": "final",
        "subject": {
          "reference": "urn:uuid:192df278-7c1b-41d4-b3d7-297f889e4e95",
          "display": "Molly Jenkins"
        },
        "effectiveDateTime": "2024-10-24T14:42:11Z"
      }
    },
    {
      "fullUrl": "urn:uuid:63ffe87f-ef24-4162-8c3b-b34a73eee32a",
      "resource": {
        "resourceType": "Observation",
        "id": "63ffe87f-ef24-4162-8c3b-b34a73eee32a",
        "meta": {
          "profile": [
            "http://hl7.eu/fhir/laboratory/StructureDefinition/Observation-resultslab-eu-lab"
          ]
        },
        "performer": [
          {
            "display": "The Central European Lab"
          }
        ],
        "category": [
          {
            "coding": [
              {
                "system": "http://terminology.hl7.org/CodeSystem/observation-category",
                "code": "laboratory"
              }
            ]
          }
        ],
        "code": {
          "coding": [
            {
              "code": "17861-6",
              "system": "http://loinc.org",
              "display": "Calcium [Mass/volume] in Serum or Plasma"
            }
          ],
          "text": "Calcium [Mass/volume] in Serum or Plasma"
        },
        "valueQuantity": {
          "system": "http://unitsofmeasure.org",
          "value": 9,
          "unit": "mg/dL",
          "code": "mg/dL"
        },
        "referenceRange": [
          {
            "low": {
              "value": 8.5,
              "code": "mg/dL",
              "system": "http://unitsofmeasure.org"
            }
          },
          {
            "high": {
              "value": 10.4,
              "code": "mg/dL",
              "system": "http://unitsofmeasure.org"
            }
          }
        ],
        "text": {
          "status": "generated",
          "div": "<div xmlns=\"http://www.w3.org/1999/xhtml\"><table class=\"hl7__eu__lab__report\"><tr><th>Test</th><th>24-Oct-2024</th><th>Reference&#xA0;Range</th><th>Unit</th></tr><tr><td>Calcium [Mass/volume] in Serum or Plasma</td><td>9.0</td><td>8.5 - 10.4</td><td></td><td>mg/dL</td></tr></table></div>"
        },
        "status": "final",
        "subject": {
          "reference": "urn:uuid:192df278-7c1b-41d4-b3d7-297f889e4e95",
          "display": "Molly Jenkins"
        },
        "effectiveDateTime": "2024-10-24T14:42:11Z"
      }
    },
    {
      "fullUrl": "urn:uuid:acfe122e-5e61-422f-b812-304078912ca8",
      "resource": {
        "resourceType": "Observation",
        "id": "acfe122e-5e61-422f-b812-304078912ca8",
        "meta": {
          "profile": [
            "http://hl7.eu/fhir/laboratory/StructureDefinition/Observation-resultslab-eu-lab"
          ]
        },
        "performer": [
          {
            "display": "The Central European Lab"
          }
        ],
        "category": [
          {
            "coding": [
              {
                "system": "http://terminology.hl7.org/CodeSystem/observation-category",
                "code": "laboratory"
              }
            ]
          }
        ],
        "code": {
          "coding": [
            {
              "code": "2951-2",
              "system": "http://loinc.org",
              "display": "Sodium [Moles/volume] in Serum or Plasma"
            }
          ],
          "text": "Sodium [Moles/volume] in Serum or Plasma"
        },
        "valueQuantity": {
          "system": "http://unitsofmeasure.org",
          "value": 141.4,
          "unit": "mmol/L",
          "code": "mmol/L"
        },
        "referenceRange": [
          {
            "low": {
              "value": 135,
              "code": "mmol/L",
              "system": "http://unitsofmeasure.org"
            }
          },
          {
            "high": {
              "value": 145,
              "code": "mmol/L",
              "system": "http://unitsofmeasure.org"
            }
          }
        ],
        "text": {
          "status": "generated",
          "div": "<div xmlns=\"http://www.w3.org/1999/xhtml\"><table class=\"hl7__eu__lab__report\"><tr><th>Test</th><th>24-Oct-2024</th><th>Reference&#xA0;Range</th><th>Unit</th></tr><tr><td>Sodium [Moles/volume] in Serum or Plasma</td><td>141.4</td><td>135 - 145</td><td></td><td>mmol/L</td></tr></table></div>"
        },
        "status": "final",
        "subject": {
          "reference": "urn:uuid:192df278-7c1b-41d4-b3d7-297f889e4e95",
          "display": "Molly Jenkins"
        },
        "effectiveDateTime": "2024-10-24T14:42:11Z"
      }
    },
    {
      "fullUrl": "urn:uuid:ea18caeb-5c69-4f9f-8d8e-3d38cd93b60b",
      "resource": {
        "resourceType": "Observation",
        "id": "ea18caeb-5c69-4f9f-8d8e-3d38cd93b60b",
        "meta": {
          "profile": [
            "http://hl7.eu/fhir/laboratory/StructureDefinition/Observation-resultslab-eu-lab"
          ]
        },
        "performer": [
          {
            "display": "The Central European Lab"
          }
        ],
        "category": [
          {
            "coding": [
              {
                "system": "http://terminology.hl7.org/CodeSystem/observation-category",
                "code": "laboratory"
              }
            ]
          }
        ],
        "code": {
          "coding": [
            {
              "code": "2823-3",
              "system": "http://loinc.org",
              "display": "Potassium [Moles/volume] in Serum or Plasma"
            }
          ],
          "text": "Potassium [Moles/volume] in Serum or Plasma"
        },
        "valueQuantity": {
          "system": "http://unitsofmeasure.org",
          "value": 5.1,
          "unit": "mmol/L",
          "code": "mmol/L"
        },
        "referenceRange": [
          {
            "low": {
              "value": 3.5,
              "code": "mmol/L",
              "system": "http://unitsofmeasure.org"
            }
          },
          {
            "high": {
              "value": 5.1,
              "code": "mmol/L",
              "system": "http://unitsofmeasure.org"
            }
          }
        ],
        "text": {
          "status": "generated",
          "div": "<div xmlns=\"http://www.w3.org/1999/xhtml\"><table class=\"hl7__eu__lab__report\"><tr><th>Test</th><th>24-Oct-2024</th><th>Reference&#xA0;Range</th><th>Unit</th></tr><tr><td>Potassium [Moles/volume] in Serum or Plasma</td><td>5.1</td><td>3.5 - 5.1</td><td></td><td>mmol/L</td></tr></table></div>"
        },
        "status": "final",
        "subject": {
          "reference": "urn:uuid:192df278-7c1b-41d4-b3d7-297f889e4e95",
          "display": "Molly Jenkins"
        },
        "effectiveDateTime": "2024-10-24T14:42:11Z"
      }
    },
    {
      "fullUrl": "urn:uuid:9db43f38-dc1f-4d54-96cd-f33280456b5f",
      "resource": {
        "resourceType": "Observation",
        "id": "9db43f38-dc1f-4d54-96cd-f33280456b5f",
        "meta": {
          "profile": [
            "http://hl7.eu/fhir/laboratory/StructureDefinition/Observation-resultslab-eu-lab"
          ]
        },
        "performer": [
          {
            "display": "The Central European Lab"
          }
        ],
        "category": [
          {
            "coding": [
              {
                "system": "http://terminology.hl7.org/CodeSystem/observation-category",
                "code": "laboratory"
              }
            ]
          }
        ],
        "code": {
          "coding": [
            {
              "code": "2075-0",
              "system": "http://loinc.org",
              "display": "Chloride [Moles/volume] in Serum or Plasma"
            }
          ],
          "text": "Chloride [Moles/volume] in Serum or Plasma"
        },
        "valueQuantity": {
          "system": "http://unitsofmeasure.org",
          "value": 103.4,
          "unit": "mmol/L",
          "code": "mmol/L"
        },
        "referenceRange": [
          {
            "low": {
              "value": 98,
              "code": "mmol/L",
              "system": "http://unitsofmeasure.org"
            }
          },
          {
            "high": {
              "value": 110,
              "code": "mmol/L",
              "system": "http://unitsofmeasure.org"
            }
          }
        ],
        "text": {
          "status": "generated",
          "div": "<div xmlns=\"http://www.w3.org/1999/xhtml\"><table class=\"hl7__eu__lab__report\"><tr><th>Test</th><th>24-Oct-2024</th><th>Reference&#xA0;Range</th><th>Unit</th></tr><tr><td>Chloride [Moles/volume] in Serum or Plasma</td><td>103.4</td><td>98 - 110</td><td></td><td>mmol/L</td></tr></table></div>"
        },
        "status": "final",
        "subject": {
          "reference": "urn:uuid:192df278-7c1b-41d4-b3d7-297f889e4e95",
          "display": "Molly Jenkins"
        },
        "effectiveDateTime": "2024-10-24T14:42:11Z"
      }
    },
    {
      "fullUrl": "urn:uuid:3593a395-cc76-417a-ac8b-12ef6f796255",
      "resource": {
        "resourceType": "Observation",
        "id": "3593a395-cc76-417a-ac8b-12ef6f796255",
        "meta": {
          "profile": [
            "http://hl7.eu/fhir/laboratory/StructureDefinition/Observation-resultslab-eu-lab"
          ]
        },
        "performer": [
          {
            "display": "The Central European Lab"
          }
        ],
        "category": [
          {
            "coding": [
              {
                "system": "http://terminology.hl7.org/CodeSystem/observation-category",
                "code": "laboratory"
              }
            ]
          }
        ],
        "code": {
          "coding": [
            {
              "code": "2028-9",
              "system": "http://loinc.org",
              "display": "Carbon dioxide, total [Moles/volume] in Serum or Plasma"
            }
          ],
          "text": "Carbon dioxide, total [Moles/volume] in Serum or Plasma"
        },
        "valueQuantity": {
          "system": "http://unitsofmeasure.org",
          "value": 21.5,
          "unit": "mmol/L",
          "code": "mmol/L"
        },
        "referenceRange": [
          {
            "low": {
              "value": 22,
              "code": "mmol/L",
              "system": "http://unitsofmeasure.org"
            }
          },
          {
            "high": {
              "value": 32,
              "code": "mmol/L",
              "system": "http://unitsofmeasure.org"
            }
          }
        ],
        "interpretation": [
          {
            "coding": [
              {
                "code": "L",
                "system": "http://terminology.hl7.org/CodeSystem/v3-ObservationInterpretation",
                "display": "Low"
              }
            ]
          }
        ],
        "text": {
          "status": "generated",
          "div": "<div xmlns=\"http://www.w3.org/1999/xhtml\"><table class=\"hl7__eu__lab__report\"><tr><th>Test</th><th>24-Oct-2024</th><th>Reference&#xA0;Range</th><th>Unit</th></tr><tr><td>Carbon dioxide, total [Moles/volume] in Serum or Plasma</td><td>21.5</td><td>22 - 32</td><td>L</td><td>mmol/L</td></tr></table></div>"
        },
        "status": "final",
        "subject": {
          "reference": "urn:uuid:192df278-7c1b-41d4-b3d7-297f889e4e95",
          "display": "Molly Jenkins"
        },
        "effectiveDateTime": "2024-10-24T14:42:11Z"
      }
    },
    {
      "fullUrl": "urn:uuid:5f3adafd-5c1b-423b-b26b-ec787f4364cb",
      "resource": {
        "resourceType": "Observation",
        "id": "5f3adafd-5c1b-423b-b26b-ec787f4364cb",
        "meta": {
          "profile": [
            "http://hl7.eu/fhir/laboratory/StructureDefinition/Observation-resultslab-eu-lab"
          ]
        },
        "performer": [
          {
            "display": "The Central European Lab"
          }
        ],
        "category": [
          {
            "coding": [
              {
                "system": "http://terminology.hl7.org/CodeSystem/observation-category",
                "code": "laboratory"
              }
            ]
          }
        ],
        "code": {
          "coding": [
            {
              "code": "5767-9",
              "system": "http://loinc.org",
              "display": "Appearance of Urine"
            }
          ],
          "text": "Appearance of Urine"
        },
        "text": {
          "status": "generated",
          "div": "<div xmlns=\"http://www.w3.org/1999/xhtml\"><table class=\"hl7__eu__lab__report\"><tr><th>Test</th><th>24-Oct-2024</th><th>Reference&#xA0;Range</th><th>Unit</th></tr><tr><td>Appearance of Urine</td></tr></table></div>"
        },
        "status": "final",
        "subject": {
          "reference": "urn:uuid:192df278-7c1b-41d4-b3d7-297f889e4e95",
          "display": "Molly Jenkins"
        },
        "effectiveDateTime": "2024-10-24T14:42:11Z"
      }
    },
    {
      "fullUrl": "urn:uuid:e35ed0d4-413b-464c-aa40-de1230f18718",
      "resource": {
        "resourceType": "Observation",
        "id": "e35ed0d4-413b-464c-aa40-de1230f18718",
        "meta": {
          "profile": [
            "http://hl7.eu/fhir/laboratory/StructureDefinition/Observation-resultslab-eu-lab"
          ]
        },
        "performer": [
          {
            "display": "The Central European Lab"
          }
        ],
        "category": [
          {
            "coding": [
              {
                "system": "http://terminology.hl7.org/CodeSystem/observation-category",
                "code": "laboratory"
              }
            ]
          }
        ],
        "code": {
          "coding": [
            {
              "code": "34533-0",
              "system": "http://loinc.org",
              "display": "Odor of Urine"
            }
          ],
          "text": "Odor of Urine"
        },
        "text": {
          "status": "generated",
          "div": "<div xmlns=\"http://www.w3.org/1999/xhtml\"><table class=\"hl7__eu__lab__report\"><tr><th>Test</th><th>24-Oct-2024</th><th>Reference&#xA0;Range</th><th>Unit</th></tr><tr><td>Odor of Urine</td></tr></table></div>"
        },
        "status": "final",
        "subject": {
          "reference": "urn:uuid:192df278-7c1b-41d4-b3d7-297f889e4e95",
          "display": "Molly Jenkins"
        },
        "effectiveDateTime": "2024-10-24T14:42:11Z"
      }
    },
    {
      "fullUrl": "urn:uuid:0df4f14c-e7c9-4a40-b9dd-ebec9d62f727",
      "resource": {
        "resourceType": "Observation",
        "id": "0df4f14c-e7c9-4a40-b9dd-ebec9d62f727",
        "meta": {
          "profile": [
            "http://hl7.eu/fhir/laboratory/StructureDefinition/Observation-resultslab-eu-lab"
          ]
        },
        "performer": [
          {
            "display": "The Central European Lab"
          }
        ],
        "category": [
          {
            "coding": [
              {
                "system": "http://terminology.hl7.org/CodeSystem/observation-category",
                "code": "laboratory"
              }
            ]
          }
        ],
        "code": {
          "coding": [
            {
              "code": "32167-9",
              "system": "http://loinc.org",
              "display": "Clarity of Urine"
            }
          ],
          "text": "Clarity of Urine"
        },
        "text": {
          "status": "generated",
          "div": "<div xmlns=\"http://www.w3.org/1999/xhtml\"><table class=\"hl7__eu__lab__report\"><tr><th>Test</th><th>24-Oct-2024</th><th>Reference&#xA0;Range</th><th>Unit</th></tr><tr><td>Clarity of Urine</td></tr></table></div>"
        },
        "status": "final",
        "subject": {
          "reference": "urn:uuid:192df278-7c1b-41d4-b3d7-297f889e4e95",
          "display": "Molly Jenkins"
        },
        "effectiveDateTime": "2024-10-24T14:42:11Z"
      }
    },
    {
      "fullUrl": "urn:uuid:dbe79379-edb6-4e9c-92e7-17267ba09904",
      "resource": {
        "resourceType": "Observation",
        "id": "dbe79379-edb6-4e9c-92e7-17267ba09904",
        "meta": {
          "profile": [
            "http://hl7.eu/fhir/laboratory/StructureDefinition/Observation-resultslab-eu-lab"
          ]
        },
        "performer": [
          {
            "display": "The Central European Lab"
          }
        ],
        "category": [
          {
            "coding": [
              {
                "system": "http://terminology.hl7.org/CodeSystem/observation-category",
                "code": "laboratory"
              }
            ]
          }
        ],
        "code": {
          "coding": [
            {
              "code": "5778-6",
              "system": "http://loinc.org",
              "display": "Color of Urine"
            }
          ],
          "text": "Color of Urine"
        },
        "text": {
          "status": "generated",
          "div": "<div xmlns=\"http://www.w3.org/1999/xhtml\"><table class=\"hl7__eu__lab__report\"><tr><th>Test</th><th>24-Oct-2024</th><th>Reference&#xA0;Range</th><th>Unit</th></tr><tr><td>Color of Urine</td></tr></table></div>"
        },
        "status": "final",
        "subject": {
          "reference": "urn:uuid:192df278-7c1b-41d4-b3d7-297f889e4e95",
          "display": "Molly Jenkins"
        },
        "effectiveDateTime": "2024-10-24T14:42:11Z"
      }
    },
    {
      "fullUrl": "urn:uuid:e51bb30b-e5b6-40c4-8829-9814481b816f",
      "resource": {
        "resourceType": "Observation",
        "id": "e51bb30b-e5b6-40c4-8829-9814481b816f",
        "meta": {
          "profile": [
            "http://hl7.eu/fhir/laboratory/StructureDefinition/Observation-resultslab-eu-lab"
          ]
        },
        "performer": [
          {
            "display": "The Central European Lab"
          }
        ],
        "category": [
          {
            "coding": [
              {
                "system": "http://terminology.hl7.org/CodeSystem/observation-category",
                "code": "laboratory"
              }
            ]
          }
        ],
        "code": {
          "coding": [
            {
              "code": "5792-7",
              "system": "http://loinc.org",
              "display": "Glucose [Mass/volume] in Urine by Test strip"
            }
          ],
          "text": "Glucose [Mass/volume] in Urine by Test strip"
        },
        "valueQuantity": {
          "system": "http://unitsofmeasure.org",
          "value": 1.7,
          "unit": "mg/dL",
          "code": "mg/dL"
        },
        "referenceRange": [
          {
            "low": {
              "value": 0,
              "code": "mg/dL",
              "system": "http://unitsofmeasure.org"
            }
          },
          {
            "high": {
              "value": 0,
              "code": "mg/dL",
              "system": "http://unitsofmeasure.org"
            }
          }
        ],
        "interpretation": [
          {
            "coding": [
              {
                "code": "H",
                "system": "http://terminology.hl7.org/CodeSystem/v3-ObservationInterpretation",
                "display": "High"
              }
            ]
          }
        ],
        "text": {
          "status": "generated",
          "div": "<div xmlns=\"http://www.w3.org/1999/xhtml\"><table class=\"hl7__eu__lab__report\"><tr><th>Test</th><th>24-Oct-2024</th><th>Reference&#xA0;Range</th><th>Unit</th></tr><tr><td>Glucose [Mass/volume] in Urine by Test strip</td><td>1.7</td><td>0 - 0</td><td>H</td><td>mg/dL</td></tr></table></div>"
        },
        "status": "final",
        "subject": {
          "reference": "urn:uuid:192df278-7c1b-41d4-b3d7-297f889e4e95",
          "display": "Molly Jenkins"
        },
        "effectiveDateTime": "2024-10-24T14:42:11Z"
      }
    },
    {
      "fullUrl": "urn:uuid:3366dc12-8874-4766-bdd3-24c8bd2f3dca",
      "resource": {
        "resourceType": "Observation",
        "id": "3366dc12-8874-4766-bdd3-24c8bd2f3dca",
        "meta": {
          "profile": [
            "http://hl7.eu/fhir/laboratory/StructureDefinition/Observation-resultslab-eu-lab"
          ]
        },
        "performer": [
          {
            "display": "The Central European Lab"
          }
        ],
        "category": [
          {
            "coding": [
              {
                "system": "http://terminology.hl7.org/CodeSystem/observation-category",
                "code": "laboratory"
              }
            ]
          }
        ],
        "code": {
          "coding": [
            {
              "code": "25428-4",
              "system": "http://loinc.org",
              "display": "Glucose [Presence] in Urine by Test strip"
            }
          ],
          "text": "Glucose [Presence] in Urine by Test strip"
        },
        "text": {
          "status": "generated",
          "div": "<div xmlns=\"http://www.w3.org/1999/xhtml\"><table class=\"hl7__eu__lab__report\"><tr><th>Test</th><th>24-Oct-2024</th><th>Reference&#xA0;Range</th><th>Unit</th></tr><tr><td>Glucose [Presence] in Urine by Test strip</td></tr></table></div>"
        },
        "status": "final",
        "subject": {
          "reference": "urn:uuid:192df278-7c1b-41d4-b3d7-297f889e4e95",
          "display": "Molly Jenkins"
        },
        "effectiveDateTime": "2024-10-24T14:42:11Z"
      }
    },
    {
      "fullUrl": "urn:uuid:a0c213c4-82fd-434b-a8d1-59261046a6c9",
      "resource": {
        "resourceType": "Observation",
        "id": "a0c213c4-82fd-434b-a8d1-59261046a6c9",
        "meta": {
          "profile": [
            "http://hl7.eu/fhir/laboratory/StructureDefinition/Observation-resultslab-eu-lab"
          ]
        },
        "performer": [
          {
            "display": "The Central European Lab"
          }
        ],
        "category": [
          {
            "coding": [
              {
                "system": "http://terminology.hl7.org/CodeSystem/observation-category",
                "code": "laboratory"
              }
            ]
          }
        ],
        "code": {
          "coding": [
            {
              "code": "20505-4",
              "system": "http://loinc.org",
              "display": "Bilirubin.total [Mass/volume] in Urine by Test strip"
            }
          ],
          "text": "Bilirubin.total [Mass/volume] in Urine by Test strip"
        },
        "valueQuantity": {
          "system": "http://unitsofmeasure.org",
          "value": 0.9,
          "unit": "mg/dL",
          "code": "mg/dL"
        },
        "referenceRange": [
          {
            "low": {
              "value": 0,
              "code": "mg/dL",
              "system": "http://unitsofmeasure.org"
            }
          },
          {
            "high": {
              "value": 1.6,
              "code": "mg/dL",
              "system": "http://unitsofmeasure.org"
            }
          }
        ],
        "text": {
          "status": "generated",
          "div": "<div xmlns=\"http://www.w3.org/1999/xhtml\"><table class=\"hl7__eu__lab__report\"><tr><th>Test</th><th>24-Oct-2024</th><th>Reference&#xA0;Range</th><th>Unit</th></tr><tr><td>Bilirubin.total [Mass/volume] in Urine by Test strip</td><td>0.9</td><td>0 - 1.6</td><td></td><td>mg/dL</td></tr></table></div>"
        },
        "status": "final",
        "subject": {
          "reference": "urn:uuid:192df278-7c1b-41d4-b3d7-297f889e4e95",
          "display": "Molly Jenkins"
        },
        "effectiveDateTime": "2024-10-24T14:42:11Z"
      }
    },
    {
      "fullUrl": "urn:uuid:10b4dd3f-b756-424d-9462-032376818585",
      "resource": {
        "resourceType": "Observation",
        "id": "10b4dd3f-b756-424d-9462-032376818585",
        "meta": {
          "profile": [
            "http://hl7.eu/fhir/laboratory/StructureDefinition/Observation-resultslab-eu-lab"
          ]
        },
        "performer": [
          {
            "display": "The Central European Lab"
          }
        ],
        "category": [
          {
            "coding": [
              {
                "system": "http://terminology.hl7.org/CodeSystem/observation-category",
                "code": "laboratory"
              }
            ]
          }
        ],
        "code": {
          "coding": [
            {
              "code": "5770-3",
              "system": "http://loinc.org",
              "display": "Bilirubin.total [Presence] in Urine by Test strip"
            }
          ],
          "text": "Bilirubin.total [Presence] in Urine by Test strip"
        },
        "text": {
          "status": "generated",
          "div": "<div xmlns=\"http://www.w3.org/1999/xhtml\"><table class=\"hl7__eu__lab__report\"><tr><th>Test</th><th>24-Oct-2024</th><th>Reference&#xA0;Range</th><th>Unit</th></tr><tr><td>Bilirubin.total [Presence] in Urine by Test strip</td></tr></table></div>"
        },
        "status": "final",
        "subject": {
          "reference": "urn:uuid:192df278-7c1b-41d4-b3d7-297f889e4e95",
          "display": "Molly Jenkins"
        },
        "effectiveDateTime": "2024-10-24T14:42:11Z"
      }
    },
    {
      "fullUrl": "urn:uuid:8423949c-5d6e-41be-bc0f-3e7f6b691225",
      "resource": {
        "resourceType": "Observation",
        "id": "8423949c-5d6e-41be-bc0f-3e7f6b691225",
        "meta": {
          "profile": [
            "http://hl7.eu/fhir/laboratory/StructureDefinition/Observation-resultslab-eu-lab"
          ]
        },
        "performer": [
          {
            "display": "The Central European Lab"
          }
        ],
        "category": [
          {
            "coding": [
              {
                "system": "http://terminology.hl7.org/CodeSystem/observation-category",
                "code": "laboratory"
              }
            ]
          }
        ],
        "code": {
          "coding": [
            {
              "code": "5797-6",
              "system": "http://loinc.org",
              "display": "Ketones [Mass/volume] in Urine by Test strip"
            }
          ],
          "text": "Ketones [Mass/volume] in Urine by Test strip"
        },
        "valueQuantity": {
          "system": "http://unitsofmeasure.org",
          "value": 7.4,
          "unit": "mg/dL",
          "code": "mg/dL"
        },
        "referenceRange": [
          {
            "low": {
              "value": 0,
              "code": "mg/dL",
              "system": "http://unitsofmeasure.org"
            }
          },
          {
            "high": {
              "value": 0.5,
              "code": "mg/dL",
              "system": "http://unitsofmeasure.org"
            }
          }
        ],
        "interpretation": [
          {
            "coding": [
              {
                "code": "H",
                "system": "http://terminology.hl7.org/CodeSystem/v3-ObservationInterpretation",
                "display": "High"
              }
            ]
          }
        ],
        "text": {
          "status": "generated",
          "div": "<div xmlns=\"http://www.w3.org/1999/xhtml\"><table class=\"hl7__eu__lab__report\"><tr><th>Test</th><th>24-Oct-2024</th><th>Reference&#xA0;Range</th><th>Unit</th></tr><tr><td>Ketones [Mass/volume] in Urine by Test strip</td><td>7.4</td><td>0 - 0.5</td><td>H</td><td>mg/dL</td></tr></table></div>"
        },
        "status": "final",
        "subject": {
          "reference": "urn:uuid:192df278-7c1b-41d4-b3d7-297f889e4e95",
          "display": "Molly Jenkins"
        },
        "effectiveDateTime": "2024-10-24T14:42:11Z"
      }
    },
    {
      "fullUrl": "urn:uuid:0fa76bc3-bd79-41a1-8ce4-a95494c080eb",
      "resource": {
        "resourceType": "Observation",
        "id": "0fa76bc3-bd79-41a1-8ce4-a95494c080eb",
        "meta": {
          "profile": [
            "http://hl7.eu/fhir/laboratory/StructureDefinition/Observation-resultslab-eu-lab"
          ]
        },
        "performer": [
          {
            "display": "The Central European Lab"
          }
        ],
        "category": [
          {
            "coding": [
              {
                "system": "http://terminology.hl7.org/CodeSystem/observation-category",
                "code": "laboratory"
              }
            ]
          }
        ],
        "code": {
          "coding": [
            {
              "code": "2514-8",
              "system": "http://loinc.org",
              "display": "Ketones [Presence] in Urine by Test strip"
            }
          ],
          "text": "Ketones [Presence] in Urine by Test strip"
        },
        "text": {
          "status": "generated",
          "div": "<div xmlns=\"http://www.w3.org/1999/xhtml\"><table class=\"hl7__eu__lab__report\"><tr><th>Test</th><th>24-Oct-2024</th><th>Reference&#xA0;Range</th><th>Unit</th></tr><tr><td>Ketones [Presence] in Urine by Test strip</td></tr></table></div>"
        },
        "status": "final",
        "subject": {
          "reference": "urn:uuid:192df278-7c1b-41d4-b3d7-297f889e4e95",
          "display": "Molly Jenkins"
        },
        "effectiveDateTime": "2024-10-24T14:42:11Z"
      }
    },
    {
      "fullUrl": "urn:uuid:ae50b657-5bd2-4555-a8a5-2845088cf633",
      "resource": {
        "resourceType": "Observation",
        "id": "ae50b657-5bd2-4555-a8a5-2845088cf633",
        "meta": {
          "profile": [
            "http://hl7.eu/fhir/laboratory/StructureDefinition/Observation-resultslab-eu-lab"
          ]
        },
        "performer": [
          {
            "display": "The Central European Lab"
          }
        ],
        "category": [
          {
            "coding": [
              {
                "system": "http://terminology.hl7.org/CodeSystem/observation-category",
                "code": "laboratory"
              }
            ]
          }
        ],
        "code": {
          "coding": [
            {
              "code": "5811-5",
              "system": "http://loinc.org",
              "display": "Specific gravity of Urine by Test strip"
            }
          ],
          "text": "Specific gravity of Urine by Test strip"
        },
        "valueQuantity": {
          "system": "http://unitsofmeasure.org",
          "value": 1,
          "unit": "{nominal}",
          "code": "{nominal}"
        },
        "referenceRange": [
          {
            "low": {
              "value": 1.005,
              "code": "g/mL",
              "system": "http://unitsofmeasure.org"
            }
          },
          {
            "high": {
              "value": 1.03,
              "code": "g/mL",
              "system": "http://unitsofmeasure.org"
            }
          }
        ],
        "interpretation": [
          {
            "coding": [
              {
                "code": "L",
                "system": "http://terminology.hl7.org/CodeSystem/v3-ObservationInterpretation",
                "display": "Low"
              }
            ]
          }
        ],
        "text": {
          "status": "generated",
          "div": "<div xmlns=\"http://www.w3.org/1999/xhtml\"><table class=\"hl7__eu__lab__report\"><tr><th>Test</th><th>24-Oct-2024</th><th>Reference&#xA0;Range</th><th>Unit</th></tr><tr><td>Specific gravity of Urine by Test strip</td><td>1.0</td><td>1.005 - 1.03</td><td>L</td><td>{nominal}</td></tr></table></div>"
        },
        "status": "final",
        "subject": {
          "reference": "urn:uuid:192df278-7c1b-41d4-b3d7-297f889e4e95",
          "display": "Molly Jenkins"
        },
        "effectiveDateTime": "2024-10-24T14:42:11Z"
      }
    },
    {
      "fullUrl": "urn:uuid:8eb5c26f-bfc8-421f-87e6-9a51568d8b76",
      "resource": {
        "resourceType": "Observation",
        "id": "8eb5c26f-bfc8-421f-87e6-9a51568d8b76",
        "meta": {
          "profile": [
            "http://hl7.eu/fhir/laboratory/StructureDefinition/Observation-resultslab-eu-lab"
          ]
        },
        "performer": [
          {
            "display": "The Central European Lab"
          }
        ],
        "category": [
          {
            "coding": [
              {
                "system": "http://terminology.hl7.org/CodeSystem/observation-category",
                "code": "laboratory"
              }
            ]
          }
        ],
        "code": {
          "coding": [
            {
              "code": "5803-2",
              "system": "http://loinc.org",
              "display": "pH of Urine by Test strip"
            }
          ],
          "text": "pH of Urine by Test strip"
        },
        "valueQuantity": {
          "system": "http://unitsofmeasure.org",
          "value": 5.8,
          "unit": "pH",
          "code": "pH"
        },
        "referenceRange": [
          {
            "low": {
              "value": 4.5,
              "code": "pH",
              "system": "http://unitsofmeasure.org"
            }
          },
          {
            "high": {
              "value": 7.5,
              "code": "pH",
              "system": "http://unitsofmeasure.org"
            }
          }
        ],
        "text": {
          "status": "generated",
          "div": "<div xmlns=\"http://www.w3.org/1999/xhtml\"><table class=\"hl7__eu__lab__report\"><tr><th>Test</th><th>24-Oct-2024</th><th>Reference&#xA0;Range</th><th>Unit</th></tr><tr><td>pH of Urine by Test strip</td><td>5.8</td><td>4.5 - 7.5</td><td></td><td>pH</td></tr></table></div>"
        },
        "status": "final",
        "subject": {
          "reference": "urn:uuid:192df278-7c1b-41d4-b3d7-297f889e4e95",
          "display": "Molly Jenkins"
        },
        "effectiveDateTime": "2024-10-24T14:42:11Z"
      }
    },
    {
      "fullUrl": "urn:uuid:1a017319-0932-4d07-85d5-afac8d781e3d",
      "resource": {
        "resourceType": "Observation",
        "id": "1a017319-0932-4d07-85d5-afac8d781e3d",
        "meta": {
          "profile": [
            "http://hl7.eu/fhir/laboratory/StructureDefinition/Observation-resultslab-eu-lab"
          ]
        },
        "performer": [
          {
            "display": "The Central European Lab"
          }
        ],
        "category": [
          {
            "coding": [
              {
                "system": "http://terminology.hl7.org/CodeSystem/observation-category",
                "code": "laboratory"
              }
            ]
          }
        ],
        "code": {
          "coding": [
            {
              "code": "5804-0",
              "system": "http://loinc.org",
              "display": "Protein [Mass/volume] in Urine by Test strip"
            }
          ],
          "text": "Protein [Mass/volume] in Urine by Test strip"
        },
        "valueQuantity": {
          "system": "http://unitsofmeasure.org",
          "value": 259.1,
          "unit": "mg/dL",
          "code": "mg/dL"
        },
        "referenceRange": [
          {
            "low": {
              "value": 0,
              "code": "mg/dL",
              "system": "http://unitsofmeasure.org"
            }
          },
          {
            "high": {
              "value": 15,
              "code": "mg/dL",
              "system": "http://unitsofmeasure.org"
            }
          }
        ],
        "interpretation": [
          {
            "coding": [
              {
                "code": "H",
                "system": "http://terminology.hl7.org/CodeSystem/v3-ObservationInterpretation",
                "display": "High"
              }
            ]
          }
        ],
        "text": {
          "status": "generated",
          "div": "<div xmlns=\"http://www.w3.org/1999/xhtml\"><table class=\"hl7__eu__lab__report\"><tr><th>Test</th><th>24-Oct-2024</th><th>Reference&#xA0;Range</th><th>Unit</th></tr><tr><td>Protein [Mass/volume] in Urine by Test strip</td><td>259.1</td><td>0 - 15</td><td>H</td><td>mg/dL</td></tr></table></div>"
        },
        "status": "final",
        "subject": {
          "reference": "urn:uuid:192df278-7c1b-41d4-b3d7-297f889e4e95",
          "display": "Molly Jenkins"
        },
        "effectiveDateTime": "2024-10-24T14:42:11Z"
      }
    },
    {
      "fullUrl": "urn:uuid:37a144e9-8e68-4087-beb0-1fcfb055255c",
      "resource": {
        "resourceType": "Observation",
        "id": "37a144e9-8e68-4087-beb0-1fcfb055255c",
        "meta": {
          "profile": [
            "http://hl7.eu/fhir/laboratory/StructureDefinition/Observation-resultslab-eu-lab"
          ]
        },
        "performer": [
          {
            "display": "The Central European Lab"
          }
        ],
        "category": [
          {
            "coding": [
              {
                "system": "http://terminology.hl7.org/CodeSystem/observation-category",
                "code": "laboratory"
              }
            ]
          }
        ],
        "code": {
          "coding": [
            {
              "code": "20454-5",
              "system": "http://loinc.org",
              "display": "Protein [Presence] in Urine by Test strip"
            }
          ],
          "text": "Protein [Presence] in Urine by Test strip"
        },
        "text": {
          "status": "generated",
          "div": "<div xmlns=\"http://www.w3.org/1999/xhtml\"><table class=\"hl7__eu__lab__report\"><tr><th>Test</th><th>24-Oct-2024</th><th>Reference&#xA0;Range</th><th>Unit</th></tr><tr><td>Protein [Presence] in Urine by Test strip</td></tr></table></div>"
        },
        "status": "final",
        "subject": {
          "reference": "urn:uuid:192df278-7c1b-41d4-b3d7-297f889e4e95",
          "display": "Molly Jenkins"
        },
        "effectiveDateTime": "2024-10-24T14:42:11Z"
      }
    },
    {
      "fullUrl": "urn:uuid:53d4382b-1491-4e4b-9346-b5edc1127326",
      "resource": {
        "resourceType": "Observation",
        "id": "53d4382b-1491-4e4b-9346-b5edc1127326",
        "meta": {
          "profile": [
            "http://hl7.eu/fhir/laboratory/StructureDefinition/Observation-resultslab-eu-lab"
          ]
        },
        "performer": [
          {
            "display": "The Central European Lab"
          }
        ],
        "category": [
          {
            "coding": [
              {
                "system": "http://terminology.hl7.org/CodeSystem/observation-category",
                "code": "laboratory"
              }
            ]
          }
        ],
        "code": {
          "coding": [
            {
              "code": "5802-4",
              "system": "http://loinc.org",
              "display": "Nitrite [Presence] in Urine by Test strip"
            }
          ],
          "text": "Nitrite [Presence] in Urine by Test strip"
        },
        "text": {
          "status": "generated",
          "div": "<div xmlns=\"http://www.w3.org/1999/xhtml\"><table class=\"hl7__eu__lab__report\"><tr><th>Test</th><th>24-Oct-2024</th><th>Reference&#xA0;Range</th><th>Unit</th></tr><tr><td>Nitrite [Presence] in Urine by Test strip</td></tr></table></div>"
        },
        "status": "final",
        "subject": {
          "reference": "urn:uuid:192df278-7c1b-41d4-b3d7-297f889e4e95",
          "display": "Molly Jenkins"
        },
        "effectiveDateTime": "2024-10-24T14:42:11Z"
      }
    },
    {
      "fullUrl": "urn:uuid:6cc20089-2fcf-44da-9282-5ef82d57de75",
      "resource": {
        "resourceType": "Observation",
        "id": "6cc20089-2fcf-44da-9282-5ef82d57de75",
        "meta": {
          "profile": [
            "http://hl7.eu/fhir/laboratory/StructureDefinition/Observation-resultslab-eu-lab"
          ]
        },
        "performer": [
          {
            "display": "The Central European Lab"
          }
        ],
        "category": [
          {
            "coding": [
              {
                "system": "http://terminology.hl7.org/CodeSystem/observation-category",
                "code": "laboratory"
              }
            ]
          }
        ],
        "code": {
          "coding": [
            {
              "code": "5794-3",
              "system": "http://loinc.org",
              "display": "Hemoglobin [Presence] in Urine by Test strip"
            }
          ],
          "text": "Hemoglobin [Presence] in Urine by Test strip"
        },
        "text": {
          "status": "generated",
          "div": "<div xmlns=\"http://www.w3.org/1999/xhtml\"><table class=\"hl7__eu__lab__report\"><tr><th>Test</th><th>24-Oct-2024</th><th>Reference&#xA0;Range</th><th>Unit</th></tr><tr><td>Hemoglobin [Presence] in Urine by Test strip</td></tr></table></div>"
        },
        "status": "final",
        "subject": {
          "reference": "urn:uuid:192df278-7c1b-41d4-b3d7-297f889e4e95",
          "display": "Molly Jenkins"
        },
        "effectiveDateTime": "2024-10-24T14:42:11Z"
      }
    },
    {
      "fullUrl": "urn:uuid:c2e307ef-2ed2-4f87-8ac0-251bc7b5f369",
      "resource": {
        "resourceType": "Observation",
        "id": "c2e307ef-2ed2-4f87-8ac0-251bc7b5f369",
        "meta": {
          "profile": [
            "http://hl7.eu/fhir/laboratory/StructureDefinition/Observation-resultslab-eu-lab"
          ]
        },
        "performer": [
          {
            "display": "The Central European Lab"
          }
        ],
        "category": [
          {
            "coding": [
              {
                "system": "http://terminology.hl7.org/CodeSystem/observation-category",
                "code": "laboratory"
              }
            ]
          }
        ],
        "code": {
          "coding": [
            {
              "code": "5799-2",
              "system": "http://loinc.org",
              "display": "Leukocyte esterase [Presence] in Urine by Test strip"
            }
          ],
          "text": "Leukocyte esterase [Presence] in Urine by Test strip"
        },
        "text": {
          "status": "generated",
          "div": "<div xmlns=\"http://www.w3.org/1999/xhtml\"><table class=\"hl7__eu__lab__report\"><tr><th>Test</th><th>24-Oct-2024</th><th>Reference&#xA0;Range</th><th>Unit</th></tr><tr><td>Leukocyte esterase [Presence] in Urine by Test strip</td></tr></table></div>"
        },
        "status": "final",
        "subject": {
          "reference": "urn:uuid:192df278-7c1b-41d4-b3d7-297f889e4e95",
          "display": "Molly Jenkins"
        },
        "effectiveDateTime": "2024-10-24T14:42:11Z"
      }
    },
    {
      "fullUrl": "urn:uuid:58ac9dd5-3413-49c5-bc72-fbb1c9e6a12f",
      "resource": {
        "resourceType": "Observation",
        "id": "58ac9dd5-3413-49c5-bc72-fbb1c9e6a12f",
        "meta": {
          "profile": [
            "http://hl7.eu/fhir/laboratory/StructureDefinition/Observation-resultslab-eu-lab"
          ]
        },
        "performer": [
          {
            "display": "The Central European Lab"
          }
        ],
        "category": [
          {
            "coding": [
              {
                "system": "http://terminology.hl7.org/CodeSystem/observation-category",
                "code": "laboratory"
              }
            ]
          }
        ],
        "code": {
          "coding": [
            {
              "code": "4548-4",
              "system": "http://loinc.org",
              "display": "Hemoglobin A1c/Hemoglobin.total in Blood"
            }
          ],
          "text": "Hemoglobin A1c/Hemoglobin.total in Blood"
        },
        "valueQuantity": {
          "system": "http://unitsofmeasure.org",
          "value": 3.2,
          "unit": "%",
          "code": "%"
        },
        "referenceRange": [
          {
            "low": {
              "value": 4,
              "code": "%",
              "system": "http://unitsofmeasure.org"
            }
          },
          {
            "high": {
              "value": 6,
              "code": "%",
              "system": "http://unitsofmeasure.org"
            }
          }
        ],
        "interpretation": [
          {
            "coding": [
              {
                "code": "L",
                "system": "http://terminology.hl7.org/CodeSystem/v3-ObservationInterpretation",
                "display": "Low"
              }
            ]
          }
        ],
        "text": {
          "status": "generated",
          "div": "<div xmlns=\"http://www.w3.org/1999/xhtml\"><table class=\"hl7__eu__lab__report\"><tr><th>Test</th><th>24-Oct-2024</th><th>Reference&#xA0;Range</th><th>Unit</th></tr><tr><td>Hemoglobin A1c/Hemoglobin.total in Blood</td><td>3.2</td><td>4 - 6</td><td>L</td><td>%</td></tr></table></div>"
        },
        "status": "final",
        "subject": {
          "reference": "urn:uuid:192df278-7c1b-41d4-b3d7-297f889e4e95",
          "display": "Molly Jenkins"
        },
        "effectiveDateTime": "2024-10-24T14:42:11Z"
      }
    },
    {
      "fullUrl": "urn:uuid:4aaac597-b84f-44f7-bf9d-a089620b9cbf",
      "resource": {
        "resourceType": "Observation",
        "id": "4aaac597-b84f-44f7-bf9d-a089620b9cbf",
        "meta": {
          "profile": [
            "http://hl7.eu/fhir/laboratory/StructureDefinition/Observation-resultslab-eu-lab"
          ]
        },
        "performer": [
          {
            "display": "The Central European Lab"
          }
        ],
        "category": [
          {
            "coding": [
              {
                "system": "http://terminology.hl7.org/CodeSystem/observation-category",
                "code": "laboratory"
              }
            ]
          }
        ],
        "code": {
          "coding": [
            {
              "code": "2339-0",
              "system": "http://loinc.org",
              "display": "Glucose [Mass/volume] in Blood"
            }
          ],
          "text": "Glucose [Mass/volume] in Blood"
        },
        "valueQuantity": {
          "system": "http://unitsofmeasure.org",
          "value": 68.9,
          "unit": "mg/dL",
          "code": "mg/dL"
        },
        "referenceRange": [
          {
            "low": {
              "value": 70,
              "code": "mg/dL",
              "system": "http://unitsofmeasure.org"
            }
          },
          {
            "high": {
              "value": 100,
              "code": "mg/dL",
              "system": "http://unitsofmeasure.org"
            }
          }
        ],
        "interpretation": [
          {
            "coding": [
              {
                "code": "L",
                "system": "http://terminology.hl7.org/CodeSystem/v3-ObservationInterpretation",
                "display": "Low"
              }
            ]
          }
        ],
        "text": {
          "status": "generated",
          "div": "<div xmlns=\"http://www.w3.org/1999/xhtml\"><table class=\"hl7__eu__lab__report\"><tr><th>Test</th><th>24-Oct-2024</th><th>Reference&#xA0;Range</th><th>Unit</th></tr><tr><td>Glucose [Mass/volume] in Blood</td><td>68.9</td><td>70 - 100</td><td>L</td><td>mg/dL</td></tr></table></div>"
        },
        "status": "final",
        "subject": {
          "reference": "urn:uuid:192df278-7c1b-41d4-b3d7-297f889e4e95",
          "display": "Molly Jenkins"
        },
        "effectiveDateTime": "2024-10-24T14:42:11Z"
      }
    },
    {
      "fullUrl": "urn:uuid:6d284126-28f4-4e38-bfb0-014d834b5db3",
      "resource": {
        "resourceType": "Observation",
        "id": "6d284126-28f4-4e38-bfb0-014d834b5db3",
        "meta": {
          "profile": [
            "http://hl7.eu/fhir/laboratory/StructureDefinition/Observation-resultslab-eu-lab"
          ]
        },
        "performer": [
          {
            "display": "The Central European Lab"
          }
        ],
        "category": [
          {
            "coding": [
              {
                "system": "http://terminology.hl7.org/CodeSystem/observation-category",
                "code": "laboratory"
              }
            ]
          }
        ],
        "code": {
          "coding": [
            {
              "code": "6299-2",
              "system": "http://loinc.org",
              "display": "Urea nitrogen [Mass/volume] in Blood"
            }
          ],
          "text": "Urea nitrogen [Mass/volume] in Blood"
        },
        "valueQuantity": {
          "system": "http://unitsofmeasure.org",
          "value": 10.9,
          "unit": "mg/dL",
          "code": "mg/dL"
        },
        "referenceRange": [
          {
            "low": {
              "value": 7,
              "code": "mg/dL",
              "system": "http://unitsofmeasure.org"
            }
          },
          {
            "high": {
              "value": 20,
              "code": "mg/dL",
              "system": "http://unitsofmeasure.org"
            }
          }
        ],
        "text": {
          "status": "generated",
          "div": "<div xmlns=\"http://www.w3.org/1999/xhtml\"><table class=\"hl7__eu__lab__report\"><tr><th>Test</th><th>24-Oct-2024</th><th>Reference&#xA0;Range</th><th>Unit</th></tr><tr><td>Urea nitrogen [Mass/volume] in Blood</td><td>10.9</td><td>7 - 20</td><td></td><td>mg/dL</td></tr></table></div>"
        },
        "status": "final",
        "subject": {
          "reference": "urn:uuid:192df278-7c1b-41d4-b3d7-297f889e4e95",
          "display": "Molly Jenkins"
        },
        "effectiveDateTime": "2024-10-24T14:42:11Z"
      }
    },
    {
      "fullUrl": "urn:uuid:c76a1350-c955-420a-b603-90e30dc60aa3",
      "resource": {
        "resourceType": "Observation",
        "id": "c76a1350-c955-420a-b603-90e30dc60aa3",
        "meta": {
          "profile": [
            "http://hl7.eu/fhir/laboratory/StructureDefinition/Observation-resultslab-eu-lab"
          ]
        },
        "performer": [
          {
            "display": "The Central European Lab"
          }
        ],
        "category": [
          {
            "coding": [
              {
                "system": "http://terminology.hl7.org/CodeSystem/observation-category",
                "code": "laboratory"
              }
            ]
          }
        ],
        "code": {
          "coding": [
            {
              "code": "38483-4",
              "system": "http://loinc.org",
              "display": "Creatinine [Mass/volume] in Blood"
            }
          ],
          "text": "Creatinine [Mass/volume] in Blood"
        },
        "valueQuantity": {
          "system": "http://unitsofmeasure.org",
          "value": 1.9,
          "unit": "mg/dL",
          "code": "mg/dL"
        },
        "referenceRange": [
          {
            "low": {
              "value": 0.6,
              "code": "mg/dL",
              "system": "http://unitsofmeasure.org"
            }
          },
          {
            "high": {
              "value": 1.3,
              "code": "mg/dL",
              "system": "http://unitsofmeasure.org"
            }
          }
        ],
        "interpretation": [
          {
            "coding": [
              {
                "code": "H",
                "system": "http://terminology.hl7.org/CodeSystem/v3-ObservationInterpretation",
                "display": "High"
              }
            ]
          }
        ],
        "text": {
          "status": "generated",
          "div": "<div xmlns=\"http://www.w3.org/1999/xhtml\"><table class=\"hl7__eu__lab__report\"><tr><th>Test</th><th>24-Oct-2024</th><th>Reference&#xA0;Range</th><th>Unit</th></tr><tr><td>Creatinine [Mass/volume] in Blood</td><td>1.9</td><td>0.6 - 1.3</td><td>H</td><td>mg/dL</td></tr></table></div>"
        },
        "status": "final",
        "subject": {
          "reference": "urn:uuid:192df278-7c1b-41d4-b3d7-297f889e4e95",
          "display": "Molly Jenkins"
        },
        "effectiveDateTime": "2024-10-24T14:42:11Z"
      }
    },
    {
      "fullUrl": "urn:uuid:5a339c55-2118-4093-8139-6f12647d39c6",
      "resource": {
        "resourceType": "Observation",
        "id": "5a339c55-2118-4093-8139-6f12647d39c6",
        "meta": {
          "profile": [
            "http://hl7.eu/fhir/laboratory/StructureDefinition/Observation-resultslab-eu-lab"
          ]
        },
        "performer": [
          {
            "display": "The Central European Lab"
          }
        ],
        "category": [
          {
            "coding": [
              {
                "system": "http://terminology.hl7.org/CodeSystem/observation-category",
                "code": "laboratory"
              }
            ]
          }
        ],
        "code": {
          "coding": [
            {
              "code": "49765-1",
              "system": "http://loinc.org",
              "display": "Calcium [Mass/volume] in Blood"
            }
          ],
          "text": "Calcium [Mass/volume] in Blood"
        },
        "valueQuantity": {
          "system": "http://unitsofmeasure.org",
          "value": 9,
          "unit": "mg/dL",
          "code": "mg/dL"
        },
        "referenceRange": [
          {
            "low": {
              "value": 8.6,
              "code": "mg/dL",
              "system": "http://unitsofmeasure.org"
            }
          },
          {
            "high": {
              "value": 10.4,
              "code": "mg/dL",
              "system": "http://unitsofmeasure.org"
            }
          }
        ],
        "text": {
          "status": "generated",
          "div": "<div xmlns=\"http://www.w3.org/1999/xhtml\"><table class=\"hl7__eu__lab__report\"><tr><th>Test</th><th>24-Oct-2024</th><th>Reference&#xA0;Range</th><th>Unit</th></tr><tr><td>Calcium [Mass/volume] in Blood</td><td>9.0</td><td>8.6 - 10.4</td><td></td><td>mg/dL</td></tr></table></div>"
        },
        "status": "final",
        "subject": {
          "reference": "urn:uuid:192df278-7c1b-41d4-b3d7-297f889e4e95",
          "display": "Molly Jenkins"
        },
        "effectiveDateTime": "2024-10-24T14:42:11Z"
      }
    },
    {
      "fullUrl": "urn:uuid:4a9e3864-a9f2-4915-9035-2d0fd1cc02aa",
      "resource": {
        "resourceType": "Observation",
        "id": "4a9e3864-a9f2-4915-9035-2d0fd1cc02aa",
        "meta": {
          "profile": [
            "http://hl7.eu/fhir/laboratory/StructureDefinition/Observation-resultslab-eu-lab"
          ]
        },
        "performer": [
          {
            "display": "The Central European Lab"
          }
        ],
        "category": [
          {
            "coding": [
              {
                "system": "http://terminology.hl7.org/CodeSystem/observation-category",
                "code": "laboratory"
              }
            ]
          }
        ],
        "code": {
          "coding": [
            {
              "code": "2947-0",
              "system": "http://loinc.org",
              "display": "Sodium [Moles/volume] in Blood"
            }
          ],
          "text": "Sodium [Moles/volume] in Blood"
        },
        "valueQuantity": {
          "system": "http://unitsofmeasure.org",
          "value": 141.4,
          "unit": "mmol/L",
          "code": "mmol/L"
        },
        "referenceRange": [
          {
            "low": {
              "value": 135,
              "code": "mmol/L",
              "system": "http://unitsofmeasure.org"
            }
          },
          {
            "high": {
              "value": 145,
              "code": "mmol/L",
              "system": "http://unitsofmeasure.org"
            }
          }
        ],
        "text": {
          "status": "generated",
          "div": "<div xmlns=\"http://www.w3.org/1999/xhtml\"><table class=\"hl7__eu__lab__report\"><tr><th>Test</th><th>24-Oct-2024</th><th>Reference&#xA0;Range</th><th>Unit</th></tr><tr><td>Sodium [Moles/volume] in Blood</td><td>141.4</td><td>135 - 145</td><td></td><td>mmol/L</td></tr></table></div>"
        },
        "status": "final",
        "subject": {
          "reference": "urn:uuid:192df278-7c1b-41d4-b3d7-297f889e4e95",
          "display": "Molly Jenkins"
        },
        "effectiveDateTime": "2024-10-24T14:42:11Z"
      }
    },
    {
      "fullUrl": "urn:uuid:dcac6cc9-961f-497f-969e-d822a9aae2d6",
      "resource": {
        "resourceType": "Observation",
        "id": "dcac6cc9-961f-497f-969e-d822a9aae2d6",
        "meta": {
          "profile": [
            "http://hl7.eu/fhir/laboratory/StructureDefinition/Observation-resultslab-eu-lab"
          ]
        },
        "performer": [
          {
            "display": "The Central European Lab"
          }
        ],
        "category": [
          {
            "coding": [
              {
                "system": "http://terminology.hl7.org/CodeSystem/observation-category",
                "code": "laboratory"
              }
            ]
          }
        ],
        "code": {
          "coding": [
            {
              "code": "6298-4",
              "system": "http://loinc.org",
              "display": "Potassium [Moles/volume] in Blood"
            }
          ],
          "text": "Potassium [Moles/volume] in Blood"
        },
        "valueQuantity": {
          "system": "http://unitsofmeasure.org",
          "value": 5.1,
          "unit": "mmol/L",
          "code": "mmol/L"
        },
        "referenceRange": [
          {
            "low": {
              "value": 3.5,
              "code": "mmol/L",
              "system": "http://unitsofmeasure.org"
            }
          },
          {
            "high": {
              "value": 5.1,
              "code": "mmol/L",
              "system": "http://unitsofmeasure.org"
            }
          }
        ],
        "text": {
          "status": "generated",
          "div": "<div xmlns=\"http://www.w3.org/1999/xhtml\"><table class=\"hl7__eu__lab__report\"><tr><th>Test</th><th>24-Oct-2024</th><th>Reference&#xA0;Range</th><th>Unit</th></tr><tr><td>Potassium [Moles/volume] in Blood</td><td>5.1</td><td>3.5 - 5.1</td><td></td><td>mmol/L</td></tr></table></div>"
        },
        "status": "final",
        "subject": {
          "reference": "urn:uuid:192df278-7c1b-41d4-b3d7-297f889e4e95",
          "display": "Molly Jenkins"
        },
        "effectiveDateTime": "2024-10-24T14:42:11Z"
      }
    },
    {
      "fullUrl": "urn:uuid:5475cacf-8d62-4c57-be4e-b94d791b5e63",
      "resource": {
        "resourceType": "Observation",
        "id": "5475cacf-8d62-4c57-be4e-b94d791b5e63",
        "meta": {
          "profile": [
            "http://hl7.eu/fhir/laboratory/StructureDefinition/Observation-resultslab-eu-lab"
          ]
        },
        "performer": [
          {
            "display": "The Central European Lab"
          }
        ],
        "category": [
          {
            "coding": [
              {
                "system": "http://terminology.hl7.org/CodeSystem/observation-category",
                "code": "laboratory"
              }
            ]
          }
        ],
        "code": {
          "coding": [
            {
              "code": "2069-3",
              "system": "http://loinc.org",
              "display": "Chloride [Moles/volume] in Blood"
            }
          ],
          "text": "Chloride [Moles/volume] in Blood"
        },
        "valueQuantity": {
          "system": "http://unitsofmeasure.org",
          "value": 103.4,
          "unit": "mmol/L",
          "code": "mmol/L"
        },
        "referenceRange": [
          {
            "low": {
              "value": 98,
              "code": "mmol/L",
              "system": "http://unitsofmeasure.org"
            }
          },
          {
            "high": {
              "value": 110,
              "code": "mmol/L",
              "system": "http://unitsofmeasure.org"
            }
          }
        ],
        "text": {
          "status": "generated",
          "div": "<div xmlns=\"http://www.w3.org/1999/xhtml\"><table class=\"hl7__eu__lab__report\"><tr><th>Test</th><th>24-Oct-2024</th><th>Reference&#xA0;Range</th><th>Unit</th></tr><tr><td>Chloride [Moles/volume] in Blood</td><td>103.4</td><td>98 - 110</td><td></td><td>mmol/L</td></tr></table></div>"
        },
        "status": "final",
        "subject": {
          "reference": "urn:uuid:192df278-7c1b-41d4-b3d7-297f889e4e95",
          "display": "Molly Jenkins"
        },
        "effectiveDateTime": "2024-10-24T14:42:11Z"
      }
    },
    {
      "fullUrl": "urn:uuid:532eeadc-84f1-4f76-b820-84ae972dc828",
      "resource": {
        "resourceType": "Observation",
        "id": "532eeadc-84f1-4f76-b820-84ae972dc828",
        "meta": {
          "profile": [
            "http://hl7.eu/fhir/laboratory/StructureDefinition/Observation-resultslab-eu-lab"
          ]
        },
        "performer": [
          {
            "display": "The Central European Lab"
          }
        ],
        "category": [
          {
            "coding": [
              {
                "system": "http://terminology.hl7.org/CodeSystem/observation-category",
                "code": "laboratory"
              }
            ]
          }
        ],
        "code": {
          "coding": [
            {
              "code": "20565-8",
              "system": "http://loinc.org",
              "display": "Carbon dioxide, total [Moles/volume] in Blood"
            }
          ],
          "text": "Carbon dioxide, total [Moles/volume] in Blood"
        },
        "valueQuantity": {
          "system": "http://unitsofmeasure.org",
          "value": 21.5,
          "unit": "mmol/L",
          "code": "mmol/L"
        },
        "referenceRange": [
          {
            "low": {
              "value": 22,
              "code": "mmol/L",
              "system": "http://unitsofmeasure.org"
            }
          },
          {
            "high": {
              "value": 29,
              "code": "mmol/L",
              "system": "http://unitsofmeasure.org"
            }
          }
        ],
        "interpretation": [
          {
            "coding": [
              {
                "code": "L",
                "system": "http://terminology.hl7.org/CodeSystem/v3-ObservationInterpretation",
                "display": "Low"
              }
            ]
          }
        ],
        "text": {
          "status": "generated",
          "div": "<div xmlns=\"http://www.w3.org/1999/xhtml\"><table class=\"hl7__eu__lab__report\"><tr><th>Test</th><th>24-Oct-2024</th><th>Reference&#xA0;Range</th><th>Unit</th></tr><tr><td>Carbon dioxide, total [Moles/volume] in Blood</td><td>21.5</td><td>22 - 29</td><td>L</td><td>mmol/L</td></tr></table></div>"
        },
        "status": "final",
        "subject": {
          "reference": "urn:uuid:192df278-7c1b-41d4-b3d7-297f889e4e95",
          "display": "Molly Jenkins"
        },
        "effectiveDateTime": "2024-10-24T14:42:11Z"
      }
    },
    {
      "fullUrl": "urn:uuid:ca64800e-f5c6-4380-aee4-419d68870862",
      "resource": {
        "resourceType": "DeviceUseStatement",
        "id": "ca64800e-f5c6-4380-aee4-419d68870862",
        "meta": {
          "profile": [
            "http://hl7.eu/fhir/eps/StructureDefinition/deviceUseStatement-eu-eps"
          ]
        },
        "timingPeriod": {
          "start": "2002-04-04"
        },
        "text": {
          "status": "generated",
          "div": "<div xmlns=\"http://www.w3.org/1999/xhtml\"><table class=\"hl7__ips\"><tr><td>Blood glucose meter (physical object)</td><td><span class=\"nb\">04-Apr-2002</span></td></tr></table></div>"
        },
        "status": "active",
        "device": {
          "reference": "urn:uuid:0e1015d5-9796-49ba-8566-0f45d55def49",
          "display": "Blood glucose meter (physical object)"
        },
        "subject": {
          "reference": "urn:uuid:192df278-7c1b-41d4-b3d7-297f889e4e95",
          "display": "Molly Jenkins"
        }
      }
    },
    {
      "fullUrl": "urn:uuid:0e1015d5-9796-49ba-8566-0f45d55def49",
      "resource": {
        "resourceType": "Device",
        "id": "0e1015d5-9796-49ba-8566-0f45d55def49",
        "meta": {
          "profile": [
            "http://hl7.eu/fhir/eps/StructureDefinition/device-eu-eps"
          ]
        },
        "udiCarrier": [
          {
            "id": "(01)23484707631360(11)020314(17)270329(10)5142615459(21)887672002"
          }
        ],
        "status": "active",
        "patient": {
          "reference": "urn:uuid:192df278-7c1b-41d4-b3d7-297f889e4e95",
          "display": "Molly Jenkins"
        },
        "type": {
          "coding": [
            {
              "code": "337414009",
              "system": "http://snomed.info/sct",
              "display": "Blood glucose meter (physical object)"
            }
          ]
        }
      }
    },
    {
      "fullUrl": "urn:uuid:57c43b42-688d-485d-a37b-7459c2116ec1",
      "resource": {
        "resourceType": "Device",
        "id": "57c43b42-688d-485d-a37b-7459c2116ec1",
        "deviceName": [
          {
            "name": "SYNDERAI Synthetic Generator",
            "type": "manufacturer-name"
          }
        ],
        "version": [
          {
            "value": "5.0"
          }
        ],
        "text": {
          "status": "generated",
          "div": "<div xmlns=\"http://www.w3.org/1999/xhtml\">SYNDERAI Synthetic Generator v5.0</div>"
        },
        "status": "active\"",
        "distinctIdentifier": "synderai-generator-50",
        "manufacturer": "SYNDERAI Project"
      }
    },
    {
      "fullUrl": "urn:uuid:acbaf3d7-31da-4332-8a34-8d4f0b51394b",
      "resource": {
        "resourceType": "Provenance",
        "id": "acbaf3d7-31da-4332-8a34-8d4f0b51394b",
        "target": [
          {
            "reference": "Patient/192df278-7c1b-41d4-b3d7-297f889e4e95"
          },
          {
            "reference": "Bundle/6bc37bd5-bc15-4788-9013-f78eb006ada6"
          },
          {
            "reference": "Composition/277b34d8-afd8-4a9a-abaa-acdc1a5128fe"
          },
          {
            "reference": "PractitionerRole/2ec84c3a-be99-4ec6-bd11-ea0e040993ed"
          },
          {
            "reference": "Organization/449cdf74-d84b-44d0-b8f7-7ca16367e86a"
          },
          {
            "reference": "Practitioner/905c47c4-2965-436d-872f-eae61f7254e0"
          }
        ],
        "activity": {
          "text": "Synthetic Example Data Generation"
        },
        "policy": [
          "https://synderai.net/synderai-synthetic-data-policy"
        ],
        "agent": [
          {
            "type": {
              "text": "author"
            },
            "who": {
              "reference": "Device/57c43b42-688d-485d-a37b-7459c2116ec1"
            }
          }
        ],
        "reason": [
          {
            "text": "Interoperability Testing and Training (non-clinical use)"
          }
        ],
        "text": {
          "status": "generated",
          "div": "<div xmlns=\"http://www.w3.org/1999/xhtml\">Provenance for SYNDERAI Synthetic Example Data Resource</div>"
        },
        "recorded": "2024-10-24T14:42:11Z"
      }
    }
  ],
  "type": "document",
  "timestamp": "2024-10-24T14:42:11Z"
}
