{
  "resourceType": "Bundle",
  "id": "b8ef03fa-c7f3-490d-bc70-d23ae46fac00",
  "meta": {
    "profile": [
      "http://hl7.eu/fhir/eps/StructureDefinition/bundle-eu-eps"
    ]
  },
  "identifier": {
    "assigner": {
      "display": "HL7 Europe"
    },
    "system": "urn:oid:2.16.840.1.113883.2.51.999",
    "value": "facf67e6-f529-47e8-8ee9-03290c6c7ebc"
  },
  "entry": [
    {
      "fullUrl": "urn:uuid:f65eb54f-f946-441c-8eff-3a1c95037739",
      "resource": {
        "resourceType": "Composition",
        "id": "f65eb54f-f946-441c-8eff-3a1c95037739",
        "meta": {
          "security": [
            {
              "system": "http://terminology.hl7.org/CodeSystem/v3-ActReason",
              "code": "HTEST"
            },
            {
              "system": "http://terminology.hl7.org/CodeSystem/v3-ActReason",
              "code": "TRAIN"
            }
          ],
          "tag": [
            {
              "system": "https://synderai.net/fhir/CodeSystem/tags",
              "code": "synthetic",
              "display": "SYNDERAI Synthetic data"
            }
          ],
          "profile": [
            "http://hl7.eu/fhir/eps/StructureDefinition/composition-eu-eps"
          ]
        },
        "identifier": {
          "assigner": {
            "display": "HL7 Europe"
          },
          "system": "urn:oid:2.16.840.1.113883.2.51.999",
          "value": "5123f51a-c2ea-4ed0-88b8-4c2531e16e89"
        },
        "type": {
          "coding": [
            {
              "system": "http://loinc.org",
              "code": "60591-5",
              "display": "Patient summary Document"
            }
          ],
          "text": "Patient summary Document"
        },
        "author": [
          {
            "reference": "urn:uuid:5f230e88-ee41-431f-802f-d44ca35ec1b7"
          }
        ],
        "section": [
          {
            "text": {
              "status": "generated",
              "div": "<div xmlns=\"http://www.w3.org/1999/xhtml\"><table class=\"hl7__ips\"><tr><th>Condition</th><th>Onset Date</th><th>Status</th></tr><tr><td>Anemia</td><td><span class=\"nb\">23-Mar-1991</span></td><td>active</td></tr><tr><td>Prediabetes</td><td><span class=\"nb\">19-Mar-1988</span></td><td>active</td></tr></table></div>"
            },
            "entry": [
              {
                "reference": "urn:uuid:485a9c33-75b1-4a21-b6ca-b43d19a79580"
              },
              {
                "reference": "urn:uuid:694a11db-280d-4e55-a765-4acfb7b9d36a"
              }
            ],
            "code": {
              "coding": [
                {
                  "system": "http://loinc.org",
                  "code": "11450-4",
                  "display": "Problem list - Reported"
                }
              ]
            },
            "title": "Problem list"
          },
          {
            "text": {
              "status": "generated"
            },
            "entry": [
              {
                "reference": "urn:uuid:5ece9532-bac3-4664-a908-8930643e5a97"
              },
              {
                "reference": "urn:uuid:5ece9532-bac3-4664-a908-8930643e5a97"
              }
            ],
            "code": {
              "coding": [
                {
                  "system": "http://loinc.org",
                  "code": "10160-0",
                  "display": "History of Medication use Narrative"
                }
              ]
            },
            "title": "Medication list"
          },
          {
            "text": {
              "status": "generated",
              "div": "<div xmlns=\"http://www.w3.org/1999/xhtml\"><table class=\"hl7__ips\"><tr><th>Vaccine</th><th>Date</th></tr><tr><td>Influenza virus antigen only vaccine product</td><td><span class=\"nb\">07-Mar-2025</span></td></tr><tr><td>Clostridium tetani toxoid antigen adsorbed only vaccine product</td><td><span class=\"nb\">20-Jan-2017</span></td></tr><tr><td>Live attenuated Human alphaherpesvirus 3 only vaccine product</td><td><span class=\"nb\">20-Jan-2017</span></td></tr></table></div>"
            },
            "entry": [
              {
                "reference": "urn:uuid:cf6cb2ea-d856-4b76-8c6b-a38613b3ac2d"
              },
              {
                "reference": "urn:uuid:ec572352-853f-4ec4-bebf-283656ff60b3"
              },
              {
                "reference": "urn:uuid:cc80cc37-a6e0-424f-acb4-b86d89ccbb00"
              }
            ],
            "code": {
              "coding": [
                {
                  "system": "http://loinc.org",
                  "code": "11369-6",
                  "display": "History of Immunization note"
                }
              ]
            },
            "title": "Immunizations list"
          },
          {
            "text": {
              "status": "generated",
              "div": "<div xmlns=\"http://www.w3.org/1999/xhtml\"><table class=\"hl7__ips\"><tr><th>Allergy/Intolerance</th><th>Onset Date</th><th>Status</th><th>Type</th><th>Reaction</th></tr><tr><td>Live attenuated Varicella-zoster vaccine</td><td>?</td><td>active</td><td>?</td><td></td></tr></table></div>"
            },
            "entry": [
              {
                "reference": "urn:uuid:b1b983fa-a3c7-45fa-a498-af90e90646f7"
              }
            ],
            "code": {
              "coding": [
                {
                  "system": "http://loinc.org",
                  "code": "48765-2",
                  "display": "Allergies and adverse reactions Document"
                }
              ]
            },
            "title": "Allergies and Intolerances"
          },
          {
            "text": {
              "status": "generated",
              "div": "<div xmlns=\"http://www.w3.org/1999/xhtml\"><table class=\"hl7__ips\"><tr><th>Active Planned Care / Goals</th><th>Start Date</th><th>Reason</th></tr><tr><td>Diabetes self management plan</td><td><span class=\"nb\">19-Mar-1988</span></td><td>Prediabetes</td></tr><tr><td><ul><li>Patient will implement a diabetes self-management plan to reduce risk of progression to diabetes.</li></ul></td><td></td><td></td></tr></table></div>"
            },
            "entry": [
              {
                "reference": "urn:uuid:8f06693b-4324-4edd-8f05-7d40e34526e5"
              }
            ],
            "code": {
              "coding": [
                {
                  "system": "http://loinc.org",
                  "code": "18776-5",
                  "display": "Plan of care note"
                }
              ]
            },
            "title": "Care Plan"
          },
          {
            "text": {
              "status": "generated",
              "div": "<div xmlns=\"http://www.w3.org/1999/xhtml\"><table class=\"hl7__ips\"><tr><th>Vital Signs</th><th>2025-03-07</th><th>2024-03-01</th></tr><tr><td>Body Height</td><td>170 cm</td><td>170 cm</td></tr><tr><td>Pain severity - 0-10 verbal numeric rating [Score] - Reported</td><td>3 {score}</td><td>3 {score}</td></tr><tr><td>Body Weight</td><td>81.1 kg</td><td>81.1 kg</td></tr><tr><td>Body mass index (BMI) [Ratio]</td><td>28.1 kg/m2</td><td>28.1 kg/m2</td></tr><tr><td>Diastolic Blood Pressure</td><td>78 mm[Hg]</td><td>73 mm[Hg]</td></tr><tr><td>Systolic Blood Pressure</td><td>105 mm[Hg]</td><td>98 mm[Hg]</td></tr><tr><td>Heart rate</td><td>71 /min</td><td>87 /min</td></tr><tr><td>Respiratory rate</td><td>15 /min</td><td>13 /min</td></tr></table></div>"
            },
            "entry": [
              {
                "reference": "urn:uuid:2e8ee363-8a15-4276-8d19-4e7e6c5594eb"
              },
              {
                "reference": "urn:uuid:ee8cf432-e733-4b19-b56f-c12e48e63f3d"
              },
              {
                "reference": "urn:uuid:78fbfdf3-6662-4fdc-b80b-7c58c9e928cc"
              },
              {
                "reference": "urn:uuid:5468b9d5-3d43-4639-a392-4eaac8dcd211"
              },
              {
                "reference": "urn:uuid:665c4b1d-bb7d-4997-9bd1-40089d6593f5"
              },
              {
                "reference": "urn:uuid:1a73e46a-b507-4c7a-a8a2-2bbaccd404dd"
              },
              {
                "reference": "urn:uuid:1a3717c0-db8e-4f3c-8d58-91dc4d4e2552"
              },
              {
                "reference": "urn:uuid:d4611c76-8452-4493-8236-6f59af461a8c"
              },
              {
                "reference": "urn:uuid:41435ca7-6f0e-4398-848d-a3695397449c"
              },
              {
                "reference": "urn:uuid:e71f9d99-715d-45c4-9d74-eb51538b0b23"
              },
              {
                "reference": "urn:uuid:6098c97d-e4f5-4b05-9535-f01f63a9ce05"
              },
              {
                "reference": "urn:uuid:38b4ee15-9626-4662-955d-fb8cdd3f12d6"
              },
              {
                "reference": "urn:uuid:55184e81-29c0-4d18-96fa-11752e38734a"
              },
              {
                "reference": "urn:uuid:b946186b-509d-422f-8f6a-27aff788fce0"
              },
              {
                "reference": "urn:uuid:a9cda595-1d79-42ae-a6d1-c355b6d932f9"
              },
              {
                "reference": "urn:uuid:a0ac22f3-45a2-4b4b-907e-9aa0fd998589"
              }
            ],
            "code": {
              "coding": [
                {
                  "system": "http://loinc.org",
                  "code": "8716-3",
                  "display": "Vital signs note"
                }
              ]
            },
            "title": "Vital Signs"
          },
          {
            "text": {
              "status": "generated",
              "div": "<div xmlns=\"http://www.w3.org/1999/xhtml\"><table class=\"hl7__ips\"><table class=\"hl7__ips\"><thead><tr><th>Recent Lab Observations</th><th>08-MAR-2025</th><th>Reference&#xA0;Range</th><th>Unit</th></tr></thead><tbody><tr><td>Hemoglobin A1c/Hemoglobin.total in Blood</td><td><strong>6.3 H</strong></td><td>4 - 6</td><td>%</td></tr><tr><td>Glucose [Mass/volume] in Blood</td><td>88.9</td><td>70 - 140</td><td>mg/dL</td></tr><tr><td>Urea nitrogen [Mass/volume] in Blood</td><td>13.4</td><td>7 - 45</td><td>mg/dL</td></tr><tr><td>Creatinine [Mass/volume] in Blood</td><td>0.8</td><td>0.6 - 1.1</td><td>mg/dL</td></tr><tr><td>Calcium [Mass/volume] in Blood</td><td>10.0</td><td>8.5 - 10.5</td><td>mg/dL</td></tr><tr><td>Sodium [Moles/volume] in Blood</td><td>141.0</td><td>135 - 145</td><td>mmol/L</td></tr><tr><td>Potassium [Moles/volume] in Blood</td><td>3.8</td><td>3.5 - 5.1</td><td>mmol/L</td></tr><tr><td>Chloride [Moles/volume] in Blood</td><td>102.5</td><td>98 - 107</td><td>mmol/L</td></tr><tr><td>Carbon dioxide, total [Moles/volume] in Blood</td><td>22.8</td><td>22 - 32</td><td>mmol/L</td></tr><tr><td>Cholesterol [Mass/volume] in Serum or Plasma</td><td>184.5</td><td>125 - 200</td><td>mg/dL</td></tr><tr><td>Triglyceride [Mass/volume] in Serum or Plasma</td><td>135.4</td><td>0 - 150</td><td>mg/dL</td></tr><tr><td>Cholesterol in LDL [Mass/volume] in Serum or Plasma by Direct assay</td><td>98.3</td><td>0 - 130</td><td>mg/dL</td></tr><tr><td>Cholesterol in HDL [Mass/volume] in Serum or Plasma</td><td>59.1</td><td>40 - 60</td><td>mg/dL</td></tr></tbody></table></table></div>"
            },
            "entry": [
              {
                "reference": "urn:uuid:7feef3b3-c580-4e78-9f65-1aed7e2d7321"
              },
              {
                "reference": "urn:uuid:24e9ef51-5b23-4f7c-b7c2-0d72d600892b"
              },
              {
                "reference": "urn:uuid:2c7ee109-8689-41c3-a18d-ebb3ea516668"
              },
              {
                "reference": "urn:uuid:57de00d6-a7f1-46d4-a498-6a44d6a5079f"
              },
              {
                "reference": "urn:uuid:29cce62c-3581-4c6f-84b2-ab37f17414a2"
              },
              {
                "reference": "urn:uuid:e3e09cdd-9d2b-41e8-bbdb-b4796fc46743"
              },
              {
                "reference": "urn:uuid:99c45750-8e43-4abb-9bac-c4b3b421b977"
              },
              {
                "reference": "urn:uuid:bcc8cdf0-1921-4637-99d1-7327c165e4d2"
              },
              {
                "reference": "urn:uuid:d8802995-b959-45f8-a1ad-06f724e9e636"
              },
              {
                "reference": "urn:uuid:8c0502c7-c097-40ef-a1ae-f61635c62268"
              },
              {
                "reference": "urn:uuid:97429114-7f54-4820-bc8f-7dcd183b2ea6"
              },
              {
                "reference": "urn:uuid:2fa297df-395c-4337-b84f-f973f2825b0e"
              },
              {
                "reference": "urn:uuid:0fb52124-db46-4b1a-b199-c4270a16f2be"
              }
            ],
            "code": {
              "coding": [
                {
                  "system": "http://loinc.org",
                  "code": "30954-2",
                  "display": "Relevant diagnostic tests/laboratory data note"
                }
              ]
            },
            "title": "Relevant diagnostic tests/laboratory data"
          },
          {
            "text": {
              "status": "generated",
              "div": "<div xmlns=\"http://www.w3.org/1999/xhtml\"><table class=\"hl7__ips\"><tr><th>Device</th><th>Date (since)</th></tr><tr><td>Blood glucose meter (physical object)</td><td><span class=\"nb\">18-Mar-1988</span></td></tr></table></div>"
            },
            "entry": [
              {
                "reference": "urn:uuid:2d2b0946-e666-47bd-9a23-fce732a71eef"
              }
            ],
            "code": {
              "coding": [
                {
                  "system": "http://loinc.org",
                  "code": "46264-8",
                  "display": "History of medical device use"
                }
              ]
            },
            "title": "Device Use"
          }
        ],
        "title": "European Patient Summary",
        "status": "final",
        "subject": {
          "reference": "urn:uuid:60c14abf-189a-47e5-9994-d1ace7628e7b",
          "display": "Lydia Ward"
        },
        "custodian": {
          "reference": "urn:uuid:317b686b-b18f-42dd-82f2-d5dc587af6ab"
        },
        "date": "2025-03-08",
        "confidentiality": "N"
      }
    },
    {
      "fullUrl": "urn:uuid:60c14abf-189a-47e5-9994-d1ace7628e7b",
      "resource": {
        "resourceType": "Patient",
        "id": "60c14abf-189a-47e5-9994-d1ace7628e7b",
        "meta": {
          "security": [
            {
              "system": "http://terminology.hl7.org/CodeSystem/v3-ActReason",
              "code": "HTEST"
            },
            {
              "system": "http://terminology.hl7.org/CodeSystem/v3-ActReason",
              "code": "TRAIN"
            }
          ],
          "tag": [
            {
              "system": "https://synderai.net/fhir/CodeSystem/tags",
              "code": "synthetic",
              "display": "SYNDERAI Synthetic data"
            }
          ],
          "profile": [
            "http://hl7.eu/fhir/eps/StructureDefinition/patient-eu-eps"
          ]
        },
        "identifier": [
          {
            "type": {
              "coding": [
                {
                  "code": "PT",
                  "system": "http://terminology.hl7.org/CodeSystem/v2-0203"
                }
              ]
            },
            "system": "http://ec.europa.eu/identifier/eci",
            "value": "8944-364030-8"
          },
          {
            "type": {
              "coding": [
                {
                  "code": "MR",
                  "system": "http://terminology.hl7.org/CodeSystem/v2-0203"
                }
              ]
            },
            "system": "http://local.setting.eu/identifier",
            "value": "9edf6b8d-b276-7218-98c6-ccf8d15f2a01"
          }
        ],
        "name": [
          {
            "family": "Ward"
          },
          {
            "given": [
              "Lydia"
            ]
          },
          {
            "text": "Lydia Ward"
          }
        ],
        "address": [
          {
            "line": [
              "6 Hunt radial"
            ],
            "use": "home",
            "type": "physical",
            "postalCode": "EH33",
            "city": "South Rosieside",
            "country": "United Kingdom"
          }
        ],
        "telecom": [
          {
            "system": "phone",
            "value": "01144960349"
          }
        ],
        "extension": [
          {
            "url": "http://hl7.org/fhir/StructureDefinition/patient-nationality",
            "valueCodeableConcept": {
              "coding": [
                {
                  "code": "GB",
                  "system": "http://hl7.org/fhir/ValueSet/country"
                }
              ]
            }
          }
        ],
        "text": {
          "status": "generated",
          "div": "<div xmlns=\"http://www.w3.org/1999/xhtml\"><table class=\"hl7__ips\"><tr><td>Lydia Ward</td><td>female</td><td>27-Dec-1968</td></tr></table></div>"
        },
        "gender": "female",
        "birthDate": "1968-12-27"
      }
    },
    {
      "fullUrl": "urn:uuid:5f230e88-ee41-431f-802f-d44ca35ec1b7",
      "resource": {
        "resourceType": "PractitionerRole",
        "id": "5f230e88-ee41-431f-802f-d44ca35ec1b7",
        "meta": {
          "profile": [
            "http://hl7.eu/fhir/base/StructureDefinition/practitionerRole-eu"
          ]
        },
        "text": {
          "status": "generated",
          "div": "<div xmlns=\"http://www.w3.org/1999/xhtml\"><table class=\"hl7__ips\">Provider Role Id 5f230e88-ee41-431f-802f-d44ca35ec1b7</table></div>"
        },
        "practitioner": {
          "reference": "urn:uuid:c696889d-ccef-4e81-b03c-cbc580b98e82"
        },
        "organization": {
          "reference": "urn:uuid:317b686b-b18f-42dd-82f2-d5dc587af6ab"
        }
      }
    },
    {
      "fullUrl": "urn:uuid:c696889d-ccef-4e81-b03c-cbc580b98e82",
      "resource": {
        "resourceType": "Practitioner",
        "id": "c696889d-ccef-4e81-b03c-cbc580b98e82",
        "meta": {
          "profile": [
            "http://hl7.eu/fhir/base/StructureDefinition/practitioner-eu"
          ]
        },
        "name": [
          {
            "prefix": [
              "Dr."
            ],
            "given": [
              "Hel"
            ],
            "family": "Ping"
          }
        ],
        "text": {
          "status": "generated",
          "div": "<div xmlns=\"http://www.w3.org/1999/xhtml\"><table class=\"hl7__ips\">Dr. Hel Ping</table></div>"
        }
      }
    },
    {
      "fullUrl": "urn:uuid:317b686b-b18f-42dd-82f2-d5dc587af6ab",
      "resource": {
        "resourceType": "Organization",
        "id": "317b686b-b18f-42dd-82f2-d5dc587af6ab",
        "meta": {
          "profile": [
            "http://hl7.eu/fhir/base/StructureDefinition/organization-eu"
          ]
        },
        "identifier": [
          {
            "assigner": {
              "display": "HL7 Europe"
            },
            "system": "urn:oid:2.16.840.1.113883.2.51.999",
            "value": "68ef0242-790c-4e38-90e3-b93632a90bb5"
          }
        ],
        "address": [
          {
            "city": "Edinburgh",
            "postalCode": "EH9 2",
            "country": "United Kingdom"
          }
        ],
        "text": {
          "status": "generated",
          "div": "<div xmlns=\"http://www.w3.org/1999/xhtml\"><table class=\"hl7__ips\">Royal Hospital for Sick Children</table></div>"
        },
        "name": "Royal Hospital for Sick Children"
      }
    },
    {
      "fullUrl": "urn:uuid:485a9c33-75b1-4a21-b6ca-b43d19a79580",
      "resource": {
        "resourceType": "Condition",
        "id": "485a9c33-75b1-4a21-b6ca-b43d19a79580",
        "meta": {
          "profile": [
            "http://hl7.org/fhir/uv/ips/StructureDefinition/Condition-uv-ips"
          ]
        },
        "category": [
          {
            "coding": [
              {
                "code": "problem-list-item",
                "system": "http://terminology.hl7.org/CodeSystem/condition-category",
                "display": "Problem List Item"
              }
            ]
          }
        ],
        "code": {
          "coding": [
            {
              "code": "271737000",
              "system": "http://snomed.info/sct",
              "display": "Anemia (disorder)"
            }
          ],
          "text": "Anemia"
        },
        "text": {
          "status": "generated",
          "div": "<div xmlns=\"http://www.w3.org/1999/xhtml\"><table class=\"hl7__ips\"><tr><td>Anemia</td><td><span class=\"nb\">23-Mar-1991</span></td><td>active</td></tr></table></div>"
        },
        "onsetDateTime": "1991-03-23",
        "subject": {
          "reference": "urn:uuid:",
          "display": "Lydia Ward"
        },
        "asserter": {
          "reference": "urn:uuid:",
          "display": "Royal Hospital for Sick Children"
        }
      }
    },
    {
      "fullUrl": "urn:uuid:694a11db-280d-4e55-a765-4acfb7b9d36a",
      "resource": {
        "resourceType": "Condition",
        "id": "694a11db-280d-4e55-a765-4acfb7b9d36a",
        "meta": {
          "profile": [
            "http://hl7.org/fhir/uv/ips/StructureDefinition/Condition-uv-ips"
          ]
        },
        "category": [
          {
            "coding": [
              {
                "code": "problem-list-item",
                "system": "http://terminology.hl7.org/CodeSystem/condition-category",
                "display": "Problem List Item"
              }
            ]
          }
        ],
        "code": {
          "coding": [
            {
              "code": "15777000",
              "system": "http://snomed.info/sct",
              "display": "Prediabetes (disorder)"
            }
          ],
          "text": "Prediabetes"
        },
        "text": {
          "status": "generated",
          "div": "<div xmlns=\"http://www.w3.org/1999/xhtml\"><table class=\"hl7__ips\"><tr><td>Prediabetes</td><td><span class=\"nb\">19-Mar-1988</span></td><td>active</td></tr></table></div>"
        },
        "onsetDateTime": "1988-03-19",
        "subject": {
          "reference": "urn:uuid:",
          "display": "Lydia Ward"
        },
        "asserter": {
          "reference": "urn:uuid:",
          "display": "Royal Hospital for Sick Children"
        }
      }
    },
    {
      "fullUrl": "urn:uuid:59ad5650-8e4f-45a5-9ff3-c8b56e0dd880",
      "resource": {
        "resourceType": "Condition",
        "id": "59ad5650-8e4f-45a5-9ff3-c8b56e0dd880",
        "meta": {
          "profile": [
            "http://hl7.org/fhir/uv/ips/StructureDefinition/Condition-uv-ips"
          ]
        },
        "category": [
          {
            "coding": [
              {
                "code": "problem-list-item",
                "system": "http://terminology.hl7.org/CodeSystem/condition-category",
                "display": "Problem List Item"
              }
            ]
          }
        ],
        "code": {
          "coding": [
            {
              "code": "10509002",
              "system": "http://snomed.info/sct",
              "display": "Acute bronchitis (disorder)"
            }
          ],
          "text": "Acute bronchitis"
        },
        "text": {
          "status": "generated",
          "div": "<div xmlns=\"http://www.w3.org/1999/xhtml\"><table class=\"hl7__ips\"><tr><td><span class=\"grayedout\">Acute bronchitis</span></td><td><span class=\"nb\">29-Aug-2021 - 07-Sep-2021</span></td><td><span class=\"grayedout\">inactive</span></td></tr></table></div>"
        },
        "onsetDateTime": "2021-08-29",
        "abatementDateTime": "2021-09-07",
        "subject": {
          "reference": "urn:uuid:",
          "display": "Lydia Ward"
        },
        "asserter": {
          "reference": "urn:uuid:",
          "display": "Royal Hospital for Sick Children"
        }
      }
    },
    {
      "fullUrl": "urn:uuid:30d5c909-5e5b-45f6-b09d-5df160dca4d7",
      "resource": {
        "resourceType": "Condition",
        "id": "30d5c909-5e5b-45f6-b09d-5df160dca4d7",
        "meta": {
          "profile": [
            "http://hl7.org/fhir/uv/ips/StructureDefinition/Condition-uv-ips"
          ]
        },
        "category": [
          {
            "coding": [
              {
                "code": "problem-list-item",
                "system": "http://terminology.hl7.org/CodeSystem/condition-category",
                "display": "Problem List Item"
              }
            ]
          }
        ],
        "code": {
          "coding": [
            {
              "code": "444814009",
              "system": "http://snomed.info/sct",
              "display": "Viral sinusitis (disorder)"
            }
          ],
          "text": "Viral sinusitis"
        },
        "text": {
          "status": "generated",
          "div": "<div xmlns=\"http://www.w3.org/1999/xhtml\"><table class=\"hl7__ips\"><tr><td><span class=\"grayedout\">Viral sinusitis</span></td><td><span class=\"nb\">27-Oct-2015 - 07-Nov-2015</span></td><td><span class=\"grayedout\">inactive</span></td></tr></table></div>"
        },
        "onsetDateTime": "2015-10-27",
        "abatementDateTime": "2015-11-07",
        "subject": {
          "reference": "urn:uuid:",
          "display": "Lydia Ward"
        },
        "asserter": {
          "reference": "urn:uuid:",
          "display": "Royal Hospital for Sick Children"
        }
      }
    },
    {
      "fullUrl": "urn:uuid:5ece9532-bac3-4664-a908-8930643e5a97",
      "resource": {
        "resourceType": "MedicationStatement",
        "id": "5ece9532-bac3-4664-a908-8930643e5a97",
        "meta": {
          "profile": [
            "http://hl7.eu/fhir/eps/StructureDefinition/MedicationStatement-eu-eps"
          ]
        },
        "effectivePeriod": {
          "extension": [
            {
              "url": "http://hl7.org/fhir/StructureDefinition/data-absent-reason",
              "valueCode": "unknown"
            }
          ]
        },
        "status": "active",
        "medicationCodeableConcept": {
          "coding": [
            {
              "code": "787481004",
              "system": "http://snomed.info/sct",
              "display": "No known medications (situation)"
            }
          ]
        },
        "subject": {
          "reference": "urn:uuid:60c14abf-189a-47e5-9994-d1ace7628e7b",
          "display": "Lydia Ward"
        }
      }
    },
    {
      "fullUrl": "urn:uuid:5ece9532-bac3-4664-a908-8930643e5a97",
      "resource": {
        "resourceType": "MedicationStatement",
        "id": "5ece9532-bac3-4664-a908-8930643e5a97",
        "meta": {
          "profile": [
            "http://hl7.eu/fhir/eps/StructureDefinition/MedicationStatement-eu-eps"
          ]
        },
        "effectivePeriod": {
          "extension": [
            {
              "url": "http://hl7.org/fhir/StructureDefinition/data-absent-reason",
              "valueCode": "unknown"
            }
          ]
        },
        "status": "active",
        "medicationCodeableConcept": {
          "coding": [
            {
              "code": "787481004",
              "system": "http://snomed.info/sct",
              "display": "No known medications (situation)"
            }
          ]
        },
        "subject": {
          "reference": "urn:uuid:60c14abf-189a-47e5-9994-d1ace7628e7b",
          "display": "Lydia Ward"
        }
      }
    },
    {
      "fullUrl": "urn:uuid:cf6cb2ea-d856-4b76-8c6b-a38613b3ac2d",
      "resource": {
        "resourceType": "Immunization",
        "id": "cf6cb2ea-d856-4b76-8c6b-a38613b3ac2d",
        "meta": {
          "profile": [
            "http://hl7.org/fhir/uv/ips/StructureDefinition/Immunization-uv-ips"
          ]
        },
        "vaccineCode": {
          "coding": [
            {
              "code": "1181000221105",
              "system": "http://snomed.info/sct",
              "display": "Vaccine product containing Influenza virus antigen"
            },
            {
              "code": "J07BB02",
              "system": "http://www.whocc.no/atc",
              "display": "Influenza, inactivated, split virus"
            }
          ],
          "text": "Influenza virus antigen only vaccine product"
        },
        "site": {
          "coding": [
            {
              "code": "244979005",
              "system": "http://snomed.info/sct",
              "display": "Entire muscle of upper arm"
            }
          ],
          "text": "Entire muscle of upper arm"
        },
        "route": {
          "coding": [
            {
              "code": "78421000",
              "system": "http://snomed.info/sct",
              "display": "Intramuscular route"
            }
          ],
          "text": "Intramuscular route"
        },
        "text": {
          "status": "generated",
          "div": "<div xmlns=\"http://www.w3.org/1999/xhtml\"><table class=\"hl7__ips\"><tr><td>Influenza virus antigen only vaccine product</td><td><span class=\"nb\">07-Mar-2025</span></td></tr></table></div>"
        },
        "status": "completed",
        "patient": {
          "reference": "urn:uuid:60c14abf-189a-47e5-9994-d1ace7628e7b",
          "display": "Lydia Ward"
        },
        "occurrenceDateTime": "2025-03-07",
        "lotNumber": "LH-zqQIE9oW2",
        "expirationDate": "2025-07-05"
      }
    },
    {
      "fullUrl": "urn:uuid:ec572352-853f-4ec4-bebf-283656ff60b3",
      "resource": {
        "resourceType": "Immunization",
        "id": "ec572352-853f-4ec4-bebf-283656ff60b3",
        "meta": {
          "profile": [
            "http://hl7.org/fhir/uv/ips/StructureDefinition/Immunization-uv-ips"
          ]
        },
        "vaccineCode": {
          "coding": [
            {
              "code": "777725002",
              "system": "http://snomed.info/sct",
              "display": "Vaccine product containing only Clostridium tetani toxoid antigen adsorbed"
            },
            {
              "code": "J07AM51",
              "system": "http://www.whocc.no/atc",
              "display": "Diphtheria-tetanus vaccines, adult type"
            }
          ],
          "text": "Clostridium tetani toxoid antigen adsorbed only vaccine product"
        },
        "site": {
          "coding": [
            {
              "code": "244979005",
              "system": "http://snomed.info/sct",
              "display": "Entire muscle of upper arm"
            }
          ],
          "text": "Entire muscle of upper arm"
        },
        "route": {
          "coding": [
            {
              "code": "78421000",
              "system": "http://snomed.info/sct",
              "display": "Intramuscular route"
            }
          ],
          "text": "Intramuscular route"
        },
        "text": {
          "status": "generated",
          "div": "<div xmlns=\"http://www.w3.org/1999/xhtml\"><table class=\"hl7__ips\"><tr><td>Clostridium tetani toxoid antigen adsorbed only vaccine product</td><td><span class=\"nb\">20-Jan-2017</span></td></tr></table></div>"
        },
        "status": "completed",
        "patient": {
          "reference": "urn:uuid:60c14abf-189a-47e5-9994-d1ace7628e7b",
          "display": "Lydia Ward"
        },
        "occurrenceDateTime": "2017-01-20",
        "lotNumber": "TU-wmMi582c",
        "expirationDate": "2017-05-01"
      }
    },
    {
      "fullUrl": "urn:uuid:cc80cc37-a6e0-424f-acb4-b86d89ccbb00",
      "resource": {
        "resourceType": "Immunization",
        "id": "cc80cc37-a6e0-424f-acb4-b86d89ccbb00",
        "meta": {
          "profile": [
            "http://hl7.org/fhir/uv/ips/StructureDefinition/Immunization-uv-ips"
          ]
        },
        "vaccineCode": {
          "coding": [
            {
              "code": "2221000221107",
              "system": "http://snomed.info/sct",
              "display": "Live attenuated Varicella-zoster vaccine"
            },
            {
              "code": "J07BK02",
              "system": "http://www.whocc.no/atc",
              "display": "Varicella-zoster vaccines"
            }
          ],
          "text": "Live attenuated Human alphaherpesvirus 3 only vaccine product"
        },
        "site": {
          "coding": [
            {
              "code": "368208006",
              "system": "http://snomed.info/sct",
              "display": "Left upper arm structure"
            }
          ],
          "text": "Left upper arm structure"
        },
        "route": {
          "coding": [
            {
              "code": "34206005",
              "system": "http://snomed.info/sct",
              "display": "Subcutaneous route"
            }
          ],
          "text": "Subcutaneous route"
        },
        "text": {
          "status": "generated",
          "div": "<div xmlns=\"http://www.w3.org/1999/xhtml\"><table class=\"hl7__ips\"><tr><td>Live attenuated Human alphaherpesvirus 3 only vaccine product</td><td><span class=\"nb\">20-Jan-2017</span></td></tr></table></div>"
        },
        "status": "completed",
        "patient": {
          "reference": "urn:uuid:60c14abf-189a-47e5-9994-d1ace7628e7b",
          "display": "Lydia Ward"
        },
        "occurrenceDateTime": "2017-01-20",
        "lotNumber": "IH-jglnSgO",
        "expirationDate": "2017-11-01"
      }
    },
    {
      "fullUrl": "urn:uuid:b1b983fa-a3c7-45fa-a498-af90e90646f7",
      "resource": {
        "resourceType": "AllergyIntolerance",
        "id": "b1b983fa-a3c7-45fa-a498-af90e90646f7",
        "meta": {
          "profile": [
            "http://hl7.eu/fhir/eps/StructureDefinition/allergyIntolerance-eu-eps"
          ]
        },
        "code": {
          "coding": [
            {
              "code": "2221000221107",
              "system": "http://snomed.info/sct",
              "display": "Live attenuated Varicella-zoster vaccine"
            }
          ],
          "text": "Live attenuated Varicella-zoster vaccine"
        },
        "clinicalStatus": {
          "coding": [
            {
              "code": "active",
              "system": "http://terminology.hl7.org/CodeSystem/allergyintolerance-clinical"
            }
          ]
        },
        "text": {
          "status": "generated",
          "div": "<div xmlns=\"http://www.w3.org/1999/xhtml\"><table class=\"hl7__ips\"><tr><th>Allergy/Intolerance</th><th>Onset Date</th><th>Status</th><th>Type</th><th>Reaction</th></tr><tr><td>Live attenuated Varicella-zoster vaccine</td><td>?</td><td>active</td><td>?</td><td></td></tr></table></div>"
        },
        "verificationStatus": {
          "coding": [
            {
              "code": "confirmed",
              "system": "http://terminology.hl7.org/CodeSystem/allergyintolerance-verification"
            }
          ]
        },
        "patient": {
          "reference": "urn:uuid:60c14abf-189a-47e5-9994-d1ace7628e7b",
          "display": "Lydia Ward"
        },
        "_onsetDateTime": {
          "extension": [
            {
              "url": "http://hl7.org/fhir/StructureDefinition/data-absent-reason",
              "valueCode": "unknown"
            }
          ]
        }
      }
    },
    {
      "fullUrl": "urn:uuid:8f06693b-4324-4edd-8f05-7d40e34526e5",
      "resource": {
        "resourceType": "CarePlan",
        "id": "8f06693b-4324-4edd-8f05-7d40e34526e5",
        "category": [
          {
            "coding": [
              {
                "code": "assess-plan",
                "system": "http://terminology.hl7.org/CodeSystem/care-plan-category",
                "display": "Assessment and Plan"
              }
            ]
          }
        ],
        "activity": [
          {
            "detail": {
              "code": {
                "coding": [
                  {
                    "code": "698360004",
                    "system": "http://snomed.info/sct",
                    "display": "Diabetes self management plan (qualifier value)"
                  }
                ]
              },
              "reasonCode": [
                {
                  "coding": [
                    {
                      "code": "15777000",
                      "system": "http://snomed.info/sct",
                      "display": "Prediabetes"
                    }
                  ]
                }
              ],
              "status": "unknown",
              "description": "Diabetes self management plan",
              "kind": "Appointment"
            }
          }
        ],
        "period": {
          "start": "1988-03-19"
        },
        "goal": [
          {
            "reference": "urn:uuid:b8ab0f7d-94aa-4c53-86f0-e7f05c938516"
          }
        ],
        "text": {
          "status": "generated",
          "div": "<div xmlns=\"http://www.w3.org/1999/xhtml\"><table class=\"hl7__ips first25\"><tr><th>Active Planned Care / Goals</th><th>Start Date</th><th>Reason</th></tr><tr><td>Diabetes self management plan</td><td><span class=\"nb\">19-Mar-1988</span></td><td>Prediabetes</td></tr><tr><td><ul><li>Patient will implement a diabetes self-management plan to reduce risk of progression to diabetes.</li></ul></td><td></td><td></td></tr></table></div>"
        },
        "status": "active",
        "intent": "plan",
        "subject": {
          "reference": "urn:uuid:60c14abf-189a-47e5-9994-d1ace7628e7b",
          "display": "Lydia Ward"
        }
      }
    },
    {
      "fullUrl": "urn:uuid:2e8ee363-8a15-4276-8d19-4e7e6c5594eb",
      "resource": {
        "resourceType": "Observation",
        "id": "2e8ee363-8a15-4276-8d19-4e7e6c5594eb",
        "meta": {
          "profile": [
            "http://hl7.org/fhir/StructureDefinition/vitalsigns"
          ]
        },
        "category": [
          {
            "coding": [
              {
                "system": "http://terminology.hl7.org/CodeSystem/observation-category",
                "code": "vital-signs",
                "display": "Vital Signs"
              }
            ]
          }
        ],
        "valueQuantity": {
          "value": 170,
          "code": "cm",
          "unit": "cm"
        },
        "text": {
          "status": "generated",
          "div": "<div xmlns=\"http://www.w3.org/1999/xhtml\"><table class=\"hl7__ips\"><tr><th>Vital Sign</th><th>Date</th><th>Measurement</th></tr><tr><td>Body Height</td><td>07-Mar-2025</td><td>170 cm</td></tr></table></div>"
        },
        "status": "final",
        "code": {
          "coding": [
            {
              "code": "$8302-2",
              "system": "http://loinc.org",
              "display": "Body Height"
            }
          ]
        },
        "subject": {
          "reference": "urn:uuid:60c14abf-189a-47e5-9994-d1ace7628e7b",
          "display": "Lydia Ward"
        },
        "effectiveDateTime": "2025-03-07"
      }
    },
    {
      "fullUrl": "urn:uuid:ee8cf432-e733-4b19-b56f-c12e48e63f3d",
      "resource": {
        "resourceType": "Observation",
        "id": "ee8cf432-e733-4b19-b56f-c12e48e63f3d",
        "meta": {
          "profile": [
            "http://hl7.org/fhir/StructureDefinition/vitalsigns"
          ]
        },
        "category": [
          {
            "coding": [
              {
                "system": "http://terminology.hl7.org/CodeSystem/observation-category",
                "code": "vital-signs",
                "display": "Vital Signs"
              }
            ]
          }
        ],
        "valueQuantity": {
          "value": 3,
          "code": "{score}",
          "unit": "{score}"
        },
        "text": {
          "status": "generated",
          "div": "<div xmlns=\"http://www.w3.org/1999/xhtml\"><table class=\"hl7__ips\"><tr><th>Vital Sign</th><th>Date</th><th>Measurement</th></tr><tr><td>Pain severity - 0-10 verbal numeric rating [Score] - Reported</td><td>07-Mar-2025</td><td>3 {score}</td></tr></table></div>"
        },
        "status": "final",
        "code": {
          "coding": [
            {
              "code": "$72514-3",
              "system": "http://loinc.org",
              "display": "Pain severity - 0-10 verbal numeric rating [Score] - Reported"
            }
          ]
        },
        "subject": {
          "reference": "urn:uuid:60c14abf-189a-47e5-9994-d1ace7628e7b",
          "display": "Lydia Ward"
        },
        "effectiveDateTime": "2025-03-07"
      }
    },
    {
      "fullUrl": "urn:uuid:78fbfdf3-6662-4fdc-b80b-7c58c9e928cc",
      "resource": {
        "resourceType": "Observation",
        "id": "78fbfdf3-6662-4fdc-b80b-7c58c9e928cc",
        "meta": {
          "profile": [
            "http://hl7.org/fhir/StructureDefinition/vitalsigns"
          ]
        },
        "category": [
          {
            "coding": [
              {
                "system": "http://terminology.hl7.org/CodeSystem/observation-category",
                "code": "vital-signs",
                "display": "Vital Signs"
              }
            ]
          }
        ],
        "valueQuantity": {
          "value": 81.1,
          "code": "kg",
          "unit": "kg"
        },
        "text": {
          "status": "generated",
          "div": "<div xmlns=\"http://www.w3.org/1999/xhtml\"><table class=\"hl7__ips\"><tr><th>Vital Sign</th><th>Date</th><th>Measurement</th></tr><tr><td>Body Weight</td><td>07-Mar-2025</td><td>81.1 kg</td></tr></table></div>"
        },
        "status": "final",
        "code": {
          "coding": [
            {
              "code": "$29463-7",
              "system": "http://loinc.org",
              "display": "Body Weight"
            }
          ]
        },
        "subject": {
          "reference": "urn:uuid:60c14abf-189a-47e5-9994-d1ace7628e7b",
          "display": "Lydia Ward"
        },
        "effectiveDateTime": "2025-03-07"
      }
    },
    {
      "fullUrl": "urn:uuid:5468b9d5-3d43-4639-a392-4eaac8dcd211",
      "resource": {
        "resourceType": "Observation",
        "id": "5468b9d5-3d43-4639-a392-4eaac8dcd211",
        "meta": {
          "profile": [
            "http://hl7.org/fhir/StructureDefinition/vitalsigns"
          ]
        },
        "category": [
          {
            "coding": [
              {
                "system": "http://terminology.hl7.org/CodeSystem/observation-category",
                "code": "vital-signs",
                "display": "Vital Signs"
              }
            ]
          }
        ],
        "valueQuantity": {
          "value": 28.1,
          "code": "kg/m2",
          "unit": "kg/m2"
        },
        "text": {
          "status": "generated",
          "div": "<div xmlns=\"http://www.w3.org/1999/xhtml\"><table class=\"hl7__ips\"><tr><th>Vital Sign</th><th>Date</th><th>Measurement</th></tr><tr><td>Body mass index (BMI) [Ratio]</td><td>07-Mar-2025</td><td>28.1 kg/m2</td></tr></table></div>"
        },
        "status": "final",
        "code": {
          "coding": [
            {
              "code": "$39156-5",
              "system": "http://loinc.org",
              "display": "Body mass index (BMI) [Ratio]"
            }
          ]
        },
        "subject": {
          "reference": "urn:uuid:60c14abf-189a-47e5-9994-d1ace7628e7b",
          "display": "Lydia Ward"
        },
        "effectiveDateTime": "2025-03-07"
      }
    },
    {
      "fullUrl": "urn:uuid:665c4b1d-bb7d-4997-9bd1-40089d6593f5",
      "resource": {
        "resourceType": "Observation",
        "id": "665c4b1d-bb7d-4997-9bd1-40089d6593f5",
        "meta": {
          "profile": [
            "http://hl7.org/fhir/StructureDefinition/vitalsigns"
          ]
        },
        "category": [
          {
            "coding": [
              {
                "system": "http://terminology.hl7.org/CodeSystem/observation-category",
                "code": "vital-signs",
                "display": "Vital Signs"
              }
            ]
          }
        ],
        "valueQuantity": {
          "value": 78,
          "code": "mm[Hg]",
          "unit": "mm[Hg]"
        },
        "text": {
          "status": "generated",
          "div": "<div xmlns=\"http://www.w3.org/1999/xhtml\"><table class=\"hl7__ips\"><tr><th>Vital Sign</th><th>Date</th><th>Measurement</th></tr><tr><td>Diastolic Blood Pressure</td><td>07-Mar-2025</td><td>78 mm[Hg]</td></tr></table></div>"
        },
        "status": "final",
        "code": {
          "coding": [
            {
              "code": "$8462-4",
              "system": "http://loinc.org",
              "display": "Diastolic Blood Pressure"
            }
          ]
        },
        "subject": {
          "reference": "urn:uuid:60c14abf-189a-47e5-9994-d1ace7628e7b",
          "display": "Lydia Ward"
        },
        "effectiveDateTime": "2025-03-07"
      }
    },
    {
      "fullUrl": "urn:uuid:1a73e46a-b507-4c7a-a8a2-2bbaccd404dd",
      "resource": {
        "resourceType": "Observation",
        "id": "1a73e46a-b507-4c7a-a8a2-2bbaccd404dd",
        "meta": {
          "profile": [
            "http://hl7.org/fhir/StructureDefinition/vitalsigns"
          ]
        },
        "category": [
          {
            "coding": [
              {
                "system": "http://terminology.hl7.org/CodeSystem/observation-category",
                "code": "vital-signs",
                "display": "Vital Signs"
              }
            ]
          }
        ],
        "valueQuantity": {
          "value": 105,
          "code": "mm[Hg]",
          "unit": "mm[Hg]"
        },
        "text": {
          "status": "generated",
          "div": "<div xmlns=\"http://www.w3.org/1999/xhtml\"><table class=\"hl7__ips\"><tr><th>Vital Sign</th><th>Date</th><th>Measurement</th></tr><tr><td>Systolic Blood Pressure</td><td>07-Mar-2025</td><td>105 mm[Hg]</td></tr></table></div>"
        },
        "status": "final",
        "code": {
          "coding": [
            {
              "code": "$8480-6",
              "system": "http://loinc.org",
              "display": "Systolic Blood Pressure"
            }
          ]
        },
        "subject": {
          "reference": "urn:uuid:60c14abf-189a-47e5-9994-d1ace7628e7b",
          "display": "Lydia Ward"
        },
        "effectiveDateTime": "2025-03-07"
      }
    },
    {
      "fullUrl": "urn:uuid:1a3717c0-db8e-4f3c-8d58-91dc4d4e2552",
      "resource": {
        "resourceType": "Observation",
        "id": "1a3717c0-db8e-4f3c-8d58-91dc4d4e2552",
        "meta": {
          "profile": [
            "http://hl7.org/fhir/StructureDefinition/vitalsigns"
          ]
        },
        "category": [
          {
            "coding": [
              {
                "system": "http://terminology.hl7.org/CodeSystem/observation-category",
                "code": "vital-signs",
                "display": "Vital Signs"
              }
            ]
          }
        ],
        "valueQuantity": {
          "value": 71,
          "code": "/min",
          "unit": "/min"
        },
        "text": {
          "status": "generated",
          "div": "<div xmlns=\"http://www.w3.org/1999/xhtml\"><table class=\"hl7__ips\"><tr><th>Vital Sign</th><th>Date</th><th>Measurement</th></tr><tr><td>Heart rate</td><td>07-Mar-2025</td><td>71 /min</td></tr></table></div>"
        },
        "status": "final",
        "code": {
          "coding": [
            {
              "code": "$8867-4",
              "system": "http://loinc.org",
              "display": "Heart rate"
            }
          ]
        },
        "subject": {
          "reference": "urn:uuid:60c14abf-189a-47e5-9994-d1ace7628e7b",
          "display": "Lydia Ward"
        },
        "effectiveDateTime": "2025-03-07"
      }
    },
    {
      "fullUrl": "urn:uuid:d4611c76-8452-4493-8236-6f59af461a8c",
      "resource": {
        "resourceType": "Observation",
        "id": "d4611c76-8452-4493-8236-6f59af461a8c",
        "meta": {
          "profile": [
            "http://hl7.org/fhir/StructureDefinition/vitalsigns"
          ]
        },
        "category": [
          {
            "coding": [
              {
                "system": "http://terminology.hl7.org/CodeSystem/observation-category",
                "code": "vital-signs",
                "display": "Vital Signs"
              }
            ]
          }
        ],
        "valueQuantity": {
          "value": 15,
          "code": "/min",
          "unit": "/min"
        },
        "text": {
          "status": "generated",
          "div": "<div xmlns=\"http://www.w3.org/1999/xhtml\"><table class=\"hl7__ips\"><tr><th>Vital Sign</th><th>Date</th><th>Measurement</th></tr><tr><td>Respiratory rate</td><td>07-Mar-2025</td><td>15 /min</td></tr></table></div>"
        },
        "status": "final",
        "code": {
          "coding": [
            {
              "code": "$9279-1",
              "system": "http://loinc.org",
              "display": "Respiratory rate"
            }
          ]
        },
        "subject": {
          "reference": "urn:uuid:60c14abf-189a-47e5-9994-d1ace7628e7b",
          "display": "Lydia Ward"
        },
        "effectiveDateTime": "2025-03-07"
      }
    },
    {
      "fullUrl": "urn:uuid:41435ca7-6f0e-4398-848d-a3695397449c",
      "resource": {
        "resourceType": "Observation",
        "id": "41435ca7-6f0e-4398-848d-a3695397449c",
        "meta": {
          "profile": [
            "http://hl7.org/fhir/StructureDefinition/vitalsigns"
          ]
        },
        "category": [
          {
            "coding": [
              {
                "system": "http://terminology.hl7.org/CodeSystem/observation-category",
                "code": "vital-signs",
                "display": "Vital Signs"
              }
            ]
          }
        ],
        "valueQuantity": {
          "value": 170,
          "code": "cm",
          "unit": "cm"
        },
        "text": {
          "status": "generated",
          "div": "<div xmlns=\"http://www.w3.org/1999/xhtml\"><table class=\"hl7__ips\"><tr><th>Vital Sign</th><th>Date</th><th>Measurement</th></tr><tr><td>Body Height</td><td>01-Mar-2024</td><td>170 cm</td></tr></table></div>"
        },
        "status": "final",
        "code": {
          "coding": [
            {
              "code": "$8302-2",
              "system": "http://loinc.org",
              "display": "Body Height"
            }
          ]
        },
        "subject": {
          "reference": "urn:uuid:60c14abf-189a-47e5-9994-d1ace7628e7b",
          "display": "Lydia Ward"
        },
        "effectiveDateTime": "2024-03-01"
      }
    },
    {
      "fullUrl": "urn:uuid:e71f9d99-715d-45c4-9d74-eb51538b0b23",
      "resource": {
        "resourceType": "Observation",
        "id": "e71f9d99-715d-45c4-9d74-eb51538b0b23",
        "meta": {
          "profile": [
            "http://hl7.org/fhir/StructureDefinition/vitalsigns"
          ]
        },
        "category": [
          {
            "coding": [
              {
                "system": "http://terminology.hl7.org/CodeSystem/observation-category",
                "code": "vital-signs",
                "display": "Vital Signs"
              }
            ]
          }
        ],
        "valueQuantity": {
          "value": 3,
          "code": "{score}",
          "unit": "{score}"
        },
        "text": {
          "status": "generated",
          "div": "<div xmlns=\"http://www.w3.org/1999/xhtml\"><table class=\"hl7__ips\"><tr><th>Vital Sign</th><th>Date</th><th>Measurement</th></tr><tr><td>Pain severity - 0-10 verbal numeric rating [Score] - Reported</td><td>01-Mar-2024</td><td>3 {score}</td></tr></table></div>"
        },
        "status": "final",
        "code": {
          "coding": [
            {
              "code": "$72514-3",
              "system": "http://loinc.org",
              "display": "Pain severity - 0-10 verbal numeric rating [Score] - Reported"
            }
          ]
        },
        "subject": {
          "reference": "urn:uuid:60c14abf-189a-47e5-9994-d1ace7628e7b",
          "display": "Lydia Ward"
        },
        "effectiveDateTime": "2024-03-01"
      }
    },
    {
      "fullUrl": "urn:uuid:6098c97d-e4f5-4b05-9535-f01f63a9ce05",
      "resource": {
        "resourceType": "Observation",
        "id": "6098c97d-e4f5-4b05-9535-f01f63a9ce05",
        "meta": {
          "profile": [
            "http://hl7.org/fhir/StructureDefinition/vitalsigns"
          ]
        },
        "category": [
          {
            "coding": [
              {
                "system": "http://terminology.hl7.org/CodeSystem/observation-category",
                "code": "vital-signs",
                "display": "Vital Signs"
              }
            ]
          }
        ],
        "valueQuantity": {
          "value": 81.1,
          "code": "kg",
          "unit": "kg"
        },
        "text": {
          "status": "generated",
          "div": "<div xmlns=\"http://www.w3.org/1999/xhtml\"><table class=\"hl7__ips\"><tr><th>Vital Sign</th><th>Date</th><th>Measurement</th></tr><tr><td>Body Weight</td><td>01-Mar-2024</td><td>81.1 kg</td></tr></table></div>"
        },
        "status": "final",
        "code": {
          "coding": [
            {
              "code": "$29463-7",
              "system": "http://loinc.org",
              "display": "Body Weight"
            }
          ]
        },
        "subject": {
          "reference": "urn:uuid:60c14abf-189a-47e5-9994-d1ace7628e7b",
          "display": "Lydia Ward"
        },
        "effectiveDateTime": "2024-03-01"
      }
    },
    {
      "fullUrl": "urn:uuid:38b4ee15-9626-4662-955d-fb8cdd3f12d6",
      "resource": {
        "resourceType": "Observation",
        "id": "38b4ee15-9626-4662-955d-fb8cdd3f12d6",
        "meta": {
          "profile": [
            "http://hl7.org/fhir/StructureDefinition/vitalsigns"
          ]
        },
        "category": [
          {
            "coding": [
              {
                "system": "http://terminology.hl7.org/CodeSystem/observation-category",
                "code": "vital-signs",
                "display": "Vital Signs"
              }
            ]
          }
        ],
        "valueQuantity": {
          "value": 28.1,
          "code": "kg/m2",
          "unit": "kg/m2"
        },
        "text": {
          "status": "generated",
          "div": "<div xmlns=\"http://www.w3.org/1999/xhtml\"><table class=\"hl7__ips\"><tr><th>Vital Sign</th><th>Date</th><th>Measurement</th></tr><tr><td>Body mass index (BMI) [Ratio]</td><td>01-Mar-2024</td><td>28.1 kg/m2</td></tr></table></div>"
        },
        "status": "final",
        "code": {
          "coding": [
            {
              "code": "$39156-5",
              "system": "http://loinc.org",
              "display": "Body mass index (BMI) [Ratio]"
            }
          ]
        },
        "subject": {
          "reference": "urn:uuid:60c14abf-189a-47e5-9994-d1ace7628e7b",
          "display": "Lydia Ward"
        },
        "effectiveDateTime": "2024-03-01"
      }
    },
    {
      "fullUrl": "urn:uuid:55184e81-29c0-4d18-96fa-11752e38734a",
      "resource": {
        "resourceType": "Observation",
        "id": "55184e81-29c0-4d18-96fa-11752e38734a",
        "meta": {
          "profile": [
            "http://hl7.org/fhir/StructureDefinition/vitalsigns"
          ]
        },
        "category": [
          {
            "coding": [
              {
                "system": "http://terminology.hl7.org/CodeSystem/observation-category",
                "code": "vital-signs",
                "display": "Vital Signs"
              }
            ]
          }
        ],
        "valueQuantity": {
          "value": 73,
          "code": "mm[Hg]",
          "unit": "mm[Hg]"
        },
        "text": {
          "status": "generated",
          "div": "<div xmlns=\"http://www.w3.org/1999/xhtml\"><table class=\"hl7__ips\"><tr><th>Vital Sign</th><th>Date</th><th>Measurement</th></tr><tr><td>Diastolic Blood Pressure</td><td>01-Mar-2024</td><td>73 mm[Hg]</td></tr></table></div>"
        },
        "status": "final",
        "code": {
          "coding": [
            {
              "code": "$8462-4",
              "system": "http://loinc.org",
              "display": "Diastolic Blood Pressure"
            }
          ]
        },
        "subject": {
          "reference": "urn:uuid:60c14abf-189a-47e5-9994-d1ace7628e7b",
          "display": "Lydia Ward"
        },
        "effectiveDateTime": "2024-03-01"
      }
    },
    {
      "fullUrl": "urn:uuid:b946186b-509d-422f-8f6a-27aff788fce0",
      "resource": {
        "resourceType": "Observation",
        "id": "b946186b-509d-422f-8f6a-27aff788fce0",
        "meta": {
          "profile": [
            "http://hl7.org/fhir/StructureDefinition/vitalsigns"
          ]
        },
        "category": [
          {
            "coding": [
              {
                "system": "http://terminology.hl7.org/CodeSystem/observation-category",
                "code": "vital-signs",
                "display": "Vital Signs"
              }
            ]
          }
        ],
        "valueQuantity": {
          "value": 98,
          "code": "mm[Hg]",
          "unit": "mm[Hg]"
        },
        "text": {
          "status": "generated",
          "div": "<div xmlns=\"http://www.w3.org/1999/xhtml\"><table class=\"hl7__ips\"><tr><th>Vital Sign</th><th>Date</th><th>Measurement</th></tr><tr><td>Systolic Blood Pressure</td><td>01-Mar-2024</td><td>98 mm[Hg]</td></tr></table></div>"
        },
        "status": "final",
        "code": {
          "coding": [
            {
              "code": "$8480-6",
              "system": "http://loinc.org",
              "display": "Systolic Blood Pressure"
            }
          ]
        },
        "subject": {
          "reference": "urn:uuid:60c14abf-189a-47e5-9994-d1ace7628e7b",
          "display": "Lydia Ward"
        },
        "effectiveDateTime": "2024-03-01"
      }
    },
    {
      "fullUrl": "urn:uuid:a9cda595-1d79-42ae-a6d1-c355b6d932f9",
      "resource": {
        "resourceType": "Observation",
        "id": "a9cda595-1d79-42ae-a6d1-c355b6d932f9",
        "meta": {
          "profile": [
            "http://hl7.org/fhir/StructureDefinition/vitalsigns"
          ]
        },
        "category": [
          {
            "coding": [
              {
                "system": "http://terminology.hl7.org/CodeSystem/observation-category",
                "code": "vital-signs",
                "display": "Vital Signs"
              }
            ]
          }
        ],
        "valueQuantity": {
          "value": 87,
          "code": "/min",
          "unit": "/min"
        },
        "text": {
          "status": "generated",
          "div": "<div xmlns=\"http://www.w3.org/1999/xhtml\"><table class=\"hl7__ips\"><tr><th>Vital Sign</th><th>Date</th><th>Measurement</th></tr><tr><td>Heart rate</td><td>01-Mar-2024</td><td>87 /min</td></tr></table></div>"
        },
        "status": "final",
        "code": {
          "coding": [
            {
              "code": "$8867-4",
              "system": "http://loinc.org",
              "display": "Heart rate"
            }
          ]
        },
        "subject": {
          "reference": "urn:uuid:60c14abf-189a-47e5-9994-d1ace7628e7b",
          "display": "Lydia Ward"
        },
        "effectiveDateTime": "2024-03-01"
      }
    },
    {
      "fullUrl": "urn:uuid:a0ac22f3-45a2-4b4b-907e-9aa0fd998589",
      "resource": {
        "resourceType": "Observation",
        "id": "a0ac22f3-45a2-4b4b-907e-9aa0fd998589",
        "meta": {
          "profile": [
            "http://hl7.org/fhir/StructureDefinition/vitalsigns"
          ]
        },
        "category": [
          {
            "coding": [
              {
                "system": "http://terminology.hl7.org/CodeSystem/observation-category",
                "code": "vital-signs",
                "display": "Vital Signs"
              }
            ]
          }
        ],
        "valueQuantity": {
          "value": 13,
          "code": "/min",
          "unit": "/min"
        },
        "text": {
          "status": "generated",
          "div": "<div xmlns=\"http://www.w3.org/1999/xhtml\"><table class=\"hl7__ips\"><tr><th>Vital Sign</th><th>Date</th><th>Measurement</th></tr><tr><td>Respiratory rate</td><td>01-Mar-2024</td><td>13 /min</td></tr></table></div>"
        },
        "status": "final",
        "code": {
          "coding": [
            {
              "code": "$9279-1",
              "system": "http://loinc.org",
              "display": "Respiratory rate"
            }
          ]
        },
        "subject": {
          "reference": "urn:uuid:60c14abf-189a-47e5-9994-d1ace7628e7b",
          "display": "Lydia Ward"
        },
        "effectiveDateTime": "2024-03-01"
      }
    },
    {
      "fullUrl": "urn:uuid:7feef3b3-c580-4e78-9f65-1aed7e2d7321",
      "resource": {
        "resourceType": "Observation",
        "id": "7feef3b3-c580-4e78-9f65-1aed7e2d7321",
        "meta": {
          "profile": [
            "http://hl7.eu/fhir/laboratory/StructureDefinition/Observation-resultslab-eu-lab"
          ]
        },
        "performer": [
          {
            "display": "The Central European Lab"
          }
        ],
        "category": [
          {
            "coding": [
              {
                "system": "http://terminology.hl7.org/CodeSystem/observation-category",
                "code": "laboratory"
              }
            ]
          }
        ],
        "code": {
          "coding": [
            {
              "code": "4548-4",
              "system": "http://loinc.org",
              "display": "Hemoglobin A1c/Hemoglobin.total in Blood"
            }
          ],
          "text": "Hemoglobin A1c/Hemoglobin.total in Blood"
        },
        "valueQuantity": {
          "system": "http://unitsofmeasure.org",
          "value": 6.3,
          "unit": "%",
          "code": "%"
        },
        "referenceRange": [
          {
            "low": {
              "value": 4,
              "code": "%",
              "system": "http://unitsofmeasure.org"
            }
          },
          {
            "high": {
              "value": 6,
              "code": "%",
              "system": "http://unitsofmeasure.org"
            }
          }
        ],
        "interpretation": [
          {
            "coding": [
              {
                "code": "H",
                "system": "http://terminology.hl7.org/CodeSystem/v3-ObservationInterpretation",
                "display": "High"
              }
            ]
          }
        ],
        "text": {
          "status": "generated",
          "div": "<div xmlns=\"http://www.w3.org/1999/xhtml\"><table class=\"hl7__eu__lab__report\"><tr><th>Test</th><th>08-Mar-2025</th><th>Reference&#xA0;Range</th><th>Unit</th></tr><tr><td>Hemoglobin A1c/Hemoglobin.total in Blood</td><td>6.3</td><td>4 - 6</td><td>H</td><td>%</td></tr></table></div>"
        },
        "status": "final",
        "subject": {
          "reference": "urn:uuid:60c14abf-189a-47e5-9994-d1ace7628e7b",
          "display": "Lydia Ward"
        },
        "effectiveDateTime": "2025-03-07T23:08:09Z"
      }
    },
    {
      "fullUrl": "urn:uuid:24e9ef51-5b23-4f7c-b7c2-0d72d600892b",
      "resource": {
        "resourceType": "Observation",
        "id": "24e9ef51-5b23-4f7c-b7c2-0d72d600892b",
        "meta": {
          "profile": [
            "http://hl7.eu/fhir/laboratory/StructureDefinition/Observation-resultslab-eu-lab"
          ]
        },
        "performer": [
          {
            "display": "The Central European Lab"
          }
        ],
        "category": [
          {
            "coding": [
              {
                "system": "http://terminology.hl7.org/CodeSystem/observation-category",
                "code": "laboratory"
              }
            ]
          }
        ],
        "code": {
          "coding": [
            {
              "code": "2339-0",
              "system": "http://loinc.org",
              "display": "Glucose [Mass/volume] in Blood"
            }
          ],
          "text": "Glucose [Mass/volume] in Blood"
        },
        "valueQuantity": {
          "system": "http://unitsofmeasure.org",
          "value": 88.9,
          "unit": "mg/dL",
          "code": "mg/dL"
        },
        "referenceRange": [
          {
            "low": {
              "value": 70,
              "code": "mg/dL",
              "system": "http://unitsofmeasure.org"
            }
          },
          {
            "high": {
              "value": 140,
              "code": "mg/dL",
              "system": "http://unitsofmeasure.org"
            }
          }
        ],
        "text": {
          "status": "generated",
          "div": "<div xmlns=\"http://www.w3.org/1999/xhtml\"><table class=\"hl7__eu__lab__report\"><tr><th>Test</th><th>08-Mar-2025</th><th>Reference&#xA0;Range</th><th>Unit</th></tr><tr><td>Glucose [Mass/volume] in Blood</td><td>88.9</td><td>70 - 140</td><td></td><td>mg/dL</td></tr></table></div>"
        },
        "status": "final",
        "subject": {
          "reference": "urn:uuid:60c14abf-189a-47e5-9994-d1ace7628e7b",
          "display": "Lydia Ward"
        },
        "effectiveDateTime": "2025-03-07T23:08:09Z"
      }
    },
    {
      "fullUrl": "urn:uuid:2c7ee109-8689-41c3-a18d-ebb3ea516668",
      "resource": {
        "resourceType": "Observation",
        "id": "2c7ee109-8689-41c3-a18d-ebb3ea516668",
        "meta": {
          "profile": [
            "http://hl7.eu/fhir/laboratory/StructureDefinition/Observation-resultslab-eu-lab"
          ]
        },
        "performer": [
          {
            "display": "The Central European Lab"
          }
        ],
        "category": [
          {
            "coding": [
              {
                "system": "http://terminology.hl7.org/CodeSystem/observation-category",
                "code": "laboratory"
              }
            ]
          }
        ],
        "code": {
          "coding": [
            {
              "code": "6299-2",
              "system": "http://loinc.org",
              "display": "Urea nitrogen [Mass/volume] in Blood"
            }
          ],
          "text": "Urea nitrogen [Mass/volume] in Blood"
        },
        "valueQuantity": {
          "system": "http://unitsofmeasure.org",
          "value": 13.4,
          "unit": "mg/dL",
          "code": "mg/dL"
        },
        "referenceRange": [
          {
            "low": {
              "value": 7,
              "code": "mg/dL",
              "system": "http://unitsofmeasure.org"
            }
          },
          {
            "high": {
              "value": 45,
              "code": "mg/dL",
              "system": "http://unitsofmeasure.org"
            }
          }
        ],
        "text": {
          "status": "generated",
          "div": "<div xmlns=\"http://www.w3.org/1999/xhtml\"><table class=\"hl7__eu__lab__report\"><tr><th>Test</th><th>08-Mar-2025</th><th>Reference&#xA0;Range</th><th>Unit</th></tr><tr><td>Urea nitrogen [Mass/volume] in Blood</td><td>13.4</td><td>7 - 45</td><td></td><td>mg/dL</td></tr></table></div>"
        },
        "status": "final",
        "subject": {
          "reference": "urn:uuid:60c14abf-189a-47e5-9994-d1ace7628e7b",
          "display": "Lydia Ward"
        },
        "effectiveDateTime": "2025-03-07T23:08:09Z"
      }
    },
    {
      "fullUrl": "urn:uuid:57de00d6-a7f1-46d4-a498-6a44d6a5079f",
      "resource": {
        "resourceType": "Observation",
        "id": "57de00d6-a7f1-46d4-a498-6a44d6a5079f",
        "meta": {
          "profile": [
            "http://hl7.eu/fhir/laboratory/StructureDefinition/Observation-resultslab-eu-lab"
          ]
        },
        "performer": [
          {
            "display": "The Central European Lab"
          }
        ],
        "category": [
          {
            "coding": [
              {
                "system": "http://terminology.hl7.org/CodeSystem/observation-category",
                "code": "laboratory"
              }
            ]
          }
        ],
        "code": {
          "coding": [
            {
              "code": "38483-4",
              "system": "http://loinc.org",
              "display": "Creatinine [Mass/volume] in Blood"
            }
          ],
          "text": "Creatinine [Mass/volume] in Blood"
        },
        "valueQuantity": {
          "system": "http://unitsofmeasure.org",
          "value": 0.8,
          "unit": "mg/dL",
          "code": "mg/dL"
        },
        "referenceRange": [
          {
            "low": {
              "value": 0.6,
              "code": "mg/dL",
              "system": "http://unitsofmeasure.org"
            }
          },
          {
            "high": {
              "value": 1.1,
              "code": "mg/dL",
              "system": "http://unitsofmeasure.org"
            }
          }
        ],
        "text": {
          "status": "generated",
          "div": "<div xmlns=\"http://www.w3.org/1999/xhtml\"><table class=\"hl7__eu__lab__report\"><tr><th>Test</th><th>08-Mar-2025</th><th>Reference&#xA0;Range</th><th>Unit</th></tr><tr><td>Creatinine [Mass/volume] in Blood</td><td>0.8</td><td>0.6 - 1.1</td><td></td><td>mg/dL</td></tr></table></div>"
        },
        "status": "final",
        "subject": {
          "reference": "urn:uuid:60c14abf-189a-47e5-9994-d1ace7628e7b",
          "display": "Lydia Ward"
        },
        "effectiveDateTime": "2025-03-07T23:08:09Z"
      }
    },
    {
      "fullUrl": "urn:uuid:29cce62c-3581-4c6f-84b2-ab37f17414a2",
      "resource": {
        "resourceType": "Observation",
        "id": "29cce62c-3581-4c6f-84b2-ab37f17414a2",
        "meta": {
          "profile": [
            "http://hl7.eu/fhir/laboratory/StructureDefinition/Observation-resultslab-eu-lab"
          ]
        },
        "performer": [
          {
            "display": "The Central European Lab"
          }
        ],
        "category": [
          {
            "coding": [
              {
                "system": "http://terminology.hl7.org/CodeSystem/observation-category",
                "code": "laboratory"
              }
            ]
          }
        ],
        "code": {
          "coding": [
            {
              "code": "49765-1",
              "system": "http://loinc.org",
              "display": "Calcium [Mass/volume] in Blood"
            }
          ],
          "text": "Calcium [Mass/volume] in Blood"
        },
        "valueQuantity": {
          "system": "http://unitsofmeasure.org",
          "value": 10,
          "unit": "mg/dL",
          "code": "mg/dL"
        },
        "referenceRange": [
          {
            "low": {
              "value": 8.5,
              "code": "mg/dL",
              "system": "http://unitsofmeasure.org"
            }
          },
          {
            "high": {
              "value": 10.5,
              "code": "mg/dL",
              "system": "http://unitsofmeasure.org"
            }
          }
        ],
        "text": {
          "status": "generated",
          "div": "<div xmlns=\"http://www.w3.org/1999/xhtml\"><table class=\"hl7__eu__lab__report\"><tr><th>Test</th><th>08-Mar-2025</th><th>Reference&#xA0;Range</th><th>Unit</th></tr><tr><td>Calcium [Mass/volume] in Blood</td><td>10.0</td><td>8.5 - 10.5</td><td></td><td>mg/dL</td></tr></table></div>"
        },
        "status": "final",
        "subject": {
          "reference": "urn:uuid:60c14abf-189a-47e5-9994-d1ace7628e7b",
          "display": "Lydia Ward"
        },
        "effectiveDateTime": "2025-03-07T23:08:09Z"
      }
    },
    {
      "fullUrl": "urn:uuid:e3e09cdd-9d2b-41e8-bbdb-b4796fc46743",
      "resource": {
        "resourceType": "Observation",
        "id": "e3e09cdd-9d2b-41e8-bbdb-b4796fc46743",
        "meta": {
          "profile": [
            "http://hl7.eu/fhir/laboratory/StructureDefinition/Observation-resultslab-eu-lab"
          ]
        },
        "performer": [
          {
            "display": "The Central European Lab"
          }
        ],
        "category": [
          {
            "coding": [
              {
                "system": "http://terminology.hl7.org/CodeSystem/observation-category",
                "code": "laboratory"
              }
            ]
          }
        ],
        "code": {
          "coding": [
            {
              "code": "2947-0",
              "system": "http://loinc.org",
              "display": "Sodium [Moles/volume] in Blood"
            }
          ],
          "text": "Sodium [Moles/volume] in Blood"
        },
        "valueQuantity": {
          "system": "http://unitsofmeasure.org",
          "value": 141,
          "unit": "mmol/L",
          "code": "mmol/L"
        },
        "referenceRange": [
          {
            "low": {
              "value": 135,
              "code": "mmol/L",
              "system": "http://unitsofmeasure.org"
            }
          },
          {
            "high": {
              "value": 145,
              "code": "mmol/L",
              "system": "http://unitsofmeasure.org"
            }
          }
        ],
        "text": {
          "status": "generated",
          "div": "<div xmlns=\"http://www.w3.org/1999/xhtml\"><table class=\"hl7__eu__lab__report\"><tr><th>Test</th><th>08-Mar-2025</th><th>Reference&#xA0;Range</th><th>Unit</th></tr><tr><td>Sodium [Moles/volume] in Blood</td><td>141.0</td><td>135 - 145</td><td></td><td>mmol/L</td></tr></table></div>"
        },
        "status": "final",
        "subject": {
          "reference": "urn:uuid:60c14abf-189a-47e5-9994-d1ace7628e7b",
          "display": "Lydia Ward"
        },
        "effectiveDateTime": "2025-03-07T23:08:09Z"
      }
    },
    {
      "fullUrl": "urn:uuid:99c45750-8e43-4abb-9bac-c4b3b421b977",
      "resource": {
        "resourceType": "Observation",
        "id": "99c45750-8e43-4abb-9bac-c4b3b421b977",
        "meta": {
          "profile": [
            "http://hl7.eu/fhir/laboratory/StructureDefinition/Observation-resultslab-eu-lab"
          ]
        },
        "performer": [
          {
            "display": "The Central European Lab"
          }
        ],
        "category": [
          {
            "coding": [
              {
                "system": "http://terminology.hl7.org/CodeSystem/observation-category",
                "code": "laboratory"
              }
            ]
          }
        ],
        "code": {
          "coding": [
            {
              "code": "6298-4",
              "system": "http://loinc.org",
              "display": "Potassium [Moles/volume] in Blood"
            }
          ],
          "text": "Potassium [Moles/volume] in Blood"
        },
        "valueQuantity": {
          "system": "http://unitsofmeasure.org",
          "value": 3.8,
          "unit": "mmol/L",
          "code": "mmol/L"
        },
        "referenceRange": [
          {
            "low": {
              "value": 3.5,
              "code": "mmol/L",
              "system": "http://unitsofmeasure.org"
            }
          },
          {
            "high": {
              "value": 5.1,
              "code": "mmol/L",
              "system": "http://unitsofmeasure.org"
            }
          }
        ],
        "text": {
          "status": "generated",
          "div": "<div xmlns=\"http://www.w3.org/1999/xhtml\"><table class=\"hl7__eu__lab__report\"><tr><th>Test</th><th>08-Mar-2025</th><th>Reference&#xA0;Range</th><th>Unit</th></tr><tr><td>Potassium [Moles/volume] in Blood</td><td>3.8</td><td>3.5 - 5.1</td><td></td><td>mmol/L</td></tr></table></div>"
        },
        "status": "final",
        "subject": {
          "reference": "urn:uuid:60c14abf-189a-47e5-9994-d1ace7628e7b",
          "display": "Lydia Ward"
        },
        "effectiveDateTime": "2025-03-07T23:08:09Z"
      }
    },
    {
      "fullUrl": "urn:uuid:bcc8cdf0-1921-4637-99d1-7327c165e4d2",
      "resource": {
        "resourceType": "Observation",
        "id": "bcc8cdf0-1921-4637-99d1-7327c165e4d2",
        "meta": {
          "profile": [
            "http://hl7.eu/fhir/laboratory/StructureDefinition/Observation-resultslab-eu-lab"
          ]
        },
        "performer": [
          {
            "display": "The Central European Lab"
          }
        ],
        "category": [
          {
            "coding": [
              {
                "system": "http://terminology.hl7.org/CodeSystem/observation-category",
                "code": "laboratory"
              }
            ]
          }
        ],
        "code": {
          "coding": [
            {
              "code": "2069-3",
              "system": "http://loinc.org",
              "display": "Chloride [Moles/volume] in Blood"
            }
          ],
          "text": "Chloride [Moles/volume] in Blood"
        },
        "valueQuantity": {
          "system": "http://unitsofmeasure.org",
          "value": 102.5,
          "unit": "mmol/L",
          "code": "mmol/L"
        },
        "referenceRange": [
          {
            "low": {
              "value": 98,
              "code": "mmol/L",
              "system": "http://unitsofmeasure.org"
            }
          },
          {
            "high": {
              "value": 107,
              "code": "mmol/L",
              "system": "http://unitsofmeasure.org"
            }
          }
        ],
        "text": {
          "status": "generated",
          "div": "<div xmlns=\"http://www.w3.org/1999/xhtml\"><table class=\"hl7__eu__lab__report\"><tr><th>Test</th><th>08-Mar-2025</th><th>Reference&#xA0;Range</th><th>Unit</th></tr><tr><td>Chloride [Moles/volume] in Blood</td><td>102.5</td><td>98 - 107</td><td></td><td>mmol/L</td></tr></table></div>"
        },
        "status": "final",
        "subject": {
          "reference": "urn:uuid:60c14abf-189a-47e5-9994-d1ace7628e7b",
          "display": "Lydia Ward"
        },
        "effectiveDateTime": "2025-03-07T23:08:09Z"
      }
    },
    {
      "fullUrl": "urn:uuid:d8802995-b959-45f8-a1ad-06f724e9e636",
      "resource": {
        "resourceType": "Observation",
        "id": "d8802995-b959-45f8-a1ad-06f724e9e636",
        "meta": {
          "profile": [
            "http://hl7.eu/fhir/laboratory/StructureDefinition/Observation-resultslab-eu-lab"
          ]
        },
        "performer": [
          {
            "display": "The Central European Lab"
          }
        ],
        "category": [
          {
            "coding": [
              {
                "system": "http://terminology.hl7.org/CodeSystem/observation-category",
                "code": "laboratory"
              }
            ]
          }
        ],
        "code": {
          "coding": [
            {
              "code": "20565-8",
              "system": "http://loinc.org",
              "display": "Carbon dioxide, total [Moles/volume] in Blood"
            }
          ],
          "text": "Carbon dioxide, total [Moles/volume] in Blood"
        },
        "valueQuantity": {
          "system": "http://unitsofmeasure.org",
          "value": 22.8,
          "unit": "mmol/L",
          "code": "mmol/L"
        },
        "referenceRange": [
          {
            "low": {
              "value": 22,
              "code": "mmol/L",
              "system": "http://unitsofmeasure.org"
            }
          },
          {
            "high": {
              "value": 32,
              "code": "mmol/L",
              "system": "http://unitsofmeasure.org"
            }
          }
        ],
        "text": {
          "status": "generated",
          "div": "<div xmlns=\"http://www.w3.org/1999/xhtml\"><table class=\"hl7__eu__lab__report\"><tr><th>Test</th><th>08-Mar-2025</th><th>Reference&#xA0;Range</th><th>Unit</th></tr><tr><td>Carbon dioxide, total [Moles/volume] in Blood</td><td>22.8</td><td>22 - 32</td><td></td><td>mmol/L</td></tr></table></div>"
        },
        "status": "final",
        "subject": {
          "reference": "urn:uuid:60c14abf-189a-47e5-9994-d1ace7628e7b",
          "display": "Lydia Ward"
        },
        "effectiveDateTime": "2025-03-07T23:08:09Z"
      }
    },
    {
      "fullUrl": "urn:uuid:8c0502c7-c097-40ef-a1ae-f61635c62268",
      "resource": {
        "resourceType": "Observation",
        "id": "8c0502c7-c097-40ef-a1ae-f61635c62268",
        "meta": {
          "profile": [
            "http://hl7.eu/fhir/laboratory/StructureDefinition/Observation-resultslab-eu-lab"
          ]
        },
        "performer": [
          {
            "display": "The Central European Lab"
          }
        ],
        "category": [
          {
            "coding": [
              {
                "system": "http://terminology.hl7.org/CodeSystem/observation-category",
                "code": "laboratory"
              }
            ]
          }
        ],
        "code": {
          "coding": [
            {
              "code": "2093-3",
              "system": "http://loinc.org",
              "display": "Cholesterol [Mass/volume] in Serum or Plasma"
            }
          ],
          "text": "Cholesterol [Mass/volume] in Serum or Plasma"
        },
        "valueQuantity": {
          "system": "http://unitsofmeasure.org",
          "value": 184.5,
          "unit": "mg/dL",
          "code": "mg/dL"
        },
        "referenceRange": [
          {
            "low": {
              "value": 125,
              "code": "mg/dL",
              "system": "http://unitsofmeasure.org"
            }
          },
          {
            "high": {
              "value": 200,
              "code": "mg/dL",
              "system": "http://unitsofmeasure.org"
            }
          }
        ],
        "text": {
          "status": "generated",
          "div": "<div xmlns=\"http://www.w3.org/1999/xhtml\"><table class=\"hl7__eu__lab__report\"><tr><th>Test</th><th>08-Mar-2025</th><th>Reference&#xA0;Range</th><th>Unit</th></tr><tr><td>Cholesterol [Mass/volume] in Serum or Plasma</td><td>184.5</td><td>125 - 200</td><td></td><td>mg/dL</td></tr></table></div>"
        },
        "status": "final",
        "subject": {
          "reference": "urn:uuid:60c14abf-189a-47e5-9994-d1ace7628e7b",
          "display": "Lydia Ward"
        },
        "effectiveDateTime": "2025-03-07T23:08:09Z"
      }
    },
    {
      "fullUrl": "urn:uuid:97429114-7f54-4820-bc8f-7dcd183b2ea6",
      "resource": {
        "resourceType": "Observation",
        "id": "97429114-7f54-4820-bc8f-7dcd183b2ea6",
        "meta": {
          "profile": [
            "http://hl7.eu/fhir/laboratory/StructureDefinition/Observation-resultslab-eu-lab"
          ]
        },
        "performer": [
          {
            "display": "The Central European Lab"
          }
        ],
        "category": [
          {
            "coding": [
              {
                "system": "http://terminology.hl7.org/CodeSystem/observation-category",
                "code": "laboratory"
              }
            ]
          }
        ],
        "code": {
          "coding": [
            {
              "code": "2571-8",
              "system": "http://loinc.org",
              "display": "Triglyceride [Mass/volume] in Serum or Plasma"
            }
          ],
          "text": "Triglyceride [Mass/volume] in Serum or Plasma"
        },
        "valueQuantity": {
          "system": "http://unitsofmeasure.org",
          "value": 135.4,
          "unit": "mg/dL",
          "code": "mg/dL"
        },
        "referenceRange": [
          {
            "low": {
              "value": 0,
              "code": "mg/dL",
              "system": "http://unitsofmeasure.org"
            }
          },
          {
            "high": {
              "value": 150,
              "code": "mg/dL",
              "system": "http://unitsofmeasure.org"
            }
          }
        ],
        "text": {
          "status": "generated",
          "div": "<div xmlns=\"http://www.w3.org/1999/xhtml\"><table class=\"hl7__eu__lab__report\"><tr><th>Test</th><th>08-Mar-2025</th><th>Reference&#xA0;Range</th><th>Unit</th></tr><tr><td>Triglyceride [Mass/volume] in Serum or Plasma</td><td>135.4</td><td>0 - 150</td><td></td><td>mg/dL</td></tr></table></div>"
        },
        "status": "final",
        "subject": {
          "reference": "urn:uuid:60c14abf-189a-47e5-9994-d1ace7628e7b",
          "display": "Lydia Ward"
        },
        "effectiveDateTime": "2025-03-07T23:08:09Z"
      }
    },
    {
      "fullUrl": "urn:uuid:2fa297df-395c-4337-b84f-f973f2825b0e",
      "resource": {
        "resourceType": "Observation",
        "id": "2fa297df-395c-4337-b84f-f973f2825b0e",
        "meta": {
          "profile": [
            "http://hl7.eu/fhir/laboratory/StructureDefinition/Observation-resultslab-eu-lab"
          ]
        },
        "performer": [
          {
            "display": "The Central European Lab"
          }
        ],
        "category": [
          {
            "coding": [
              {
                "system": "http://terminology.hl7.org/CodeSystem/observation-category",
                "code": "laboratory"
              }
            ]
          }
        ],
        "code": {
          "coding": [
            {
              "code": "18262-6",
              "system": "http://loinc.org",
              "display": "Cholesterol in LDL [Mass/volume] in Serum or Plasma by Direct assay"
            }
          ],
          "text": "Cholesterol in LDL [Mass/volume] in Serum or Plasma by Direct assay"
        },
        "valueQuantity": {
          "system": "http://unitsofmeasure.org",
          "value": 98.3,
          "unit": "mg/dL",
          "code": "mg/dL"
        },
        "referenceRange": [
          {
            "low": {
              "value": 0,
              "code": "mg/dL",
              "system": "http://unitsofmeasure.org"
            }
          },
          {
            "high": {
              "value": 130,
              "code": "mg/dL",
              "system": "http://unitsofmeasure.org"
            }
          }
        ],
        "text": {
          "status": "generated",
          "div": "<div xmlns=\"http://www.w3.org/1999/xhtml\"><table class=\"hl7__eu__lab__report\"><tr><th>Test</th><th>08-Mar-2025</th><th>Reference&#xA0;Range</th><th>Unit</th></tr><tr><td>Cholesterol in LDL [Mass/volume] in Serum or Plasma by Direct assay</td><td>98.3</td><td>0 - 130</td><td></td><td>mg/dL</td></tr></table></div>"
        },
        "status": "final",
        "subject": {
          "reference": "urn:uuid:60c14abf-189a-47e5-9994-d1ace7628e7b",
          "display": "Lydia Ward"
        },
        "effectiveDateTime": "2025-03-07T23:08:09Z"
      }
    },
    {
      "fullUrl": "urn:uuid:0fb52124-db46-4b1a-b199-c4270a16f2be",
      "resource": {
        "resourceType": "Observation",
        "id": "0fb52124-db46-4b1a-b199-c4270a16f2be",
        "meta": {
          "profile": [
            "http://hl7.eu/fhir/laboratory/StructureDefinition/Observation-resultslab-eu-lab"
          ]
        },
        "performer": [
          {
            "display": "The Central European Lab"
          }
        ],
        "category": [
          {
            "coding": [
              {
                "system": "http://terminology.hl7.org/CodeSystem/observation-category",
                "code": "laboratory"
              }
            ]
          }
        ],
        "code": {
          "coding": [
            {
              "code": "2085-9",
              "system": "http://loinc.org",
              "display": "Cholesterol in HDL [Mass/volume] in Serum or Plasma"
            }
          ],
          "text": "Cholesterol in HDL [Mass/volume] in Serum or Plasma"
        },
        "valueQuantity": {
          "system": "http://unitsofmeasure.org",
          "value": 59.1,
          "unit": "mg/dL",
          "code": "mg/dL"
        },
        "referenceRange": [
          {
            "low": {
              "value": 40,
              "code": "mg/dL",
              "system": "http://unitsofmeasure.org"
            }
          },
          {
            "high": {
              "value": 60,
              "code": "mg/dL",
              "system": "http://unitsofmeasure.org"
            }
          }
        ],
        "text": {
          "status": "generated",
          "div": "<div xmlns=\"http://www.w3.org/1999/xhtml\"><table class=\"hl7__eu__lab__report\"><tr><th>Test</th><th>08-Mar-2025</th><th>Reference&#xA0;Range</th><th>Unit</th></tr><tr><td>Cholesterol in HDL [Mass/volume] in Serum or Plasma</td><td>59.1</td><td>40 - 60</td><td></td><td>mg/dL</td></tr></table></div>"
        },
        "status": "final",
        "subject": {
          "reference": "urn:uuid:60c14abf-189a-47e5-9994-d1ace7628e7b",
          "display": "Lydia Ward"
        },
        "effectiveDateTime": "2025-03-07T23:08:09Z"
      }
    },
    {
      "fullUrl": "urn:uuid:2d2b0946-e666-47bd-9a23-fce732a71eef",
      "resource": {
        "resourceType": "DeviceUseStatement",
        "id": "2d2b0946-e666-47bd-9a23-fce732a71eef",
        "meta": {
          "profile": [
            "http://hl7.eu/fhir/eps/StructureDefinition/deviceUseStatement-eu-eps"
          ]
        },
        "timingPeriod": {
          "start": "1988-03-18"
        },
        "text": {
          "status": "generated",
          "div": "<div xmlns=\"http://www.w3.org/1999/xhtml\"><table class=\"hl7__ips\"><tr><td>Blood glucose meter (physical object)</td><td><span class=\"nb\">18-Mar-1988</span></td></tr></table></div>"
        },
        "status": "active",
        "device": {
          "reference": "urn:uuid:41702beb-1f3a-4a01-ad8a-66010af89bae",
          "display": "Blood glucose meter (physical object)"
        },
        "subject": {
          "reference": "urn:uuid:60c14abf-189a-47e5-9994-d1ace7628e7b",
          "display": "Lydia Ward"
        }
      }
    },
    {
      "fullUrl": "urn:uuid:41702beb-1f3a-4a01-ad8a-66010af89bae",
      "resource": {
        "resourceType": "Device",
        "id": "41702beb-1f3a-4a01-ad8a-66010af89bae",
        "meta": {
          "profile": [
            "http://hl7.eu/fhir/eps/StructureDefinition/device-eu-eps"
          ]
        },
        "udiCarrier": [
          {
            "id": "(01)80707846720202(11)880227(17)130313(10)5686(21)58593"
          }
        ],
        "status": "active",
        "patient": {
          "reference": "urn:uuid:60c14abf-189a-47e5-9994-d1ace7628e7b",
          "display": "Lydia Ward"
        },
        "type": {
          "coding": [
            {
              "code": "337414009",
              "system": "http://snomed.info/sct",
              "display": "Blood glucose meter (physical object)"
            }
          ]
        }
      }
    },
    {
      "fullUrl": "urn:uuid:ff95a0de-ca61-45f1-b3e0-db6ad428e4eb",
      "resource": {
        "resourceType": "Device",
        "id": "ff95a0de-ca61-45f1-b3e0-db6ad428e4eb",
        "deviceName": [
          {
            "name": "SYNDERAI Synthetic Generator",
            "type": "manufacturer-name"
          }
        ],
        "version": [
          {
            "value": "5.0"
          }
        ],
        "text": {
          "status": "generated",
          "div": "<div xmlns=\"http://www.w3.org/1999/xhtml\">SYNDERAI Synthetic Generator v5.0</div>"
        },
        "status": "active\"",
        "distinctIdentifier": "synderai-generator-50",
        "manufacturer": "SYNDERAI Project"
      }
    },
    {
      "fullUrl": "urn:uuid:237dabaf-452c-4b37-ad8b-dcafc62e146c",
      "resource": {
        "resourceType": "Provenance",
        "id": "237dabaf-452c-4b37-ad8b-dcafc62e146c",
        "target": [
          {
            "reference": "Patient/60c14abf-189a-47e5-9994-d1ace7628e7b"
          },
          {
            "reference": "Bundle/b8ef03fa-c7f3-490d-bc70-d23ae46fac00"
          },
          {
            "reference": "Composition/f65eb54f-f946-441c-8eff-3a1c95037739"
          },
          {
            "reference": "PractitionerRole/5f230e88-ee41-431f-802f-d44ca35ec1b7"
          },
          {
            "reference": "Organization/317b686b-b18f-42dd-82f2-d5dc587af6ab"
          },
          {
            "reference": "Practitioner/c696889d-ccef-4e81-b03c-cbc580b98e82"
          }
        ],
        "activity": {
          "text": "Synthetic Example Data Generation"
        },
        "policy": [
          "https://synderai.net/synderai-synthetic-data-policy"
        ],
        "agent": [
          {
            "type": {
              "text": "author"
            },
            "who": {
              "reference": "Device/ff95a0de-ca61-45f1-b3e0-db6ad428e4eb"
            }
          }
        ],
        "reason": [
          {
            "text": "Interoperability Testing and Training (non-clinical use)"
          }
        ],
        "text": {
          "status": "generated",
          "div": "<div xmlns=\"http://www.w3.org/1999/xhtml\">Provenance for SYNDERAI Synthetic Example Data Resource</div>"
        },
        "recorded": "2025-03-07T23:08:09Z"
      }
    }
  ],
  "type": "document",
  "timestamp": "2025-03-07T23:08:09Z"
}
