<Bundle xmlns="http://hl7.org/fhir">
   <id value="b6309857-9df6-4408-b8e0-8f237a410f3b"/>
   <meta>
      <profile value="http://hl7.eu/fhir/eps/StructureDefinition/bundle-eu-eps"/>
   </meta>
   <identifier>
      <system value="urn:oid:2.16.840.1.113883.2.51.999"/>
      <value value="b95bcef2-b1ff-4365-bb0b-5894b79653eb"/>
      <assigner>
         <display value="HL7 Europe"/>
      </assigner>
   </identifier>
   <type value="document"/>
   <timestamp value="2025-04-20T09:58:49Z"/>
   <entry>
      <fullUrl value="urn:uuid:279b6d45-d66c-461f-96f9-142a6b864d43"/>
      <resource>
         <Composition>
            <id value="279b6d45-d66c-461f-96f9-142a6b864d43"/>
            <meta>
               <profile value="http://hl7.eu/fhir/eps/StructureDefinition/composition-eu-eps"/>
               <security>
                  <system value="http://terminology.hl7.org/CodeSystem/v3-ActReason"/>
                  <code value="HTEST"/>
               </security>
               <security>
                  <system value="http://terminology.hl7.org/CodeSystem/v3-ActReason"/>
                  <code value="TRAIN"/>
               </security>
               <tag>
                  <system value="https://synderai.net/fhir/CodeSystem/tags"/>
                  <code value="synthetic"/>
                  <display value="SYNDERAI Synthetic data"/>
               </tag>
            </meta>
            <identifier>
               <system value="urn:oid:2.16.840.1.113883.2.51.999"/>
               <value value="608bbc79-060c-42b1-8511-9ceac3c13a42"/>
               <assigner>
                  <display value="HL7 Europe"/>
               </assigner>
            </identifier>
            <status value="final"/>
            <type>
               <coding>
                  <system value="http://loinc.org"/>
                  <code value="60591-5"/>
                  <display value="Patient summary Document"/>
               </coding>
               <text value="Patient summary Document"/>
            </type>
            <subject>
               <reference value="urn:uuid:c5de0a53-e757-4182-9880-a8f6c0107ec4"/>
               <display value="Katy Johnston"/>
            </subject>
            <date value="2025-04-20"/>
            <author>
               <reference value="urn:uuid:c7ccb4e2-155f-439c-bed6-424c224a7558"/>
            </author>
            <title value="European Patient Summary"/>
            <confidentiality value="N"/>
            <custodian>
               <reference value="urn:uuid:3731d42f-3517-4d6a-8321-242174b28653"/>
            </custodian>
            <section>
               <title value="Problem list"/>
               <code>
                  <coding>
                     <system value="http://loinc.org"/>
                     <code value="11450-4"/>
                     <display value="Problem list - Reported"/>
                  </coding>
               </code>
               <text>
                  <status value="generated"/>
                  <div xmlns="http://www.w3.org/1999/xhtml">
                     <table class="hl7__ips">
                        <tr>
                           <th>Condition</th>
                           <th>Onset Date</th>
                           <th>Status</th>
                        </tr>
                        <tr>
                           <td>Laceration of hand</td>
                           <td>
                              <span class="nb">02-Jul-2025</span>
                           </td>
                           <td>active</td>
                        </tr>
                        <tr>
                           <td>Laceration - injury</td>
                           <td>
                              <span class="nb">02-Jul-2025</span>
                           </td>
                           <td>active</td>
                        </tr>
                        <tr>
                           <td>Prediabetes</td>
                           <td>
                              <span class="nb">17-Mar-2019</span>
                           </td>
                           <td>active</td>
                        </tr>
                        <tr>
                           <td>Anemia</td>
                           <td>
                              <span class="nb">17-Mar-2019</span>
                           </td>
                           <td>active</td>
                        </tr>
                        <tr>
                           <td>Fibromyalgia</td>
                           <td>
                              <span class="nb">04-Feb-2014</span>
                           </td>
                           <td>active</td>
                        </tr>
                        <tr>
                           <td>Dependent drug abuse</td>
                           <td>
                              <span class="nb">07-Aug-2005</span>
                           </td>
                           <td>active</td>
                        </tr>
                        <tr>
                           <td>Chronic intractable migraine without aura</td>
                           <td>
                              <span class="nb">27-Sep-2001</span>
                           </td>
                           <td>active</td>
                        </tr>
                        <tr>
                           <td>Impacted molars</td>
                           <td>
                              <span class="nb">21-Jun-2001</span>
                           </td>
                           <td>active</td>
                        </tr>
                     </table>
                  </div>
               </text>
               <entry>
                  <reference value="urn:uuid:2288df18-d2ea-456a-ad17-358b1449fe75"/>
               </entry>
               <entry>
                  <reference value="urn:uuid:67de4214-9132-4ff7-93e2-f11f8b02aeb6"/>
               </entry>
               <entry>
                  <reference value="urn:uuid:ba41c0b4-8c1b-41c3-a66b-ab3a8134a3c0"/>
               </entry>
               <entry>
                  <reference value="urn:uuid:1e7559a1-35be-4bcd-bf2f-61e79783eead"/>
               </entry>
               <entry>
                  <reference value="urn:uuid:8cc0153d-b12d-4763-b185-a66e70ff6838"/>
               </entry>
               <entry>
                  <reference value="urn:uuid:e5dc97f1-c7eb-4bdc-874d-b7e7e3f10b39"/>
               </entry>
               <entry>
                  <reference value="urn:uuid:cf20c34e-297c-4e70-9995-e14246bd850c"/>
               </entry>
               <entry>
                  <reference value="urn:uuid:34c3d07f-113d-4484-ad98-1612d0bf4e72"/>
               </entry>
            </section>
            <section>
               <title value="Medication list"/>
               <code>
                  <coding>
                     <system value="http://loinc.org"/>
                     <code value="10160-0"/>
                     <display value="History of Medication use Narrative"/>
                  </coding>
               </code>
               <text>
                  <status value="generated"/>
                  <div xmlns="http://www.w3.org/1999/xhtml">
                     <table class="hl7__ips">
                        <tr>
                           <th>Medication</th>
                           <th>Since</th>
                           <th>Form</th>
                           <th>Dosage</th>
                           <th>Reason</th>
                        </tr>
                        <tr>
                           <td>Acetaminophen 325 mg oral tablet</td>
                           <td>
                              <span class="nb">2025-07-02</span>
                           </td>
                           <td>-</td>
                           <td>1 tablet (325 mg) by mouth every 4 to 6 hours as needed for pain. Do not exceed 12 tablets (3900 mg) in 24 hours.</td>
                           <td>-</td>
                        </tr>
                        <tr>
                           <td>Acetaminophen 300 mg and hydrocodone bitartrate 5 mg oral tablet</td>
                           <td>
                              <span class="nb">2025-04-20</span>
                           </td>
                           <td>-</td>
                           <td>1 tablet (300 mg/5 mg) every 4 to 6 hours as needed for pain</td>
                           <td>-</td>
                        </tr>
                        <tr>
                           <td>Diphenhydramine hydrochloride 25 mg oral tablet</td>
                           <td>
                              <span class="nb">1988-04-02</span>
                           </td>
                           <td>-</td>
                           <td>1 tablet (25 mg) every 6 hours as needed</td>
                           <td>-</td>
                        </tr>
                        <tr>
                           <td>Epinephrine 1 mg/mL solution for injection</td>
                           <td>
                              <span class="nb">1988-04-02</span>
                           </td>
                           <td>-</td>
                           <td>0.3 mg (1 mg/mL) injected intramuscularly as needed for anaphylaxis</td>
                           <td>-</td>
                        </tr>
                     </table>
                  </div>
               </text>
               <entry>
                  <reference value="urn:uuid:193b9b2a-e17f-41c7-a7eb-d7b8e9d94778"/>
               </entry>
               <entry>
                  <reference value="urn:uuid:53982195-57c6-424a-9700-ac5c35f500c8"/>
               </entry>
               <entry>
                  <reference value="urn:uuid:688cf620-fb13-42fb-8b9c-2bb3a17da7de"/>
               </entry>
               <entry>
                  <reference value="urn:uuid:44582c4a-ef3c-4cc1-91ba-d64748ca42d4"/>
               </entry>
            </section>
            <section>
               <title value="Immunizations list"/>
               <code>
                  <coding>
                     <system value="http://loinc.org"/>
                     <code value="11369-6"/>
                     <display value="History of Immunization note"/>
                  </coding>
               </code>
               <text>
                  <status value="generated"/>
                  <div xmlns="http://www.w3.org/1999/xhtml">
                     <table class="hl7__ips">
                        <tr>
                           <th>Vaccine</th>
                           <th>Date</th>
                        </tr>
                        <tr>
                           <td>Influenza virus antigen only vaccine product</td>
                           <td>
                              <span class="nb">20-Apr-2025</span>
                           </td>
                        </tr>
                        <tr>
                           <td>SARS-CoV-2 mRNA vaccine</td>
                           <td>
                              <span class="nb">20-Jun-2021</span>
                           </td>
                        </tr>
                        <tr>
                           <td>Clostridium tetani toxoid antigen adsorbed only vaccine product</td>
                           <td>
                              <span class="nb">17-Mar-2019</span>
                           </td>
                        </tr>
                     </table>
                  </div>
               </text>
               <entry>
                  <reference value="urn:uuid:742bb9c4-fd0e-455d-904c-2da9b256138c"/>
               </entry>
               <entry>
                  <reference value="urn:uuid:03a52a5c-909e-4ace-b0e8-00d89979d36e"/>
               </entry>
               <entry>
                  <reference value="urn:uuid:b5433caa-47ed-4b7c-9a1a-5dcc6d61b96f"/>
               </entry>
            </section>
            <section>
               <title value="Procedure History list"/>
               <code>
                  <coding>
                     <system value="http://loinc.org"/>
                     <code value="47519-4"/>
                     <display value="History of Procedures Document"/>
                  </coding>
               </code>
               <text>
                  <status value="generated"/>
                  <div xmlns="http://www.w3.org/1999/xhtml">
                     <table class="hl7__ips">
                        <tr>
                           <th>Procedure</th>
                           <th>Date</th>
                           <th>Reason</th>
                        </tr>
                        <tr>
                           <td>Suture open wound</td>
                           <td>
                              <span class="nb">02-Jul-2025</span>
                           </td>
                           <td>Laceration of hand</td>
                        </tr>
                     </table>
                  </div>
               </text>
               <entry>
                  <reference value="urn:uuid:6cec2ab2-8ed1-4cb8-96ff-32881377dcb8"/>
               </entry>
            </section>
            <section>
               <title value="Allergies and Intolerances"/>
               <code>
                  <coding>
                     <system value="http://loinc.org"/>
                     <code value="48765-2"/>
                     <display value="Allergies and adverse reactions Document"/>
                  </coding>
               </code>
               <text>
                  <status value="generated"/>
                  <div xmlns="http://www.w3.org/1999/xhtml">
                     <table class="hl7__ips">
                        <tr>
                           <th>Allergy/Intolerance</th>
                           <th>Onset Date</th>
                           <th>Status</th>
                           <th>Type</th>
                           <th>Reaction</th>
                        </tr>
                        <tr>
                           <td>Mold</td>
                           <td>
                              <span class="nb">1988-04-02</span>
                           </td>
                           <td>active</td>
                           <td>environment</td>
                           <td/>
                        </tr>
                        <tr>
                           <td>Eggs (edible)</td>
                           <td>
                              <span class="nb">1988-04-02</span>
                           </td>
                           <td>active</td>
                           <td>food</td>
                           <td>Wheal (finding)</td>
                        </tr>
                        <tr>
                           <td>Allergy to substance</td>
                           <td>
                              <span class="nb">1988-04-02</span>
                           </td>
                           <td>active</td>
                           <td>environment</td>
                           <td/>
                        </tr>
                     </table>
                  </div>
               </text>
               <entry>
                  <reference value="urn:uuid:9a6a81c3-65ba-4631-aab9-4fc84daf960c"/>
               </entry>
               <entry>
                  <reference value="urn:uuid:2276fd6d-aec8-4e78-8f6c-896aee53021e"/>
               </entry>
               <entry>
                  <reference value="urn:uuid:95480281-82b6-4550-99ac-aa2ecdb549bf"/>
               </entry>
            </section>
            <section>
               <title value="Care Plan"/>
               <code>
                  <coding>
                     <system value="http://loinc.org"/>
                     <code value="18776-5"/>
                     <display value="Plan of care note"/>
                  </coding>
               </code>
               <text>
                  <status value="generated"/>
                  <div xmlns="http://www.w3.org/1999/xhtml">
                     <table class="hl7__ips">
                        <tr>
                           <th>Active Planned Care / Goals</th>
                           <th>Start Date</th>
                           <th>Reason</th>
                        </tr>
                        <tr>
                           <td>Wound care</td>
                           <td>
                              <span class="nb">02-Jul-2025</span>
                           </td>
                           <td>Laceration of hand</td>
                        </tr>
                        <tr>
                           <td>
                              <ul>
                                 <li>Achieve full epithelialization of the hand laceration without signs of infection.</li>
                                 <li>Reduce wound size to 0 cm by end of treatment.</li>
                                 <li>Maintain absence of clinical signs of infection throughout wound healing.</li>
                              </ul>
                           </td>
                           <td/>
                           <td/>
                        </tr>
                        <tr>
                           <td>Diabetes self management plan</td>
                           <td>
                              <span class="nb">17-Mar-2019</span>
                           </td>
                           <td>Prediabetes</td>
                        </tr>
                        <tr>
                           <td>
                              <ul>
                                 <li>Patient will implement and adhere to a diabetes self-management plan to reduce risk of progression to type 2 diabetes.</li>
                              </ul>
                           </td>
                           <td/>
                           <td/>
                        </tr>
                        <tr>
                           <td>Care plan</td>
                           <td>
                              <span class="nb">19-Jun-2013</span>
                           </td>
                           <td>-</td>
                        </tr>
                        <tr>
                           <td>Self-care interventions</td>
                           <td>
                              <span class="nb">15-Mar-1988</span>
                           </td>
                           <td>-</td>
                        </tr>
                     </table>
                  </div>
               </text>
               <entry>
                  <reference value="urn:uuid:934a9a91-b66a-4902-9d0e-8e9ef761d6f9"/>
               </entry>
               <entry>
                  <reference value="urn:uuid:c56382cf-40d2-418a-b212-3f40762bda88"/>
               </entry>
               <entry>
                  <reference value="urn:uuid:dcff0826-6b8e-40de-8f2d-10e4b388edce"/>
               </entry>
               <entry>
                  <reference value="urn:uuid:377b167c-e4b0-4470-a311-2c43dcd0fd6a"/>
               </entry>
            </section>
            <section>
               <title value="Vital Signs"/>
               <code>
                  <coding>
                     <system value="http://loinc.org"/>
                     <code value="8716-3"/>
                     <display value="Vital signs note"/>
                  </coding>
               </code>
               <text>
                  <status value="generated"/>
                  <div xmlns="http://www.w3.org/1999/xhtml">
                     <table class="hl7__ips">
                        <tr>
                           <th>Vital Signs</th>
                           <th>2025-04-20</th>
                           <th>2025-03-13</th>
                        </tr>
                        <tr>
                           <td>Body Height</td>
                           <td>156 cm</td>
                           <td>-</td>
                        </tr>
                        <tr>
                           <td>Pain severity - 0-10 verbal numeric rating [Score] - Reported</td>
                           <td>3 {score}</td>
                           <td>6 {score}</td>
                        </tr>
                        <tr>
                           <td>Body Weight</td>
                           <td>75.1 kg</td>
                           <td>-</td>
                        </tr>
                        <tr>
                           <td>Body mass index (BMI) [Ratio]</td>
                           <td>30.9 kg/m2</td>
                           <td>-</td>
                        </tr>
                        <tr>
                           <td>Diastolic Blood Pressure</td>
                           <td>72 mm[Hg]</td>
                           <td>-</td>
                        </tr>
                        <tr>
                           <td>Systolic Blood Pressure</td>
                           <td>129 mm[Hg]</td>
                           <td>-</td>
                        </tr>
                        <tr>
                           <td>Heart rate</td>
                           <td>88 /min</td>
                           <td>-</td>
                        </tr>
                        <tr>
                           <td>Respiratory rate</td>
                           <td>16 /min</td>
                           <td>-</td>
                        </tr>
                     </table>
                  </div>
               </text>
               <entry>
                  <reference value="urn:uuid:b52214b3-9d53-4e6e-a1cc-4f815ce84cca"/>
               </entry>
               <entry>
                  <reference value="urn:uuid:cb68cc73-a0e1-4961-9128-a72c4ddaea42"/>
               </entry>
               <entry>
                  <reference value="urn:uuid:e972ed30-0b22-496c-9596-308aa17cec60"/>
               </entry>
               <entry>
                  <reference value="urn:uuid:973a98c3-b61d-4c04-a87f-d18480658734"/>
               </entry>
               <entry>
                  <reference value="urn:uuid:9415b5a5-3689-40c6-ba3a-a42d5209e2b4"/>
               </entry>
               <entry>
                  <reference value="urn:uuid:b2d8c8f8-d45b-4116-bed7-f2efbb500125"/>
               </entry>
               <entry>
                  <reference value="urn:uuid:6af71ff5-652b-414d-ad05-4303e0a09fdb"/>
               </entry>
               <entry>
                  <reference value="urn:uuid:63d123a7-bb72-45de-ad10-1ebca27e15d7"/>
               </entry>
               <entry>
                  <reference value="urn:uuid:32d3ee42-a864-4d48-8ae7-b64dc41946ab"/>
               </entry>
            </section>
            <section>
               <title value="Relevant diagnostic tests/laboratory data"/>
               <code>
                  <coding>
                     <system value="http://loinc.org"/>
                     <code value="30954-2"/>
                     <display value="Relevant diagnostic tests/laboratory data note"/>
                  </coding>
               </code>
               <text>
                  <status value="generated"/>
                  <div xmlns="http://www.w3.org/1999/xhtml">
                     <table class="hl7__ips">
                        <table class="hl7__ips">
                           <thead>
                              <tr>
                                 <th>Recent Lab Observations</th>
                                 <th>20-APR-2025</th>
                                 <th>Reference Range</th>
                                 <th>Unit</th>
                              </tr>
                           </thead>
                           <tbody>
                              <tr>
                                 <td>Hemoglobin A1c/Hemoglobin.total in Blood</td>
                                 <td>
                                    <strong>6.0 H</strong>
                                 </td>
                                 <td>4.8 - 5.7</td>
                                 <td>%</td>
                              </tr>
                              <tr>
                                 <td>Glucose [Mass/volume] in Blood</td>
                                 <td>74.1</td>
                                 <td>70 - 140</td>
                                 <td>mg/dL</td>
                              </tr>
                              <tr>
                                 <td>Urea nitrogen [Mass/volume] in Blood</td>
                                 <td>10.1</td>
                                 <td>7 - 20</td>
                                 <td>mg/dL</td>
                              </tr>
                              <tr>
                                 <td>Creatinine [Mass/volume] in Blood</td>
                                 <td>0.9</td>
                                 <td>0.6 - 1.2</td>
                                 <td>mg/dL</td>
                              </tr>
                              <tr>
                                 <td>Calcium [Mass/volume] in Blood</td>
                                 <td>9.0</td>
                                 <td>8.5 - 10.4</td>
                                 <td>mg/dL</td>
                              </tr>
                              <tr>
                                 <td>Sodium [Moles/volume] in Blood</td>
                                 <td>138.6</td>
                                 <td>135 - 145</td>
                                 <td>mmol/L</td>
                              </tr>
                              <tr>
                                 <td>Potassium [Moles/volume] in Blood</td>
                                 <td>4.9</td>
                                 <td>3.5 - 5.1</td>
                                 <td>mmol/L</td>
                              </tr>
                              <tr>
                                 <td>Chloride [Moles/volume] in Blood</td>
                                 <td>106.5</td>
                                 <td>98 - 107</td>
                                 <td>mmol/L</td>
                              </tr>
                              <tr>
                                 <td>Carbon dioxide, total [Moles/volume] in Blood</td>
                                 <td>22.1</td>
                                 <td>22 - 29</td>
                                 <td>mmol/L</td>
                              </tr>
                              <tr>
                                 <td>Leukocytes [#/volume] in Blood by Automated count</td>
                                 <td>4.3</td>
                                 <td>3.4 - 10</td>
                                 <td>10*3/uL</td>
                              </tr>
                              <tr>
                                 <td>Erythrocytes [#/volume] in Blood by Automated count</td>
                                 <td>5.0</td>
                                 <td>4.5 - 5.2</td>
                                 <td>10*6/uL</td>
                              </tr>
                              <tr>
                                 <td>Hemoglobin [Mass/volume] in Blood</td>
                                 <td>
                                    <strong>17.3 H</strong>
                                 </td>
                                 <td>12 - 16</td>
                                 <td>g/dL</td>
                              </tr>
                              <tr>
                                 <td>Hematocrit [Volume Fraction] of Blood by Automated count</td>
                                 <td>
                                    <strong>47.3 H</strong>
                                 </td>
                                 <td>37 - 47</td>
                                 <td>%</td>
                              </tr>
                              <tr>
                                 <td>MCV [Entitic volume] by Automated count</td>
                                 <td>90.3</td>
                                 <td>82 - 98</td>
                                 <td>fL</td>
                              </tr>
                              <tr>
                                 <td>MCH [Entitic mass] by Automated count</td>
                                 <td>29.9</td>
                                 <td>27 - 33</td>
                                 <td>pg</td>
                              </tr>
                              <tr>
                                 <td>MCHC [Mass/volume] by Automated count</td>
                                 <td>34.5</td>
                                 <td>32 - 37</td>
                                 <td>g/dL</td>
                              </tr>
                              <tr>
                                 <td>Erythrocyte distribution width [Entitic volume] by Automated count</td>
                                 <td>39.4</td>
                                 <td>36 - 56</td>
                                 <td>fL</td>
                              </tr>
                              <tr>
                                 <td>Platelets [#/volume] in Blood by Automated count</td>
                                 <td>380.4</td>
                                 <td>150 - 450</td>
                                 <td>10*3/uL</td>
                              </tr>
                              <tr>
                                 <td>Platelet distribution width [Entitic volume] in Blood by Automated count</td>
                                 <td>
                                    <strong>199.4 H</strong>
                                 </td>
                                 <td>11.6 - 17.4</td>
                                 <td>fL</td>
                              </tr>
                              <tr>
                                 <td>Platelet mean volume [Entitic volume] in Blood by Automated count</td>
                                 <td>9.5</td>
                                 <td>9.4 - 14</td>
                                 <td>fL</td>
                              </tr>
                           </tbody>
                        </table>
                     </table>
                  </div>
               </text>
               <entry>
                  <reference value="urn:uuid:dfbf8ac5-ac9a-48b4-9b6d-2dca27af319c"/>
               </entry>
               <entry>
                  <reference value="urn:uuid:330a7112-570f-4467-baa2-2f61c3fc5495"/>
               </entry>
               <entry>
                  <reference value="urn:uuid:fd6305f5-519e-46fe-a112-8ccf1f6a6bee"/>
               </entry>
               <entry>
                  <reference value="urn:uuid:b1653089-71e6-43fe-987e-93559a78786c"/>
               </entry>
               <entry>
                  <reference value="urn:uuid:ab446dd0-dc41-4d0e-8b63-e326ac888ee4"/>
               </entry>
               <entry>
                  <reference value="urn:uuid:a7fff1ea-ab8c-4524-a5de-91db54f6d55b"/>
               </entry>
               <entry>
                  <reference value="urn:uuid:86b5a4f1-96fb-4e35-8fa4-e9786bfa7823"/>
               </entry>
               <entry>
                  <reference value="urn:uuid:92f7cfc8-388f-44c0-ae8c-fa4af6ad0a39"/>
               </entry>
               <entry>
                  <reference value="urn:uuid:bcbe7374-d2b5-476d-ba31-068a471675bc"/>
               </entry>
               <entry>
                  <reference value="urn:uuid:3531f361-a201-4514-8335-f33787807c60"/>
               </entry>
               <entry>
                  <reference value="urn:uuid:13b6df27-51ac-4b3c-bd63-182b1d7a1957"/>
               </entry>
               <entry>
                  <reference value="urn:uuid:e0439ce8-3513-488c-9fae-4695fd1ea87b"/>
               </entry>
               <entry>
                  <reference value="urn:uuid:1959ecfe-d8bc-4431-9b84-3a055a1338eb"/>
               </entry>
               <entry>
                  <reference value="urn:uuid:196a1e9f-7b95-4677-b606-ff38b88246c8"/>
               </entry>
               <entry>
                  <reference value="urn:uuid:00dc701d-01f3-4232-ae8d-bffb21ba61e1"/>
               </entry>
               <entry>
                  <reference value="urn:uuid:b3a2f799-0637-4975-864d-6fb838b546bb"/>
               </entry>
               <entry>
                  <reference value="urn:uuid:974bc04d-e85a-4611-aeb3-3f22e5f54839"/>
               </entry>
               <entry>
                  <reference value="urn:uuid:7f0c1435-a318-499b-9c82-737faf78b1d2"/>
               </entry>
               <entry>
                  <reference value="urn:uuid:ce3ea2d7-5ad7-49ce-a337-b60ad9137cd5"/>
               </entry>
               <entry>
                  <reference value="urn:uuid:5d31df16-0157-4887-b2d3-830e60f67d2a"/>
               </entry>
            </section>
            <section>
               <title value="Device Use"/>
               <code>
                  <coding>
                     <system value="http://loinc.org"/>
                     <code value="46264-8"/>
                     <display value="History of medical device use"/>
                  </coding>
               </code>
               <text>
                  <status value="generated"/>
                  <div xmlns="http://www.w3.org/1999/xhtml">
                     <table class="hl7__ips">
                        <tr>
                           <th>Device</th>
                           <th>Date (since)</th>
                        </tr>
                        <tr>
                           <td>Blood glucose meter (physical object)</td>
                           <td>
                              <span class="nb">17-Mar-2019</span>
                           </td>
                        </tr>
                     </table>
                  </div>
               </text>
               <entry>
                  <reference value="urn:uuid:46bc0702-574e-469f-8495-9f4168fafed6"/>
               </entry>
            </section>
         </Composition>
      </resource>
   </entry>
   <entry>
      <fullUrl value="urn:uuid:c5de0a53-e757-4182-9880-a8f6c0107ec4"/>
      <resource>
         <Patient>
            <id value="c5de0a53-e757-4182-9880-a8f6c0107ec4"/>
            <meta>
               <profile value="http://hl7.eu/fhir/eps/StructureDefinition/patient-eu-eps"/>
               <security>
                  <system value="http://terminology.hl7.org/CodeSystem/v3-ActReason"/>
                  <code value="HTEST"/>
               </security>
               <security>
                  <system value="http://terminology.hl7.org/CodeSystem/v3-ActReason"/>
                  <code value="TRAIN"/>
               </security>
               <tag>
                  <system value="https://synderai.net/fhir/CodeSystem/tags"/>
                  <code value="synthetic"/>
                  <display value="SYNDERAI Synthetic data"/>
               </tag>
            </meta>
            <text>
               <status value="generated"/>
               <div xmlns="http://www.w3.org/1999/xhtml">
                  <table class="hl7__ips">
                     <tr>
                        <td>Katy Johnston</td>
                        <td>female</td>
                        <td>19-Sep-1988</td>
                     </tr>
                  </table>
               </div>
            </text>
            <extension url="http://hl7.org/fhir/StructureDefinition/patient-nationality">
               <valueCodeableConcept>
                  <coding>
                     <system value="http://hl7.org/fhir/ValueSet/country"/>
                     <code value="GB"/>
                  </coding>
               </valueCodeableConcept>
            </extension>
            <identifier>
               <type>
                  <coding>
                     <system value="http://terminology.hl7.org/CodeSystem/v2-0203"/>
                     <code value="PT"/>
                  </coding>
               </type>
               <system value="http://ec.europa.eu/identifier/eci"/>
               <value value="1854-452946-6"/>
            </identifier>
            <identifier>
               <type>
                  <coding>
                     <system value="http://terminology.hl7.org/CodeSystem/v2-0203"/>
                     <code value="MR"/>
                  </coding>
               </type>
               <system value="http://local.setting.eu/identifier"/>
               <value value="f94741cf-8405-9657-1aec-b3bd1788b46e"/>
            </identifier>
            <name>
               <family value="Johnston"/>
            </name>
            <name>
               <given value="Katy"/>
            </name>
            <name>
               <text value="Katy Johnston"/>
            </name>
            <telecom>
               <system value="phone"/>
               <value value="+44808 1570256"/>
            </telecom>
            <gender value="female"/>
            <birthDate value="1988-09-19"/>
            <address>
               <use value="home"/>
               <type value="physical"/>
               <line value="Flat 16f"/>
               <line value="Stokes roads"/>
               <city value="London"/>
               <postalCode value="E1"/>
               <country value="United Kingdom"/>
            </address>
         </Patient>
      </resource>
   </entry>
   <entry>
      <fullUrl value="urn:uuid:c7ccb4e2-155f-439c-bed6-424c224a7558"/>
      <resource>
         <PractitionerRole>
            <id value="c7ccb4e2-155f-439c-bed6-424c224a7558"/>
            <meta>
               <profile value="http://hl7.eu/fhir/base/StructureDefinition/practitionerRole-eu"/>
            </meta>
            <text>
               <status value="generated"/>
               <div xmlns="http://www.w3.org/1999/xhtml">
                  <table class="hl7__ips">Provider Role Id c7ccb4e2-155f-439c-bed6-424c224a7558</table>
               </div>
            </text>
            <practitioner>
               <reference value="urn:uuid:90ba03e9-9322-48a2-a10b-fb41bc953d60"/>
            </practitioner>
            <organization>
               <reference value="urn:uuid:3731d42f-3517-4d6a-8321-242174b28653"/>
            </organization>
         </PractitionerRole>
      </resource>
   </entry>
   <entry>
      <fullUrl value="urn:uuid:90ba03e9-9322-48a2-a10b-fb41bc953d60"/>
      <resource>
         <Practitioner>
            <id value="90ba03e9-9322-48a2-a10b-fb41bc953d60"/>
            <meta>
               <profile value="http://hl7.eu/fhir/base/StructureDefinition/practitioner-eu"/>
            </meta>
            <text>
               <status value="generated"/>
               <div xmlns="http://www.w3.org/1999/xhtml">
                  <table class="hl7__ips">Dr. Hel Ping</table>
               </div>
            </text>
            <name>
               <family value="Ping"/>
               <given value="Hel"/>
               <prefix value="Dr."/>
            </name>
         </Practitioner>
      </resource>
   </entry>
   <entry>
      <fullUrl value="urn:uuid:3731d42f-3517-4d6a-8321-242174b28653"/>
      <resource>
         <Organization>
            <id value="3731d42f-3517-4d6a-8321-242174b28653"/>
            <meta>
               <profile value="http://hl7.eu/fhir/base/StructureDefinition/organization-eu"/>
            </meta>
            <text>
               <status value="generated"/>
               <div xmlns="http://www.w3.org/1999/xhtml">
                  <table class="hl7__ips">Evelina Children's Hospital</table>
               </div>
            </text>
            <identifier>
               <system value="urn:oid:2.16.840.1.113883.2.51.999"/>
               <value value="dde55131-19d9-45fe-ad10-246523c8df06"/>
               <assigner>
                  <display value="HL7 Europe"/>
               </assigner>
            </identifier>
            <name value="Evelina Children&amp;#039;s Hospital"/>
            <address>
               <city value="London"/>
               <postalCode value="SE1 7"/>
               <country value="United Kingdom"/>
            </address>
         </Organization>
      </resource>
   </entry>
   <entry>
      <fullUrl value="urn:uuid:2288df18-d2ea-456a-ad17-358b1449fe75"/>
      <resource>
         <Condition>
            <id value="2288df18-d2ea-456a-ad17-358b1449fe75"/>
            <meta>
               <profile value="http://hl7.org/fhir/uv/ips/StructureDefinition/Condition-uv-ips"/>
            </meta>
            <text>
               <status value="generated"/>
               <div xmlns="http://www.w3.org/1999/xhtml">
                  <table class="hl7__ips">
                     <tr>
                        <td>Laceration of hand</td>
                        <td>
                           <span class="nb">02-Jul-2025</span>
                        </td>
                        <td>active</td>
                     </tr>
                  </table>
               </div>
            </text>
            <category>
               <coding>
                  <system value="http://terminology.hl7.org/CodeSystem/condition-category"/>
                  <code value="problem-list-item"/>
                  <display value="Problem List Item"/>
               </coding>
            </category>
            <code>
               <coding>
                  <system value="http://snomed.info/sct"/>
                  <code value="284549007"/>
                  <display value="Laceration of hand (disorder)"/>
               </coding>
               <text value="Laceration of hand"/>
            </code>
            <subject>
               <reference value="urn:uuid:"/>
               <display value="Katy Johnston"/>
            </subject>
            <onsetDateTime value="2025-07-02"/>
            <asserter>
               <reference value="urn:uuid:"/>
               <display value="Evelina Children&amp;#039;s Hospital"/>
            </asserter>
         </Condition>
      </resource>
   </entry>
   <entry>
      <fullUrl value="urn:uuid:67de4214-9132-4ff7-93e2-f11f8b02aeb6"/>
      <resource>
         <Condition>
            <id value="67de4214-9132-4ff7-93e2-f11f8b02aeb6"/>
            <meta>
               <profile value="http://hl7.org/fhir/uv/ips/StructureDefinition/Condition-uv-ips"/>
            </meta>
            <text>
               <status value="generated"/>
               <div xmlns="http://www.w3.org/1999/xhtml">
                  <table class="hl7__ips">
                     <tr>
                        <td>Laceration - injury</td>
                        <td>
                           <span class="nb">02-Jul-2025</span>
                        </td>
                        <td>active</td>
                     </tr>
                  </table>
               </div>
            </text>
            <category>
               <coding>
                  <system value="http://terminology.hl7.org/CodeSystem/condition-category"/>
                  <code value="problem-list-item"/>
                  <display value="Problem List Item"/>
               </coding>
            </category>
            <code>
               <coding>
                  <system value="http://snomed.info/sct"/>
                  <code value="312608009"/>
                  <display value="Laceration - injury (disorder)"/>
               </coding>
               <text value="Laceration - injury"/>
            </code>
            <subject>
               <reference value="urn:uuid:"/>
               <display value="Katy Johnston"/>
            </subject>
            <onsetDateTime value="2025-07-02"/>
            <asserter>
               <reference value="urn:uuid:"/>
               <display value="Evelina Children&amp;#039;s Hospital"/>
            </asserter>
         </Condition>
      </resource>
   </entry>
   <entry>
      <fullUrl value="urn:uuid:ba41c0b4-8c1b-41c3-a66b-ab3a8134a3c0"/>
      <resource>
         <Condition>
            <id value="ba41c0b4-8c1b-41c3-a66b-ab3a8134a3c0"/>
            <meta>
               <profile value="http://hl7.org/fhir/uv/ips/StructureDefinition/Condition-uv-ips"/>
            </meta>
            <text>
               <status value="generated"/>
               <div xmlns="http://www.w3.org/1999/xhtml">
                  <table class="hl7__ips">
                     <tr>
                        <td>Prediabetes</td>
                        <td>
                           <span class="nb">17-Mar-2019</span>
                        </td>
                        <td>active</td>
                     </tr>
                  </table>
               </div>
            </text>
            <category>
               <coding>
                  <system value="http://terminology.hl7.org/CodeSystem/condition-category"/>
                  <code value="problem-list-item"/>
                  <display value="Problem List Item"/>
               </coding>
            </category>
            <code>
               <coding>
                  <system value="http://snomed.info/sct"/>
                  <code value="15777000"/>
                  <display value="Prediabetes (disorder)"/>
               </coding>
               <text value="Prediabetes"/>
            </code>
            <subject>
               <reference value="urn:uuid:"/>
               <display value="Katy Johnston"/>
            </subject>
            <onsetDateTime value="2019-03-17"/>
            <asserter>
               <reference value="urn:uuid:"/>
               <display value="Evelina Children&amp;#039;s Hospital"/>
            </asserter>
         </Condition>
      </resource>
   </entry>
   <entry>
      <fullUrl value="urn:uuid:1e7559a1-35be-4bcd-bf2f-61e79783eead"/>
      <resource>
         <Condition>
            <id value="1e7559a1-35be-4bcd-bf2f-61e79783eead"/>
            <meta>
               <profile value="http://hl7.org/fhir/uv/ips/StructureDefinition/Condition-uv-ips"/>
            </meta>
            <text>
               <status value="generated"/>
               <div xmlns="http://www.w3.org/1999/xhtml">
                  <table class="hl7__ips">
                     <tr>
                        <td>Anemia</td>
                        <td>
                           <span class="nb">17-Mar-2019</span>
                        </td>
                        <td>active</td>
                     </tr>
                  </table>
               </div>
            </text>
            <category>
               <coding>
                  <system value="http://terminology.hl7.org/CodeSystem/condition-category"/>
                  <code value="problem-list-item"/>
                  <display value="Problem List Item"/>
               </coding>
            </category>
            <code>
               <coding>
                  <system value="http://snomed.info/sct"/>
                  <code value="271737000"/>
                  <display value="Anemia (disorder)"/>
               </coding>
               <text value="Anemia"/>
            </code>
            <subject>
               <reference value="urn:uuid:"/>
               <display value="Katy Johnston"/>
            </subject>
            <onsetDateTime value="2019-03-17"/>
            <asserter>
               <reference value="urn:uuid:"/>
               <display value="Evelina Children&amp;#039;s Hospital"/>
            </asserter>
         </Condition>
      </resource>
   </entry>
   <entry>
      <fullUrl value="urn:uuid:8cc0153d-b12d-4763-b185-a66e70ff6838"/>
      <resource>
         <Condition>
            <id value="8cc0153d-b12d-4763-b185-a66e70ff6838"/>
            <meta>
               <profile value="http://hl7.org/fhir/uv/ips/StructureDefinition/Condition-uv-ips"/>
            </meta>
            <text>
               <status value="generated"/>
               <div xmlns="http://www.w3.org/1999/xhtml">
                  <table class="hl7__ips">
                     <tr>
                        <td>Fibromyalgia</td>
                        <td>
                           <span class="nb">04-Feb-2014</span>
                        </td>
                        <td>active</td>
                     </tr>
                  </table>
               </div>
            </text>
            <category>
               <coding>
                  <system value="http://terminology.hl7.org/CodeSystem/condition-category"/>
                  <code value="problem-list-item"/>
                  <display value="Problem List Item"/>
               </coding>
            </category>
            <code>
               <coding>
                  <system value="http://snomed.info/sct"/>
                  <code value="203082005"/>
                  <display value="Fibromyalgia (disorder)"/>
               </coding>
               <text value="Fibromyalgia"/>
            </code>
            <subject>
               <reference value="urn:uuid:"/>
               <display value="Katy Johnston"/>
            </subject>
            <onsetDateTime value="2014-02-04"/>
            <asserter>
               <reference value="urn:uuid:"/>
               <display value="Evelina Children&amp;#039;s Hospital"/>
            </asserter>
         </Condition>
      </resource>
   </entry>
   <entry>
      <fullUrl value="urn:uuid:e5dc97f1-c7eb-4bdc-874d-b7e7e3f10b39"/>
      <resource>
         <Condition>
            <id value="e5dc97f1-c7eb-4bdc-874d-b7e7e3f10b39"/>
            <meta>
               <profile value="http://hl7.org/fhir/uv/ips/StructureDefinition/Condition-uv-ips"/>
            </meta>
            <text>
               <status value="generated"/>
               <div xmlns="http://www.w3.org/1999/xhtml">
                  <table class="hl7__ips">
                     <tr>
                        <td>Dependent drug abuse</td>
                        <td>
                           <span class="nb">07-Aug-2005</span>
                        </td>
                        <td>active</td>
                     </tr>
                  </table>
               </div>
            </text>
            <category>
               <coding>
                  <system value="http://terminology.hl7.org/CodeSystem/condition-category"/>
                  <code value="problem-list-item"/>
                  <display value="Problem List Item"/>
               </coding>
            </category>
            <code>
               <coding>
                  <system value="http://snomed.info/sct"/>
                  <code value="6525002"/>
                  <display value="Dependent drug abuse (disorder)"/>
               </coding>
               <text value="Dependent drug abuse"/>
            </code>
            <subject>
               <reference value="urn:uuid:"/>
               <display value="Katy Johnston"/>
            </subject>
            <onsetDateTime value="2005-08-07"/>
            <asserter>
               <reference value="urn:uuid:"/>
               <display value="Evelina Children&amp;#039;s Hospital"/>
            </asserter>
         </Condition>
      </resource>
   </entry>
   <entry>
      <fullUrl value="urn:uuid:cf20c34e-297c-4e70-9995-e14246bd850c"/>
      <resource>
         <Condition>
            <id value="cf20c34e-297c-4e70-9995-e14246bd850c"/>
            <meta>
               <profile value="http://hl7.org/fhir/uv/ips/StructureDefinition/Condition-uv-ips"/>
            </meta>
            <text>
               <status value="generated"/>
               <div xmlns="http://www.w3.org/1999/xhtml">
                  <table class="hl7__ips">
                     <tr>
                        <td>Chronic intractable migraine without aura</td>
                        <td>
                           <span class="nb">27-Sep-2001</span>
                        </td>
                        <td>active</td>
                     </tr>
                  </table>
               </div>
            </text>
            <category>
               <coding>
                  <system value="http://terminology.hl7.org/CodeSystem/condition-category"/>
                  <code value="problem-list-item"/>
                  <display value="Problem List Item"/>
               </coding>
            </category>
            <code>
               <coding>
                  <system value="http://snomed.info/sct"/>
                  <code value="124171000119105"/>
                  <display value="Chronic intractable migraine without aura (disorder)"/>
               </coding>
               <text value="Chronic intractable migraine without aura"/>
            </code>
            <subject>
               <reference value="urn:uuid:"/>
               <display value="Katy Johnston"/>
            </subject>
            <onsetDateTime value="2001-09-27"/>
            <asserter>
               <reference value="urn:uuid:"/>
               <display value="Evelina Children&amp;#039;s Hospital"/>
            </asserter>
         </Condition>
      </resource>
   </entry>
   <entry>
      <fullUrl value="urn:uuid:34c3d07f-113d-4484-ad98-1612d0bf4e72"/>
      <resource>
         <Condition>
            <id value="34c3d07f-113d-4484-ad98-1612d0bf4e72"/>
            <meta>
               <profile value="http://hl7.org/fhir/uv/ips/StructureDefinition/Condition-uv-ips"/>
            </meta>
            <text>
               <status value="generated"/>
               <div xmlns="http://www.w3.org/1999/xhtml">
                  <table class="hl7__ips">
                     <tr>
                        <td>Impacted molars</td>
                        <td>
                           <span class="nb">21-Jun-2001</span>
                        </td>
                        <td>active</td>
                     </tr>
                  </table>
               </div>
            </text>
            <category>
               <coding>
                  <system value="http://terminology.hl7.org/CodeSystem/condition-category"/>
                  <code value="problem-list-item"/>
                  <display value="Problem List Item"/>
               </coding>
            </category>
            <code>
               <coding>
                  <system value="http://snomed.info/sct"/>
                  <code value="196416002"/>
                  <display value="Impacted molars (disorder)"/>
               </coding>
               <text value="Impacted molars"/>
            </code>
            <subject>
               <reference value="urn:uuid:"/>
               <display value="Katy Johnston"/>
            </subject>
            <onsetDateTime value="2001-06-21"/>
            <asserter>
               <reference value="urn:uuid:"/>
               <display value="Evelina Children&amp;#039;s Hospital"/>
            </asserter>
         </Condition>
      </resource>
   </entry>
   <entry>
      <fullUrl value="urn:uuid:967a436f-e69e-4f69-9a33-3892baade6ce"/>
      <resource>
         <Condition>
            <id value="967a436f-e69e-4f69-9a33-3892baade6ce"/>
            <meta>
               <profile value="http://hl7.org/fhir/uv/ips/StructureDefinition/Condition-uv-ips"/>
            </meta>
            <text>
               <status value="generated"/>
               <div xmlns="http://www.w3.org/1999/xhtml">
                  <table class="hl7__ips">
                     <tr>
                        <td>
                           <span class="grayedout">Viral sinusitis</span>
                        </td>
                        <td>
                           <span class="nb">22-Oct-2023 - 16-Nov-2023</span>
                        </td>
                        <td>
                           <span class="grayedout">inactive</span>
                        </td>
                     </tr>
                  </table>
               </div>
            </text>
            <category>
               <coding>
                  <system value="http://terminology.hl7.org/CodeSystem/condition-category"/>
                  <code value="problem-list-item"/>
                  <display value="Problem List Item"/>
               </coding>
            </category>
            <code>
               <coding>
                  <system value="http://snomed.info/sct"/>
                  <code value="444814009"/>
                  <display value="Viral sinusitis (disorder)"/>
               </coding>
               <text value="Viral sinusitis"/>
            </code>
            <subject>
               <reference value="urn:uuid:"/>
               <display value="Katy Johnston"/>
            </subject>
            <onsetDateTime value="2023-10-22"/>
            <abatementDateTime value="2023-11-16"/>
            <asserter>
               <reference value="urn:uuid:"/>
               <display value="Evelina Children&amp;#039;s Hospital"/>
            </asserter>
         </Condition>
      </resource>
   </entry>
   <entry>
      <fullUrl value="urn:uuid:ba6629f3-36ed-4f09-b717-e5e07a337486"/>
      <resource>
         <Condition>
            <id value="ba6629f3-36ed-4f09-b717-e5e07a337486"/>
            <meta>
               <profile value="http://hl7.org/fhir/uv/ips/StructureDefinition/Condition-uv-ips"/>
            </meta>
            <text>
               <status value="generated"/>
               <div xmlns="http://www.w3.org/1999/xhtml">
                  <table class="hl7__ips">
                     <tr>
                        <td>
                           <span class="grayedout">Drug overdose</span>
                        </td>
                        <td>
                           <span class="nb">01-Oct-2021 - 01-Oct-2021</span>
                        </td>
                        <td>
                           <span class="grayedout">inactive</span>
                        </td>
                     </tr>
                  </table>
               </div>
            </text>
            <category>
               <coding>
                  <system value="http://terminology.hl7.org/CodeSystem/condition-category"/>
                  <code value="problem-list-item"/>
                  <display value="Problem List Item"/>
               </coding>
            </category>
            <code>
               <coding>
                  <system value="http://snomed.info/sct"/>
                  <code value="55680006"/>
                  <display value="Drug overdose (disorder)"/>
               </coding>
               <text value="Drug overdose"/>
            </code>
            <subject>
               <reference value="urn:uuid:"/>
               <display value="Katy Johnston"/>
            </subject>
            <onsetDateTime value="2021-10-01"/>
            <abatementDateTime value="2021-10-01"/>
            <asserter>
               <reference value="urn:uuid:"/>
               <display value="Evelina Children&amp;#039;s Hospital"/>
            </asserter>
         </Condition>
      </resource>
   </entry>
   <entry>
      <fullUrl value="urn:uuid:d8c132a9-611a-467f-8268-4e95cfe91016"/>
      <resource>
         <Condition>
            <id value="d8c132a9-611a-467f-8268-4e95cfe91016"/>
            <meta>
               <profile value="http://hl7.org/fhir/uv/ips/StructureDefinition/Condition-uv-ips"/>
            </meta>
            <text>
               <status value="generated"/>
               <div xmlns="http://www.w3.org/1999/xhtml">
                  <table class="hl7__ips">
                     <tr>
                        <td>
                           <span class="grayedout">Drug overdose</span>
                        </td>
                        <td>
                           <span class="nb">05-Feb-2020 - 05-Feb-2020</span>
                        </td>
                        <td>
                           <span class="grayedout">inactive</span>
                        </td>
                     </tr>
                  </table>
               </div>
            </text>
            <category>
               <coding>
                  <system value="http://terminology.hl7.org/CodeSystem/condition-category"/>
                  <code value="problem-list-item"/>
                  <display value="Problem List Item"/>
               </coding>
            </category>
            <code>
               <coding>
                  <system value="http://snomed.info/sct"/>
                  <code value="55680006"/>
                  <display value="Drug overdose (disorder)"/>
               </coding>
               <text value="Drug overdose"/>
            </code>
            <subject>
               <reference value="urn:uuid:"/>
               <display value="Katy Johnston"/>
            </subject>
            <onsetDateTime value="2020-02-05"/>
            <abatementDateTime value="2020-02-05"/>
            <asserter>
               <reference value="urn:uuid:"/>
               <display value="Evelina Children&amp;#039;s Hospital"/>
            </asserter>
         </Condition>
      </resource>
   </entry>
   <entry>
      <fullUrl value="urn:uuid:f5393916-dcd0-44ca-b65a-99829c7e9695"/>
      <resource>
         <Condition>
            <id value="f5393916-dcd0-44ca-b65a-99829c7e9695"/>
            <meta>
               <profile value="http://hl7.org/fhir/uv/ips/StructureDefinition/Condition-uv-ips"/>
            </meta>
            <text>
               <status value="generated"/>
               <div xmlns="http://www.w3.org/1999/xhtml">
                  <table class="hl7__ips">
                     <tr>
                        <td>
                           <span class="grayedout">Drug overdose</span>
                        </td>
                        <td>
                           <span class="nb">23-Aug-2017 - 23-Aug-2017</span>
                        </td>
                        <td>
                           <span class="grayedout">inactive</span>
                        </td>
                     </tr>
                  </table>
               </div>
            </text>
            <category>
               <coding>
                  <system value="http://terminology.hl7.org/CodeSystem/condition-category"/>
                  <code value="problem-list-item"/>
                  <display value="Problem List Item"/>
               </coding>
            </category>
            <code>
               <coding>
                  <system value="http://snomed.info/sct"/>
                  <code value="55680006"/>
                  <display value="Drug overdose (disorder)"/>
               </coding>
               <text value="Drug overdose"/>
            </code>
            <subject>
               <reference value="urn:uuid:"/>
               <display value="Katy Johnston"/>
            </subject>
            <onsetDateTime value="2017-08-23"/>
            <abatementDateTime value="2017-08-23"/>
            <asserter>
               <reference value="urn:uuid:"/>
               <display value="Evelina Children&amp;#039;s Hospital"/>
            </asserter>
         </Condition>
      </resource>
   </entry>
   <entry>
      <fullUrl value="urn:uuid:181eafbc-58d5-4717-8467-d96534ce3e3a"/>
      <resource>
         <Condition>
            <id value="181eafbc-58d5-4717-8467-d96534ce3e3a"/>
            <meta>
               <profile value="http://hl7.org/fhir/uv/ips/StructureDefinition/Condition-uv-ips"/>
            </meta>
            <text>
               <status value="generated"/>
               <div xmlns="http://www.w3.org/1999/xhtml">
                  <table class="hl7__ips">
                     <tr>
                        <td>
                           <span class="grayedout">Viral sinusitis</span>
                        </td>
                        <td>
                           <span class="nb">29-Apr-2017 - 19-May-2017</span>
                        </td>
                        <td>
                           <span class="grayedout">inactive</span>
                        </td>
                     </tr>
                  </table>
               </div>
            </text>
            <category>
               <coding>
                  <system value="http://terminology.hl7.org/CodeSystem/condition-category"/>
                  <code value="problem-list-item"/>
                  <display value="Problem List Item"/>
               </coding>
            </category>
            <code>
               <coding>
                  <system value="http://snomed.info/sct"/>
                  <code value="444814009"/>
                  <display value="Viral sinusitis (disorder)"/>
               </coding>
               <text value="Viral sinusitis"/>
            </code>
            <subject>
               <reference value="urn:uuid:"/>
               <display value="Katy Johnston"/>
            </subject>
            <onsetDateTime value="2017-04-29"/>
            <abatementDateTime value="2017-05-19"/>
            <asserter>
               <reference value="urn:uuid:"/>
               <display value="Evelina Children&amp;#039;s Hospital"/>
            </asserter>
         </Condition>
      </resource>
   </entry>
   <entry>
      <fullUrl value="urn:uuid:5785a3e2-4e1c-47c0-be24-2034fe4d872d"/>
      <resource>
         <Condition>
            <id value="5785a3e2-4e1c-47c0-be24-2034fe4d872d"/>
            <meta>
               <profile value="http://hl7.org/fhir/uv/ips/StructureDefinition/Condition-uv-ips"/>
            </meta>
            <text>
               <status value="generated"/>
               <div xmlns="http://www.w3.org/1999/xhtml">
                  <table class="hl7__ips">
                     <tr>
                        <td>
                           <span class="grayedout">Drug overdose</span>
                        </td>
                        <td>
                           <span class="nb">09-Dec-2015 - 10-Dec-2015</span>
                        </td>
                        <td>
                           <span class="grayedout">inactive</span>
                        </td>
                     </tr>
                  </table>
               </div>
            </text>
            <category>
               <coding>
                  <system value="http://terminology.hl7.org/CodeSystem/condition-category"/>
                  <code value="problem-list-item"/>
                  <display value="Problem List Item"/>
               </coding>
            </category>
            <code>
               <coding>
                  <system value="http://snomed.info/sct"/>
                  <code value="55680006"/>
                  <display value="Drug overdose (disorder)"/>
               </coding>
               <text value="Drug overdose"/>
            </code>
            <subject>
               <reference value="urn:uuid:"/>
               <display value="Katy Johnston"/>
            </subject>
            <onsetDateTime value="2015-12-09"/>
            <abatementDateTime value="2015-12-10"/>
            <asserter>
               <reference value="urn:uuid:"/>
               <display value="Evelina Children&amp;#039;s Hospital"/>
            </asserter>
         </Condition>
      </resource>
   </entry>
   <entry>
      <fullUrl value="urn:uuid:3b516292-c7be-4c73-9a06-3965ec552619"/>
      <resource>
         <Medication>
            <id value="3b516292-c7be-4c73-9a06-3965ec552619"/>
            <meta>
               <profile value="http://hl7.eu/fhir/eps/StructureDefinition/Medication-eu-eps"/>
            </meta>
            <text>
               <status value="generated"/>
               <div xmlns="http://www.w3.org/1999/xhtml">Acetaminophen 325 mg oral tablet</div>
            </text>
            <code>
               <coding>
                  <system value="http://snomed.info/sct"/>
                  <code value="370150001"/>
                  <display value="Acetaminophen 325 mg oral tablet"/>
               </coding>
               <text value="Acetaminophen 325 mg oral tablet"/>
            </code>
         </Medication>
      </resource>
   </entry>
   <entry>
      <fullUrl value="urn:uuid:193b9b2a-e17f-41c7-a7eb-d7b8e9d94778"/>
      <resource>
         <MedicationStatement>
            <id value="193b9b2a-e17f-41c7-a7eb-d7b8e9d94778"/>
            <meta>
               <profile value="http://hl7.eu/fhir/eps/StructureDefinition/MedicationStatement-eu-eps"/>
            </meta>
            <text>
               <status value="generated"/>
               <div xmlns="http://www.w3.org/1999/xhtml">
                  <table class="hl7__ips first25">
                     <tr>
                        <th>Medication</th>
                        <th>Since</th>
                        <th>Form</th>
                        <th>Dosage</th>
                        <th>Reason</th>
                     </tr>
                     <tr>
                        <td>Acetaminophen 325 mg oral tablet</td>
                        <td>
                           <span class="nb">2025-07-02</span>
                        </td>
                        <td>-</td>
                        <td>1 tablet (325 mg) by mouth every 4 to 6 hours as needed for pain. Do not exceed 12 tablets (3900 mg) in 24 hours.</td>
                        <td>-</td>
                     </tr>
                  </table>
               </div>
            </text>
            <status value="active"/>
            <medicationReference>
               <reference value="urn:uuid:3b516292-c7be-4c73-9a06-3965ec552619"/>
               <display value="Acetaminophen 325 mg oral tablet"/>
            </medicationReference>
            <subject>
               <reference value="urn:uuid:c5de0a53-e757-4182-9880-a8f6c0107ec4"/>
               <display value="Katy Johnston"/>
            </subject>
            <effectivePeriod>
               <start value="2025-07-02"/>
            </effectivePeriod>
            <dosage>
               <text value="1 tablet (325 mg) by mouth every 4 to 6 hours as needed for pain. Do not exceed 12 tablets (3900 mg) in 24 hours."/>
               <timing>
                  <repeat>
                     <frequency value="1"/>
                     <period value="4"/>
                     <periodUnit value="h"/>
                  </repeat>
               </timing>
               <asNeededBoolean value="true"/>
               <doseAndRate>
                  <doseQuantity>
                     <value value="1"/>
                     <unit value="{tbl}"/>
                     <system value="$ucum"/>
                     <code value="{tbl}"/>
                  </doseQuantity>
               </doseAndRate>
            </dosage>
         </MedicationStatement>
      </resource>
   </entry>
   <entry>
      <fullUrl value="urn:uuid:9513ec36-1090-46a4-a901-c5f868185df7"/>
      <resource>
         <Medication>
            <id value="9513ec36-1090-46a4-a901-c5f868185df7"/>
            <meta>
               <profile value="http://hl7.eu/fhir/eps/StructureDefinition/Medication-eu-eps"/>
            </meta>
            <text>
               <status value="generated"/>
               <div xmlns="http://www.w3.org/1999/xhtml">Acetaminophen 300 mg and hydrocodone bitartrate 5 mg oral tablet</div>
            </text>
            <code>
               <coding>
                  <system value="http://snomed.info/sct"/>
                  <code value="420397007"/>
                  <display value="Acetaminophen 300 mg and hydrocodone bitartrate 5 mg oral tablet"/>
               </coding>
               <text value="Acetaminophen 300 mg and hydrocodone bitartrate 5 mg oral tablet"/>
            </code>
         </Medication>
      </resource>
   </entry>
   <entry>
      <fullUrl value="urn:uuid:53982195-57c6-424a-9700-ac5c35f500c8"/>
      <resource>
         <MedicationStatement>
            <id value="53982195-57c6-424a-9700-ac5c35f500c8"/>
            <meta>
               <profile value="http://hl7.eu/fhir/eps/StructureDefinition/MedicationStatement-eu-eps"/>
            </meta>
            <text>
               <status value="generated"/>
               <div xmlns="http://www.w3.org/1999/xhtml">
                  <table class="hl7__ips first25">
                     <tr>
                        <th>Medication</th>
                        <th>Since</th>
                        <th>Form</th>
                        <th>Dosage</th>
                        <th>Reason</th>
                     </tr>
                     <tr>
                        <td>Acetaminophen 300 mg and hydrocodone bitartrate 5 mg oral tablet</td>
                        <td>
                           <span class="nb">2025-04-20</span>
                        </td>
                        <td>-</td>
                        <td>1 tablet (300 mg/5 mg) every 4 to 6 hours as needed for pain</td>
                        <td>-</td>
                     </tr>
                  </table>
               </div>
            </text>
            <status value="active"/>
            <medicationReference>
               <reference value="urn:uuid:9513ec36-1090-46a4-a901-c5f868185df7"/>
               <display value="Acetaminophen 300 mg and hydrocodone bitartrate 5 mg oral tablet"/>
            </medicationReference>
            <subject>
               <reference value="urn:uuid:c5de0a53-e757-4182-9880-a8f6c0107ec4"/>
               <display value="Katy Johnston"/>
            </subject>
            <effectivePeriod>
               <start value="2025-04-20"/>
            </effectivePeriod>
            <dosage>
               <text value="1 tablet (300 mg/5 mg) every 4 to 6 hours as needed for pain"/>
               <timing>
                  <repeat>
                     <frequency value="6"/>
                     <period value="1"/>
                     <periodUnit value="d"/>
                  </repeat>
               </timing>
               <asNeededBoolean value="true"/>
               <doseAndRate>
                  <doseQuantity>
                     <value value="1"/>
                     <unit value="{tbl}"/>
                     <code value="{tbl}"/>
                  </doseQuantity>
               </doseAndRate>
            </dosage>
         </MedicationStatement>
      </resource>
   </entry>
   <entry>
      <fullUrl value="urn:uuid:de421e3b-69b0-47eb-93da-ed0bcf5356e2"/>
      <resource>
         <Medication>
            <id value="de421e3b-69b0-47eb-93da-ed0bcf5356e2"/>
            <meta>
               <profile value="http://hl7.eu/fhir/eps/StructureDefinition/Medication-eu-eps"/>
            </meta>
            <text>
               <status value="generated"/>
               <div xmlns="http://www.w3.org/1999/xhtml">Diphenhydramine hydrochloride 25 mg oral tablet</div>
            </text>
            <code>
               <coding>
                  <system value="http://snomed.info/sct"/>
                  <code value="320726008"/>
                  <display value="Diphenhydramine hydrochloride 25 mg oral tablet"/>
               </coding>
               <text value="Diphenhydramine hydrochloride 25 mg oral tablet"/>
            </code>
         </Medication>
      </resource>
   </entry>
   <entry>
      <fullUrl value="urn:uuid:688cf620-fb13-42fb-8b9c-2bb3a17da7de"/>
      <resource>
         <MedicationStatement>
            <id value="688cf620-fb13-42fb-8b9c-2bb3a17da7de"/>
            <meta>
               <profile value="http://hl7.eu/fhir/eps/StructureDefinition/MedicationStatement-eu-eps"/>
            </meta>
            <text>
               <status value="generated"/>
               <div xmlns="http://www.w3.org/1999/xhtml">
                  <table class="hl7__ips first25">
                     <tr>
                        <th>Medication</th>
                        <th>Since</th>
                        <th>Form</th>
                        <th>Dosage</th>
                        <th>Reason</th>
                     </tr>
                     <tr>
                        <td>Diphenhydramine hydrochloride 25 mg oral tablet</td>
                        <td>
                           <span class="nb">1988-04-02</span>
                        </td>
                        <td>-</td>
                        <td>1 tablet (25 mg) every 6 hours as needed</td>
                        <td>-</td>
                     </tr>
                  </table>
               </div>
            </text>
            <status value="active"/>
            <medicationReference>
               <reference value="urn:uuid:de421e3b-69b0-47eb-93da-ed0bcf5356e2"/>
               <display value="Diphenhydramine hydrochloride 25 mg oral tablet"/>
            </medicationReference>
            <subject>
               <reference value="urn:uuid:c5de0a53-e757-4182-9880-a8f6c0107ec4"/>
               <display value="Katy Johnston"/>
            </subject>
            <effectivePeriod>
               <start value="1988-04-02"/>
            </effectivePeriod>
            <dosage>
               <text value="1 tablet (25 mg) every 6 hours as needed"/>
               <timing>
                  <repeat>
                     <frequency value="4"/>
                     <period value="1"/>
                     <periodUnit value="d"/>
                  </repeat>
               </timing>
               <asNeededBoolean value="true"/>
               <doseAndRate>
                  <doseQuantity>
                     <value value="1"/>
                     <unit value="{tbl}"/>
                     <system value="$ucum"/>
                     <code value="{tbl}"/>
                  </doseQuantity>
               </doseAndRate>
            </dosage>
         </MedicationStatement>
      </resource>
   </entry>
   <entry>
      <fullUrl value="urn:uuid:430c7ca9-9719-4a93-a07b-e323714759e7"/>
      <resource>
         <Medication>
            <id value="430c7ca9-9719-4a93-a07b-e323714759e7"/>
            <meta>
               <profile value="http://hl7.eu/fhir/eps/StructureDefinition/Medication-eu-eps"/>
            </meta>
            <text>
               <status value="generated"/>
               <div xmlns="http://www.w3.org/1999/xhtml">Epinephrine 1 mg/mL solution for injection</div>
            </text>
            <code>
               <coding>
                  <system value="http://snomed.info/sct"/>
                  <code value="781862008"/>
                  <display value="Epinephrine 1 mg/mL solution for injection"/>
               </coding>
               <text value="Epinephrine 1 mg/mL solution for injection"/>
            </code>
         </Medication>
      </resource>
   </entry>
   <entry>
      <fullUrl value="urn:uuid:44582c4a-ef3c-4cc1-91ba-d64748ca42d4"/>
      <resource>
         <MedicationStatement>
            <id value="44582c4a-ef3c-4cc1-91ba-d64748ca42d4"/>
            <meta>
               <profile value="http://hl7.eu/fhir/eps/StructureDefinition/MedicationStatement-eu-eps"/>
            </meta>
            <text>
               <status value="generated"/>
               <div xmlns="http://www.w3.org/1999/xhtml">
                  <table class="hl7__ips first25">
                     <tr>
                        <th>Medication</th>
                        <th>Since</th>
                        <th>Form</th>
                        <th>Dosage</th>
                        <th>Reason</th>
                     </tr>
                     <tr>
                        <td>Epinephrine 1 mg/mL solution for injection</td>
                        <td>
                           <span class="nb">1988-04-02</span>
                        </td>
                        <td>-</td>
                        <td>0.3 mg (1 mg/mL) injected intramuscularly as needed for anaphylaxis</td>
                        <td>-</td>
                     </tr>
                  </table>
               </div>
            </text>
            <status value="active"/>
            <medicationReference>
               <reference value="urn:uuid:430c7ca9-9719-4a93-a07b-e323714759e7"/>
               <display value="Epinephrine 1 mg/mL solution for injection"/>
            </medicationReference>
            <subject>
               <reference value="urn:uuid:c5de0a53-e757-4182-9880-a8f6c0107ec4"/>
               <display value="Katy Johnston"/>
            </subject>
            <effectivePeriod>
               <start value="1988-04-02"/>
            </effectivePeriod>
            <dosage>
               <text value="0.3 mg (1 mg/mL) injected intramuscularly as needed for anaphylaxis"/>
               <timing>
                  <repeat>
                     <frequency value="1"/>
                     <period value="1"/>
                     <periodUnit value="d"/>
                  </repeat>
               </timing>
               <asNeededBoolean value="true"/>
               <doseAndRate>
                  <doseQuantity>
                     <value value="0.3"/>
                     <unit value="mg"/>
                     <system value="$ucum"/>
                     <code value="mg"/>
                  </doseQuantity>
               </doseAndRate>
            </dosage>
         </MedicationStatement>
      </resource>
   </entry>
   <entry>
      <fullUrl value="urn:uuid:742bb9c4-fd0e-455d-904c-2da9b256138c"/>
      <resource>
         <Immunization>
            <id value="742bb9c4-fd0e-455d-904c-2da9b256138c"/>
            <meta>
               <profile value="http://hl7.org/fhir/uv/ips/StructureDefinition/Immunization-uv-ips"/>
            </meta>
            <text>
               <status value="generated"/>
               <div xmlns="http://www.w3.org/1999/xhtml">
                  <table class="hl7__ips">
                     <tr>
                        <td>Influenza virus antigen only vaccine product</td>
                        <td>
                           <span class="nb">20-Apr-2025</span>
                        </td>
                     </tr>
                  </table>
               </div>
            </text>
            <status value="completed"/>
            <vaccineCode>
               <coding>
                  <system value="http://snomed.info/sct"/>
                  <code value="1181000221105"/>
                  <display value="Vaccine product containing Influenza virus antigen"/>
               </coding>
               <coding>
                  <system value="http://www.whocc.no/atc"/>
                  <code value="J07BB02"/>
                  <display value="Influenza, inactivated, split virus"/>
               </coding>
               <text value="Influenza virus antigen only vaccine product"/>
            </vaccineCode>
            <patient>
               <reference value="urn:uuid:c5de0a53-e757-4182-9880-a8f6c0107ec4"/>
               <display value="Katy Johnston"/>
            </patient>
            <occurrenceDateTime value="2025-04-20"/>
            <lotNumber value="ON-Ju8GQZGBN"/>
            <expirationDate value="2025-08-11"/>
            <site>
               <coding>
                  <system value="http://snomed.info/sct"/>
                  <code value="244979005"/>
                  <display value="Entire muscle of upper arm"/>
               </coding>
               <text value="Entire muscle of upper arm"/>
            </site>
            <route>
               <coding>
                  <system value="http://snomed.info/sct"/>
                  <code value="78421000"/>
                  <display value="Intramuscular route"/>
               </coding>
               <text value="Intramuscular route"/>
            </route>
         </Immunization>
      </resource>
   </entry>
   <entry>
      <fullUrl value="urn:uuid:03a52a5c-909e-4ace-b0e8-00d89979d36e"/>
      <resource>
         <Immunization>
            <id value="03a52a5c-909e-4ace-b0e8-00d89979d36e"/>
            <meta>
               <profile value="http://hl7.org/fhir/uv/ips/StructureDefinition/Immunization-uv-ips"/>
            </meta>
            <text>
               <status value="generated"/>
               <div xmlns="http://www.w3.org/1999/xhtml">
                  <table class="hl7__ips">
                     <tr>
                        <td>SARS-CoV-2 mRNA vaccine</td>
                        <td>
                           <span class="nb">20-Jun-2021</span>
                        </td>
                     </tr>
                  </table>
               </div>
            </text>
            <status value="completed"/>
            <vaccineCode>
               <coding>
                  <system value="http://snomed.info/sct"/>
                  <code value="1119349007"/>
                  <display value="Vaccine product containing SARS-CoV-2 mRNA"/>
               </coding>
               <coding>
                  <system value="http://www.whocc.no/atc"/>
                  <code value="J07BX03"/>
                  <display value="COVID-19 mRNA vaccines"/>
               </coding>
               <text value="SARS-CoV-2 mRNA vaccine"/>
            </vaccineCode>
            <patient>
               <reference value="urn:uuid:c5de0a53-e757-4182-9880-a8f6c0107ec4"/>
               <display value="Katy Johnston"/>
            </patient>
            <occurrenceDateTime value="2021-06-20"/>
            <lotNumber value="XW-TpiBjFz"/>
            <expirationDate value="2022-06-24"/>
            <site>
               <coding>
                  <system value="http://snomed.info/sct"/>
                  <code value="244979005"/>
                  <display value="Entire muscle of upper arm"/>
               </coding>
               <text value="Entire muscle of upper arm"/>
            </site>
            <route>
               <coding>
                  <system value="http://snomed.info/sct"/>
                  <code value="78421000"/>
                  <display value="Intramuscular route"/>
               </coding>
               <text value="Intramuscular route"/>
            </route>
         </Immunization>
      </resource>
   </entry>
   <entry>
      <fullUrl value="urn:uuid:b5433caa-47ed-4b7c-9a1a-5dcc6d61b96f"/>
      <resource>
         <Immunization>
            <id value="b5433caa-47ed-4b7c-9a1a-5dcc6d61b96f"/>
            <meta>
               <profile value="http://hl7.org/fhir/uv/ips/StructureDefinition/Immunization-uv-ips"/>
            </meta>
            <text>
               <status value="generated"/>
               <div xmlns="http://www.w3.org/1999/xhtml">
                  <table class="hl7__ips">
                     <tr>
                        <td>Clostridium tetani toxoid antigen adsorbed only vaccine product</td>
                        <td>
                           <span class="nb">17-Mar-2019</span>
                        </td>
                     </tr>
                  </table>
               </div>
            </text>
            <status value="completed"/>
            <vaccineCode>
               <coding>
                  <system value="http://snomed.info/sct"/>
                  <code value="777725002"/>
                  <display value="Vaccine product containing only Clostridium tetani toxoid antigen adsorbed"/>
               </coding>
               <coding>
                  <system value="http://www.whocc.no/atc"/>
                  <code value="J07AM51"/>
                  <display value="Diphtheria-tetanus vaccines, adult type"/>
               </coding>
               <text value="Clostridium tetani toxoid antigen adsorbed only vaccine product"/>
            </vaccineCode>
            <patient>
               <reference value="urn:uuid:c5de0a53-e757-4182-9880-a8f6c0107ec4"/>
               <display value="Katy Johnston"/>
            </patient>
            <occurrenceDateTime value="2019-03-17"/>
            <lotNumber value="CW-19iVc"/>
            <expirationDate value="2019-06-12"/>
            <site>
               <coding>
                  <system value="http://snomed.info/sct"/>
                  <code value="244979005"/>
                  <display value="Entire muscle of upper arm"/>
               </coding>
               <text value="Entire muscle of upper arm"/>
            </site>
            <route>
               <coding>
                  <system value="http://snomed.info/sct"/>
                  <code value="78421000"/>
                  <display value="Intramuscular route"/>
               </coding>
               <text value="Intramuscular route"/>
            </route>
         </Immunization>
      </resource>
   </entry>
   <entry>
      <fullUrl value="urn:uuid:6cec2ab2-8ed1-4cb8-96ff-32881377dcb8"/>
      <resource>
         <Procedure>
            <id value="6cec2ab2-8ed1-4cb8-96ff-32881377dcb8"/>
            <meta>
               <profile value="http://hl7.org/fhir/uv/ips/StructureDefinition/Procedure-uv-ips"/>
            </meta>
            <text>
               <status value="generated"/>
               <div xmlns="http://www.w3.org/1999/xhtml">
                  <table class="hl7__ips">
                     <tr>
                        <td>Suture open wound</td>
                        <td>
                           <span class="nb">02-Jul-2025</span>
                        </td>
                        <td>Laceration of hand</td>
                     </tr>
                  </table>
               </div>
            </text>
            <status value="completed"/>
            <code>
               <coding>
                  <system value="http://snomed.info/sct"/>
                  <code value="288086009"/>
                  <display value="Suture open wound"/>
               </coding>
               <text value="Suture open wound"/>
            </code>
            <subject>
               <reference value="urn:uuid:"/>
               <display value="Katy Johnston"/>
            </subject>
            <performedDateTime value="2025-07-02"/>
            <reasonCode>
               <coding>
                  <system value="http://snomed.info/sct"/>
                  <code value="284549007"/>
                  <display value="Laceration of hand"/>
               </coding>
            </reasonCode>
         </Procedure>
      </resource>
   </entry>
   <entry>
      <fullUrl value="urn:uuid:9a6a81c3-65ba-4631-aab9-4fc84daf960c"/>
      <resource>
         <AllergyIntolerance>
            <id value="9a6a81c3-65ba-4631-aab9-4fc84daf960c"/>
            <meta>
               <profile value="http://hl7.eu/fhir/eps/StructureDefinition/allergyIntolerance-eu-eps"/>
            </meta>
            <text>
               <status value="generated"/>
               <div xmlns="http://www.w3.org/1999/xhtml">
                  <table class="hl7__ips">
                     <tr>
                        <th>Allergy/Intolerance</th>
                        <th>Onset Date</th>
                        <th>Status</th>
                        <th>Type</th>
                        <th>Reaction</th>
                     </tr>
                     <tr>
                        <td>Mold</td>
                        <td>
                           <span class="nb">1988-04-02</span>
                        </td>
                        <td>active</td>
                        <td>environment</td>
                        <td/>
                     </tr>
                  </table>
               </div>
            </text>
            <clinicalStatus>
               <coding>
                  <system value="http://terminology.hl7.org/CodeSystem/allergyintolerance-clinical"/>
                  <code value="active"/>
               </coding>
            </clinicalStatus>
            <verificationStatus>
               <coding>
                  <system value="http://terminology.hl7.org/CodeSystem/allergyintolerance-verification"/>
                  <code value="confirmed"/>
               </coding>
            </verificationStatus>
            <type value="allergy"/>
            <category value="environment"/>
            <code>
               <coding>
                  <system value="http://snomed.info/sct"/>
                  <code value="84489001"/>
                  <display value="Mold (organism)"/>
               </coding>
               <text value="Mold"/>
            </code>
            <patient>
               <reference value="urn:uuid:c5de0a53-e757-4182-9880-a8f6c0107ec4"/>
               <display value="Katy Johnston"/>
            </patient>
            <onsetDateTime value="1988-04-02"/>
         </AllergyIntolerance>
      </resource>
   </entry>
   <entry>
      <fullUrl value="urn:uuid:2276fd6d-aec8-4e78-8f6c-896aee53021e"/>
      <resource>
         <AllergyIntolerance>
            <id value="2276fd6d-aec8-4e78-8f6c-896aee53021e"/>
            <meta>
               <profile value="http://hl7.eu/fhir/eps/StructureDefinition/allergyIntolerance-eu-eps"/>
            </meta>
            <text>
               <status value="generated"/>
               <div xmlns="http://www.w3.org/1999/xhtml">
                  <table class="hl7__ips">
                     <tr>
                        <th>Allergy/Intolerance</th>
                        <th>Onset Date</th>
                        <th>Status</th>
                        <th>Type</th>
                        <th>Reaction</th>
                     </tr>
                     <tr>
                        <td>Eggs (edible)</td>
                        <td>
                           <span class="nb">1988-04-02</span>
                        </td>
                        <td>active</td>
                        <td>food</td>
                        <td>Wheal (finding)</td>
                     </tr>
                  </table>
               </div>
            </text>
            <clinicalStatus>
               <coding>
                  <system value="http://terminology.hl7.org/CodeSystem/allergyintolerance-clinical"/>
                  <code value="active"/>
               </coding>
            </clinicalStatus>
            <verificationStatus>
               <coding>
                  <system value="http://terminology.hl7.org/CodeSystem/allergyintolerance-verification"/>
                  <code value="confirmed"/>
               </coding>
            </verificationStatus>
            <type value="allergy"/>
            <category value="food"/>
            <code>
               <coding>
                  <system value="http://snomed.info/sct"/>
                  <code value="102263004"/>
                  <display value="Eggs (edible) (substance)"/>
               </coding>
               <text value="Eggs (edible)"/>
            </code>
            <patient>
               <reference value="urn:uuid:c5de0a53-e757-4182-9880-a8f6c0107ec4"/>
               <display value="Katy Johnston"/>
            </patient>
            <onsetDateTime value="1988-04-02"/>
            <reaction>
               <manifestation>
                  <coding>
                     <system value="http://snomed.info/sct"/>
                     <code value="247472004"/>
                     <display value="Wheal (finding)"/>
                  </coding>
               </manifestation>
               <severity value="moderate"/>
            </reaction>
         </AllergyIntolerance>
      </resource>
   </entry>
   <entry>
      <fullUrl value="urn:uuid:95480281-82b6-4550-99ac-aa2ecdb549bf"/>
      <resource>
         <AllergyIntolerance>
            <id value="95480281-82b6-4550-99ac-aa2ecdb549bf"/>
            <meta>
               <profile value="http://hl7.eu/fhir/eps/StructureDefinition/allergyIntolerance-eu-eps"/>
            </meta>
            <text>
               <status value="generated"/>
               <div xmlns="http://www.w3.org/1999/xhtml">
                  <table class="hl7__ips">
                     <tr>
                        <th>Allergy/Intolerance</th>
                        <th>Onset Date</th>
                        <th>Status</th>
                        <th>Type</th>
                        <th>Reaction</th>
                     </tr>
                     <tr>
                        <td>Allergy to substance</td>
                        <td>
                           <span class="nb">1988-04-02</span>
                        </td>
                        <td>active</td>
                        <td>environment</td>
                        <td/>
                     </tr>
                  </table>
               </div>
            </text>
            <clinicalStatus>
               <coding>
                  <system value="http://terminology.hl7.org/CodeSystem/allergyintolerance-clinical"/>
                  <code value="active"/>
               </coding>
            </clinicalStatus>
            <verificationStatus>
               <coding>
                  <system value="http://terminology.hl7.org/CodeSystem/allergyintolerance-verification"/>
                  <code value="confirmed"/>
               </coding>
            </verificationStatus>
            <type value="allergy"/>
            <category value="environment"/>
            <code>
               <coding>
                  <system value="http://snomed.info/sct"/>
                  <code value="419199007"/>
                  <display value="Allergy to substance (finding)"/>
               </coding>
               <text value="Allergy to substance"/>
            </code>
            <patient>
               <reference value="urn:uuid:c5de0a53-e757-4182-9880-a8f6c0107ec4"/>
               <display value="Katy Johnston"/>
            </patient>
            <onsetDateTime value="1988-04-02"/>
         </AllergyIntolerance>
      </resource>
   </entry>
   <entry>
      <fullUrl value="urn:uuid:934a9a91-b66a-4902-9d0e-8e9ef761d6f9"/>
      <resource>
         <CarePlan>
            <id value="934a9a91-b66a-4902-9d0e-8e9ef761d6f9"/>
            <text>
               <status value="generated"/>
               <div xmlns="http://www.w3.org/1999/xhtml">
                  <table class="hl7__ips first25">
                     <tr>
                        <th>Active Planned Care / Goals</th>
                        <th>Start Date</th>
                        <th>Reason</th>
                     </tr>
                     <tr>
                        <td>Wound care</td>
                        <td>
                           <span class="nb">02-Jul-2025</span>
                        </td>
                        <td>Laceration of hand</td>
                     </tr>
                     <tr>
                        <td>
                           <ul>
                              <li>Achieve full epithelialization of the hand laceration without signs of infection.</li>
                              <li>Reduce wound size to 0 cm by end of treatment.</li>
                              <li>Maintain absence of clinical signs of infection throughout wound healing.</li>
                           </ul>
                        </td>
                        <td/>
                        <td/>
                     </tr>
                  </table>
               </div>
            </text>
            <status value="active"/>
            <intent value="plan"/>
            <category>
               <coding>
                  <system value="http://terminology.hl7.org/CodeSystem/care-plan-category"/>
                  <code value="assess-plan"/>
                  <display value="Assessment and Plan"/>
               </coding>
            </category>
            <subject>
               <reference value="urn:uuid:c5de0a53-e757-4182-9880-a8f6c0107ec4"/>
               <display value="Katy Johnston"/>
            </subject>
            <period>
               <start value="2025-07-02"/>
            </period>
            <goal>
               <reference value="urn:uuid:67078b21-389f-412a-871a-edca7604de1c"/>
            </goal>
            <goal>
               <reference value="urn:uuid:c0d9a821-2b90-4d95-8f42-370912419916"/>
            </goal>
            <goal>
               <reference value="urn:uuid:3a95c620-75fd-4f56-9afe-f704783e6a58"/>
            </goal>
            <activity>
               <detail>
                  <kind value="Appointment"/>
                  <code>
                     <coding>
                        <system value="http://snomed.info/sct"/>
                        <code value="225358003"/>
                        <display value="Wound care (regime/therapy)"/>
                     </coding>
                  </code>
                  <reasonCode>
                     <coding>
                        <system value="http://snomed.info/sct"/>
                        <code value="284549007"/>
                        <display value="Laceration of hand"/>
                     </coding>
                  </reasonCode>
                  <status value="unknown"/>
                  <description value="Wound care"/>
               </detail>
            </activity>
         </CarePlan>
      </resource>
   </entry>
   <entry>
      <fullUrl value="urn:uuid:c56382cf-40d2-418a-b212-3f40762bda88"/>
      <resource>
         <CarePlan>
            <id value="c56382cf-40d2-418a-b212-3f40762bda88"/>
            <text>
               <status value="generated"/>
               <div xmlns="http://www.w3.org/1999/xhtml">
                  <table class="hl7__ips first25">
                     <tr>
                        <th>Active Planned Care / Goals</th>
                        <th>Start Date</th>
                        <th>Reason</th>
                     </tr>
                     <tr>
                        <td>Diabetes self management plan</td>
                        <td>
                           <span class="nb">17-Mar-2019</span>
                        </td>
                        <td>Prediabetes</td>
                     </tr>
                     <tr>
                        <td>
                           <ul>
                              <li>Patient will implement and adhere to a diabetes self-management plan to reduce risk of progression to type 2 diabetes.</li>
                           </ul>
                        </td>
                        <td/>
                        <td/>
                     </tr>
                  </table>
               </div>
            </text>
            <status value="active"/>
            <intent value="plan"/>
            <category>
               <coding>
                  <system value="http://terminology.hl7.org/CodeSystem/care-plan-category"/>
                  <code value="assess-plan"/>
                  <display value="Assessment and Plan"/>
               </coding>
            </category>
            <subject>
               <reference value="urn:uuid:c5de0a53-e757-4182-9880-a8f6c0107ec4"/>
               <display value="Katy Johnston"/>
            </subject>
            <period>
               <start value="2019-03-17"/>
            </period>
            <goal>
               <reference value="urn:uuid:88c8a65a-fb74-4b1c-a4f3-9a9af73094f2"/>
            </goal>
            <activity>
               <detail>
                  <kind value="Appointment"/>
                  <code>
                     <coding>
                        <system value="http://snomed.info/sct"/>
                        <code value="698360004"/>
                        <display value="Diabetes self management plan (qualifier value)"/>
                     </coding>
                  </code>
                  <reasonCode>
                     <coding>
                        <system value="http://snomed.info/sct"/>
                        <code value="15777000"/>
                        <display value="Prediabetes"/>
                     </coding>
                  </reasonCode>
                  <status value="unknown"/>
                  <description value="Diabetes self management plan"/>
               </detail>
            </activity>
         </CarePlan>
      </resource>
   </entry>
   <entry>
      <fullUrl value="urn:uuid:dcff0826-6b8e-40de-8f2d-10e4b388edce"/>
      <resource>
         <CarePlan>
            <id value="dcff0826-6b8e-40de-8f2d-10e4b388edce"/>
            <text>
               <status value="generated"/>
               <div xmlns="http://www.w3.org/1999/xhtml">
                  <table class="hl7__ips first25">
                     <tr>
                        <th>Active Planned Care / Goals</th>
                        <th>Start Date</th>
                        <th>Reason</th>
                     </tr>
                     <tr>
                        <td>Care plan</td>
                        <td>
                           <span class="nb">19-Jun-2013</span>
                        </td>
                        <td>-</td>
                     </tr>
                  </table>
               </div>
            </text>
            <status value="active"/>
            <intent value="plan"/>
            <category>
               <coding>
                  <system value="http://terminology.hl7.org/CodeSystem/care-plan-category"/>
                  <code value="assess-plan"/>
                  <display value="Assessment and Plan"/>
               </coding>
            </category>
            <subject>
               <reference value="urn:uuid:c5de0a53-e757-4182-9880-a8f6c0107ec4"/>
               <display value="Katy Johnston"/>
            </subject>
            <period>
               <start value="2013-06-19"/>
            </period>
            <activity>
               <detail>
                  <kind value="Appointment"/>
                  <code>
                     <coding>
                        <system value="http://snomed.info/sct"/>
                        <code value="734163000"/>
                        <display value="Care plan (record artifact)"/>
                     </coding>
                  </code>
                  <status value="unknown"/>
                  <description value="Care plan"/>
               </detail>
            </activity>
         </CarePlan>
      </resource>
   </entry>
   <entry>
      <fullUrl value="urn:uuid:377b167c-e4b0-4470-a311-2c43dcd0fd6a"/>
      <resource>
         <CarePlan>
            <id value="377b167c-e4b0-4470-a311-2c43dcd0fd6a"/>
            <text>
               <status value="generated"/>
               <div xmlns="http://www.w3.org/1999/xhtml">
                  <table class="hl7__ips first25">
                     <tr>
                        <th>Active Planned Care / Goals</th>
                        <th>Start Date</th>
                        <th>Reason</th>
                     </tr>
                     <tr>
                        <td>Self-care interventions</td>
                        <td>
                           <span class="nb">15-Mar-1988</span>
                        </td>
                        <td>-</td>
                     </tr>
                  </table>
               </div>
            </text>
            <status value="active"/>
            <intent value="plan"/>
            <category>
               <coding>
                  <system value="http://terminology.hl7.org/CodeSystem/care-plan-category"/>
                  <code value="assess-plan"/>
                  <display value="Assessment and Plan"/>
               </coding>
            </category>
            <subject>
               <reference value="urn:uuid:c5de0a53-e757-4182-9880-a8f6c0107ec4"/>
               <display value="Katy Johnston"/>
            </subject>
            <period>
               <start value="1988-03-15"/>
            </period>
            <activity>
               <detail>
                  <kind value="Appointment"/>
                  <code>
                     <coding>
                        <system value="http://snomed.info/sct"/>
                        <code value="384758001"/>
                        <display value="Self-care interventions (procedure)"/>
                     </coding>
                  </code>
                  <status value="unknown"/>
                  <description value="Self-care interventions"/>
               </detail>
            </activity>
         </CarePlan>
      </resource>
   </entry>
   <entry>
      <fullUrl value="urn:uuid:b52214b3-9d53-4e6e-a1cc-4f815ce84cca"/>
      <resource>
         <Observation>
            <id value="b52214b3-9d53-4e6e-a1cc-4f815ce84cca"/>
            <meta>
               <profile value="http://hl7.org/fhir/StructureDefinition/vitalsigns"/>
            </meta>
            <text>
               <status value="generated"/>
               <div xmlns="http://www.w3.org/1999/xhtml">
                  <table class="hl7__ips">
                     <tr>
                        <th>Vital Sign</th>
                        <th>Date</th>
                        <th>Measurement</th>
                     </tr>
                     <tr>
                        <td>Body Height</td>
                        <td>20-Apr-2025</td>
                        <td>156 cm</td>
                     </tr>
                  </table>
               </div>
            </text>
            <status value="final"/>
            <category>
               <coding>
                  <system value="http://terminology.hl7.org/CodeSystem/observation-category"/>
                  <code value="vital-signs"/>
                  <display value="Vital Signs"/>
               </coding>
            </category>
            <code>
               <coding>
                  <system value="http://loinc.org"/>
                  <code value="$8302-2"/>
                  <display value="Body Height"/>
               </coding>
            </code>
            <subject>
               <reference value="urn:uuid:c5de0a53-e757-4182-9880-a8f6c0107ec4"/>
               <display value="Katy Johnston"/>
            </subject>
            <effectiveDateTime value="2025-04-20"/>
            <valueQuantity>
               <value value="156"/>
               <unit value="cm"/>
               <code value="cm"/>
            </valueQuantity>
         </Observation>
      </resource>
   </entry>
   <entry>
      <fullUrl value="urn:uuid:cb68cc73-a0e1-4961-9128-a72c4ddaea42"/>
      <resource>
         <Observation>
            <id value="cb68cc73-a0e1-4961-9128-a72c4ddaea42"/>
            <meta>
               <profile value="http://hl7.org/fhir/StructureDefinition/vitalsigns"/>
            </meta>
            <text>
               <status value="generated"/>
               <div xmlns="http://www.w3.org/1999/xhtml">
                  <table class="hl7__ips">
                     <tr>
                        <th>Vital Sign</th>
                        <th>Date</th>
                        <th>Measurement</th>
                     </tr>
                     <tr>
                        <td>Pain severity - 0-10 verbal numeric rating [Score] - Reported</td>
                        <td>20-Apr-2025</td>
                        <td>3 {score}</td>
                     </tr>
                  </table>
               </div>
            </text>
            <status value="final"/>
            <category>
               <coding>
                  <system value="http://terminology.hl7.org/CodeSystem/observation-category"/>
                  <code value="vital-signs"/>
                  <display value="Vital Signs"/>
               </coding>
            </category>
            <code>
               <coding>
                  <system value="http://loinc.org"/>
                  <code value="$72514-3"/>
                  <display value="Pain severity - 0-10 verbal numeric rating [Score] - Reported"/>
               </coding>
            </code>
            <subject>
               <reference value="urn:uuid:c5de0a53-e757-4182-9880-a8f6c0107ec4"/>
               <display value="Katy Johnston"/>
            </subject>
            <effectiveDateTime value="2025-04-20"/>
            <valueQuantity>
               <value value="3"/>
               <unit value="{score}"/>
               <code value="{score}"/>
            </valueQuantity>
         </Observation>
      </resource>
   </entry>
   <entry>
      <fullUrl value="urn:uuid:e972ed30-0b22-496c-9596-308aa17cec60"/>
      <resource>
         <Observation>
            <id value="e972ed30-0b22-496c-9596-308aa17cec60"/>
            <meta>
               <profile value="http://hl7.org/fhir/StructureDefinition/vitalsigns"/>
            </meta>
            <text>
               <status value="generated"/>
               <div xmlns="http://www.w3.org/1999/xhtml">
                  <table class="hl7__ips">
                     <tr>
                        <th>Vital Sign</th>
                        <th>Date</th>
                        <th>Measurement</th>
                     </tr>
                     <tr>
                        <td>Body Weight</td>
                        <td>20-Apr-2025</td>
                        <td>75.1 kg</td>
                     </tr>
                  </table>
               </div>
            </text>
            <status value="final"/>
            <category>
               <coding>
                  <system value="http://terminology.hl7.org/CodeSystem/observation-category"/>
                  <code value="vital-signs"/>
                  <display value="Vital Signs"/>
               </coding>
            </category>
            <code>
               <coding>
                  <system value="http://loinc.org"/>
                  <code value="$29463-7"/>
                  <display value="Body Weight"/>
               </coding>
            </code>
            <subject>
               <reference value="urn:uuid:c5de0a53-e757-4182-9880-a8f6c0107ec4"/>
               <display value="Katy Johnston"/>
            </subject>
            <effectiveDateTime value="2025-04-20"/>
            <valueQuantity>
               <value value="75.1"/>
               <unit value="kg"/>
               <code value="kg"/>
            </valueQuantity>
         </Observation>
      </resource>
   </entry>
   <entry>
      <fullUrl value="urn:uuid:973a98c3-b61d-4c04-a87f-d18480658734"/>
      <resource>
         <Observation>
            <id value="973a98c3-b61d-4c04-a87f-d18480658734"/>
            <meta>
               <profile value="http://hl7.org/fhir/StructureDefinition/vitalsigns"/>
            </meta>
            <text>
               <status value="generated"/>
               <div xmlns="http://www.w3.org/1999/xhtml">
                  <table class="hl7__ips">
                     <tr>
                        <th>Vital Sign</th>
                        <th>Date</th>
                        <th>Measurement</th>
                     </tr>
                     <tr>
                        <td>Body mass index (BMI) [Ratio]</td>
                        <td>20-Apr-2025</td>
                        <td>30.9 kg/m2</td>
                     </tr>
                  </table>
               </div>
            </text>
            <status value="final"/>
            <category>
               <coding>
                  <system value="http://terminology.hl7.org/CodeSystem/observation-category"/>
                  <code value="vital-signs"/>
                  <display value="Vital Signs"/>
               </coding>
            </category>
            <code>
               <coding>
                  <system value="http://loinc.org"/>
                  <code value="$39156-5"/>
                  <display value="Body mass index (BMI) [Ratio]"/>
               </coding>
            </code>
            <subject>
               <reference value="urn:uuid:c5de0a53-e757-4182-9880-a8f6c0107ec4"/>
               <display value="Katy Johnston"/>
            </subject>
            <effectiveDateTime value="2025-04-20"/>
            <valueQuantity>
               <value value="30.9"/>
               <unit value="kg/m2"/>
               <code value="kg/m2"/>
            </valueQuantity>
         </Observation>
      </resource>
   </entry>
   <entry>
      <fullUrl value="urn:uuid:9415b5a5-3689-40c6-ba3a-a42d5209e2b4"/>
      <resource>
         <Observation>
            <id value="9415b5a5-3689-40c6-ba3a-a42d5209e2b4"/>
            <meta>
               <profile value="http://hl7.org/fhir/StructureDefinition/vitalsigns"/>
            </meta>
            <text>
               <status value="generated"/>
               <div xmlns="http://www.w3.org/1999/xhtml">
                  <table class="hl7__ips">
                     <tr>
                        <th>Vital Sign</th>
                        <th>Date</th>
                        <th>Measurement</th>
                     </tr>
                     <tr>
                        <td>Diastolic Blood Pressure</td>
                        <td>20-Apr-2025</td>
                        <td>72 mm[Hg]</td>
                     </tr>
                  </table>
               </div>
            </text>
            <status value="final"/>
            <category>
               <coding>
                  <system value="http://terminology.hl7.org/CodeSystem/observation-category"/>
                  <code value="vital-signs"/>
                  <display value="Vital Signs"/>
               </coding>
            </category>
            <code>
               <coding>
                  <system value="http://loinc.org"/>
                  <code value="$8462-4"/>
                  <display value="Diastolic Blood Pressure"/>
               </coding>
            </code>
            <subject>
               <reference value="urn:uuid:c5de0a53-e757-4182-9880-a8f6c0107ec4"/>
               <display value="Katy Johnston"/>
            </subject>
            <effectiveDateTime value="2025-04-20"/>
            <valueQuantity>
               <value value="72"/>
               <unit value="mm[Hg]"/>
               <code value="mm[Hg]"/>
            </valueQuantity>
         </Observation>
      </resource>
   </entry>
   <entry>
      <fullUrl value="urn:uuid:b2d8c8f8-d45b-4116-bed7-f2efbb500125"/>
      <resource>
         <Observation>
            <id value="b2d8c8f8-d45b-4116-bed7-f2efbb500125"/>
            <meta>
               <profile value="http://hl7.org/fhir/StructureDefinition/vitalsigns"/>
            </meta>
            <text>
               <status value="generated"/>
               <div xmlns="http://www.w3.org/1999/xhtml">
                  <table class="hl7__ips">
                     <tr>
                        <th>Vital Sign</th>
                        <th>Date</th>
                        <th>Measurement</th>
                     </tr>
                     <tr>
                        <td>Systolic Blood Pressure</td>
                        <td>20-Apr-2025</td>
                        <td>129 mm[Hg]</td>
                     </tr>
                  </table>
               </div>
            </text>
            <status value="final"/>
            <category>
               <coding>
                  <system value="http://terminology.hl7.org/CodeSystem/observation-category"/>
                  <code value="vital-signs"/>
                  <display value="Vital Signs"/>
               </coding>
            </category>
            <code>
               <coding>
                  <system value="http://loinc.org"/>
                  <code value="$8480-6"/>
                  <display value="Systolic Blood Pressure"/>
               </coding>
            </code>
            <subject>
               <reference value="urn:uuid:c5de0a53-e757-4182-9880-a8f6c0107ec4"/>
               <display value="Katy Johnston"/>
            </subject>
            <effectiveDateTime value="2025-04-20"/>
            <valueQuantity>
               <value value="129"/>
               <unit value="mm[Hg]"/>
               <code value="mm[Hg]"/>
            </valueQuantity>
         </Observation>
      </resource>
   </entry>
   <entry>
      <fullUrl value="urn:uuid:6af71ff5-652b-414d-ad05-4303e0a09fdb"/>
      <resource>
         <Observation>
            <id value="6af71ff5-652b-414d-ad05-4303e0a09fdb"/>
            <meta>
               <profile value="http://hl7.org/fhir/StructureDefinition/vitalsigns"/>
            </meta>
            <text>
               <status value="generated"/>
               <div xmlns="http://www.w3.org/1999/xhtml">
                  <table class="hl7__ips">
                     <tr>
                        <th>Vital Sign</th>
                        <th>Date</th>
                        <th>Measurement</th>
                     </tr>
                     <tr>
                        <td>Heart rate</td>
                        <td>20-Apr-2025</td>
                        <td>88 /min</td>
                     </tr>
                  </table>
               </div>
            </text>
            <status value="final"/>
            <category>
               <coding>
                  <system value="http://terminology.hl7.org/CodeSystem/observation-category"/>
                  <code value="vital-signs"/>
                  <display value="Vital Signs"/>
               </coding>
            </category>
            <code>
               <coding>
                  <system value="http://loinc.org"/>
                  <code value="$8867-4"/>
                  <display value="Heart rate"/>
               </coding>
            </code>
            <subject>
               <reference value="urn:uuid:c5de0a53-e757-4182-9880-a8f6c0107ec4"/>
               <display value="Katy Johnston"/>
            </subject>
            <effectiveDateTime value="2025-04-20"/>
            <valueQuantity>
               <value value="88"/>
               <unit value="/min"/>
               <code value="/min"/>
            </valueQuantity>
         </Observation>
      </resource>
   </entry>
   <entry>
      <fullUrl value="urn:uuid:63d123a7-bb72-45de-ad10-1ebca27e15d7"/>
      <resource>
         <Observation>
            <id value="63d123a7-bb72-45de-ad10-1ebca27e15d7"/>
            <meta>
               <profile value="http://hl7.org/fhir/StructureDefinition/vitalsigns"/>
            </meta>
            <text>
               <status value="generated"/>
               <div xmlns="http://www.w3.org/1999/xhtml">
                  <table class="hl7__ips">
                     <tr>
                        <th>Vital Sign</th>
                        <th>Date</th>
                        <th>Measurement</th>
                     </tr>
                     <tr>
                        <td>Respiratory rate</td>
                        <td>20-Apr-2025</td>
                        <td>16 /min</td>
                     </tr>
                  </table>
               </div>
            </text>
            <status value="final"/>
            <category>
               <coding>
                  <system value="http://terminology.hl7.org/CodeSystem/observation-category"/>
                  <code value="vital-signs"/>
                  <display value="Vital Signs"/>
               </coding>
            </category>
            <code>
               <coding>
                  <system value="http://loinc.org"/>
                  <code value="$9279-1"/>
                  <display value="Respiratory rate"/>
               </coding>
            </code>
            <subject>
               <reference value="urn:uuid:c5de0a53-e757-4182-9880-a8f6c0107ec4"/>
               <display value="Katy Johnston"/>
            </subject>
            <effectiveDateTime value="2025-04-20"/>
            <valueQuantity>
               <value value="16"/>
               <unit value="/min"/>
               <code value="/min"/>
            </valueQuantity>
         </Observation>
      </resource>
   </entry>
   <entry>
      <fullUrl value="urn:uuid:32d3ee42-a864-4d48-8ae7-b64dc41946ab"/>
      <resource>
         <Observation>
            <id value="32d3ee42-a864-4d48-8ae7-b64dc41946ab"/>
            <meta>
               <profile value="http://hl7.org/fhir/StructureDefinition/vitalsigns"/>
            </meta>
            <text>
               <status value="generated"/>
               <div xmlns="http://www.w3.org/1999/xhtml">
                  <table class="hl7__ips">
                     <tr>
                        <th>Vital Sign</th>
                        <th>Date</th>
                        <th>Measurement</th>
                     </tr>
                     <tr>
                        <td>Pain severity - 0-10 verbal numeric rating [Score] - Reported</td>
                        <td>13-Mar-2025</td>
                        <td>6 {score}</td>
                     </tr>
                  </table>
               </div>
            </text>
            <status value="final"/>
            <category>
               <coding>
                  <system value="http://terminology.hl7.org/CodeSystem/observation-category"/>
                  <code value="vital-signs"/>
                  <display value="Vital Signs"/>
               </coding>
            </category>
            <code>
               <coding>
                  <system value="http://loinc.org"/>
                  <code value="$72514-3"/>
                  <display value="Pain severity - 0-10 verbal numeric rating [Score] - Reported"/>
               </coding>
            </code>
            <subject>
               <reference value="urn:uuid:c5de0a53-e757-4182-9880-a8f6c0107ec4"/>
               <display value="Katy Johnston"/>
            </subject>
            <effectiveDateTime value="2025-03-13"/>
            <valueQuantity>
               <value value="6"/>
               <unit value="{score}"/>
               <code value="{score}"/>
            </valueQuantity>
         </Observation>
      </resource>
   </entry>
   <entry>
      <fullUrl value="urn:uuid:dfbf8ac5-ac9a-48b4-9b6d-2dca27af319c"/>
      <resource>
         <Observation>
            <id value="dfbf8ac5-ac9a-48b4-9b6d-2dca27af319c"/>
            <meta>
               <profile value="http://hl7.eu/fhir/laboratory/StructureDefinition/Observation-resultslab-eu-lab"/>
            </meta>
            <text>
               <status value="generated"/>
               <div xmlns="http://www.w3.org/1999/xhtml">
                  <table class="hl7__eu__lab__report">
                     <tr>
                        <th>Test</th>
                        <th>20-Apr-2025</th>
                        <th>Reference Range</th>
                        <th>Unit</th>
                     </tr>
                     <tr>
                        <td>Hemoglobin A1c/Hemoglobin.total in Blood</td>
                        <td>6.0</td>
                        <td>4.8 - 5.7</td>
                        <td>H</td>
                        <td>%</td>
                     </tr>
                  </table>
               </div>
            </text>
            <status value="final"/>
            <category>
               <coding>
                  <system value="http://terminology.hl7.org/CodeSystem/observation-category"/>
                  <code value="laboratory"/>
               </coding>
            </category>
            <code>
               <coding>
                  <system value="http://loinc.org"/>
                  <code value="4548-4"/>
                  <display value="Hemoglobin A1c/Hemoglobin.total in Blood"/>
               </coding>
               <text value="Hemoglobin A1c/Hemoglobin.total in Blood"/>
            </code>
            <subject>
               <reference value="urn:uuid:c5de0a53-e757-4182-9880-a8f6c0107ec4"/>
               <display value="Katy Johnston"/>
            </subject>
            <effectiveDateTime value="2025-04-20T09:58:49Z"/>
            <performer>
               <display value="The Central European Lab"/>
            </performer>
            <valueQuantity>
               <value value="6"/>
               <unit value="%"/>
               <system value="http://unitsofmeasure.org"/>
               <code value="%"/>
            </valueQuantity>
            <interpretation>
               <coding>
                  <system value="http://terminology.hl7.org/CodeSystem/v3-ObservationInterpretation"/>
                  <code value="H"/>
                  <display value="High"/>
               </coding>
            </interpretation>
            <referenceRange>
               <low>
                  <value value="4.8"/>
                  <system value="http://unitsofmeasure.org"/>
                  <code value="%"/>
               </low>
            </referenceRange>
            <referenceRange>
               <high>
                  <value value="5.7"/>
                  <system value="http://unitsofmeasure.org"/>
                  <code value="%"/>
               </high>
            </referenceRange>
         </Observation>
      </resource>
   </entry>
   <entry>
      <fullUrl value="urn:uuid:330a7112-570f-4467-baa2-2f61c3fc5495"/>
      <resource>
         <Observation>
            <id value="330a7112-570f-4467-baa2-2f61c3fc5495"/>
            <meta>
               <profile value="http://hl7.eu/fhir/laboratory/StructureDefinition/Observation-resultslab-eu-lab"/>
            </meta>
            <text>
               <status value="generated"/>
               <div xmlns="http://www.w3.org/1999/xhtml">
                  <table class="hl7__eu__lab__report">
                     <tr>
                        <th>Test</th>
                        <th>20-Apr-2025</th>
                        <th>Reference Range</th>
                        <th>Unit</th>
                     </tr>
                     <tr>
                        <td>Glucose [Mass/volume] in Blood</td>
                        <td>74.1</td>
                        <td>70 - 140</td>
                        <td/>
                        <td>mg/dL</td>
                     </tr>
                  </table>
               </div>
            </text>
            <status value="final"/>
            <category>
               <coding>
                  <system value="http://terminology.hl7.org/CodeSystem/observation-category"/>
                  <code value="laboratory"/>
               </coding>
            </category>
            <code>
               <coding>
                  <system value="http://loinc.org"/>
                  <code value="2339-0"/>
                  <display value="Glucose [Mass/volume] in Blood"/>
               </coding>
               <text value="Glucose [Mass/volume] in Blood"/>
            </code>
            <subject>
               <reference value="urn:uuid:c5de0a53-e757-4182-9880-a8f6c0107ec4"/>
               <display value="Katy Johnston"/>
            </subject>
            <effectiveDateTime value="2025-04-20T09:58:49Z"/>
            <performer>
               <display value="The Central European Lab"/>
            </performer>
            <valueQuantity>
               <value value="74.1"/>
               <unit value="mg/dL"/>
               <system value="http://unitsofmeasure.org"/>
               <code value="mg/dL"/>
            </valueQuantity>
            <referenceRange>
               <low>
                  <value value="70"/>
                  <system value="http://unitsofmeasure.org"/>
                  <code value="mg/dL"/>
               </low>
            </referenceRange>
            <referenceRange>
               <high>
                  <value value="140"/>
                  <system value="http://unitsofmeasure.org"/>
                  <code value="mg/dL"/>
               </high>
            </referenceRange>
         </Observation>
      </resource>
   </entry>
   <entry>
      <fullUrl value="urn:uuid:fd6305f5-519e-46fe-a112-8ccf1f6a6bee"/>
      <resource>
         <Observation>
            <id value="fd6305f5-519e-46fe-a112-8ccf1f6a6bee"/>
            <meta>
               <profile value="http://hl7.eu/fhir/laboratory/StructureDefinition/Observation-resultslab-eu-lab"/>
            </meta>
            <text>
               <status value="generated"/>
               <div xmlns="http://www.w3.org/1999/xhtml">
                  <table class="hl7__eu__lab__report">
                     <tr>
                        <th>Test</th>
                        <th>20-Apr-2025</th>
                        <th>Reference Range</th>
                        <th>Unit</th>
                     </tr>
                     <tr>
                        <td>Urea nitrogen [Mass/volume] in Blood</td>
                        <td>10.1</td>
                        <td>7 - 20</td>
                        <td/>
                        <td>mg/dL</td>
                     </tr>
                  </table>
               </div>
            </text>
            <status value="final"/>
            <category>
               <coding>
                  <system value="http://terminology.hl7.org/CodeSystem/observation-category"/>
                  <code value="laboratory"/>
               </coding>
            </category>
            <code>
               <coding>
                  <system value="http://loinc.org"/>
                  <code value="6299-2"/>
                  <display value="Urea nitrogen [Mass/volume] in Blood"/>
               </coding>
               <text value="Urea nitrogen [Mass/volume] in Blood"/>
            </code>
            <subject>
               <reference value="urn:uuid:c5de0a53-e757-4182-9880-a8f6c0107ec4"/>
               <display value="Katy Johnston"/>
            </subject>
            <effectiveDateTime value="2025-04-20T09:58:49Z"/>
            <performer>
               <display value="The Central European Lab"/>
            </performer>
            <valueQuantity>
               <value value="10.1"/>
               <unit value="mg/dL"/>
               <system value="http://unitsofmeasure.org"/>
               <code value="mg/dL"/>
            </valueQuantity>
            <referenceRange>
               <low>
                  <value value="7"/>
                  <system value="http://unitsofmeasure.org"/>
                  <code value="mg/dL"/>
               </low>
            </referenceRange>
            <referenceRange>
               <high>
                  <value value="20"/>
                  <system value="http://unitsofmeasure.org"/>
                  <code value="mg/dL"/>
               </high>
            </referenceRange>
         </Observation>
      </resource>
   </entry>
   <entry>
      <fullUrl value="urn:uuid:b1653089-71e6-43fe-987e-93559a78786c"/>
      <resource>
         <Observation>
            <id value="b1653089-71e6-43fe-987e-93559a78786c"/>
            <meta>
               <profile value="http://hl7.eu/fhir/laboratory/StructureDefinition/Observation-resultslab-eu-lab"/>
            </meta>
            <text>
               <status value="generated"/>
               <div xmlns="http://www.w3.org/1999/xhtml">
                  <table class="hl7__eu__lab__report">
                     <tr>
                        <th>Test</th>
                        <th>20-Apr-2025</th>
                        <th>Reference Range</th>
                        <th>Unit</th>
                     </tr>
                     <tr>
                        <td>Creatinine [Mass/volume] in Blood</td>
                        <td>0.9</td>
                        <td>0.6 - 1.2</td>
                        <td/>
                        <td>mg/dL</td>
                     </tr>
                  </table>
               </div>
            </text>
            <status value="final"/>
            <category>
               <coding>
                  <system value="http://terminology.hl7.org/CodeSystem/observation-category"/>
                  <code value="laboratory"/>
               </coding>
            </category>
            <code>
               <coding>
                  <system value="http://loinc.org"/>
                  <code value="38483-4"/>
                  <display value="Creatinine [Mass/volume] in Blood"/>
               </coding>
               <text value="Creatinine [Mass/volume] in Blood"/>
            </code>
            <subject>
               <reference value="urn:uuid:c5de0a53-e757-4182-9880-a8f6c0107ec4"/>
               <display value="Katy Johnston"/>
            </subject>
            <effectiveDateTime value="2025-04-20T09:58:49Z"/>
            <performer>
               <display value="The Central European Lab"/>
            </performer>
            <valueQuantity>
               <value value="0.9"/>
               <unit value="mg/dL"/>
               <system value="http://unitsofmeasure.org"/>
               <code value="mg/dL"/>
            </valueQuantity>
            <referenceRange>
               <low>
                  <value value="0.6"/>
                  <system value="http://unitsofmeasure.org"/>
                  <code value="mg/dL"/>
               </low>
            </referenceRange>
            <referenceRange>
               <high>
                  <value value="1.2"/>
                  <system value="http://unitsofmeasure.org"/>
                  <code value="mg/dL"/>
               </high>
            </referenceRange>
         </Observation>
      </resource>
   </entry>
   <entry>
      <fullUrl value="urn:uuid:ab446dd0-dc41-4d0e-8b63-e326ac888ee4"/>
      <resource>
         <Observation>
            <id value="ab446dd0-dc41-4d0e-8b63-e326ac888ee4"/>
            <meta>
               <profile value="http://hl7.eu/fhir/laboratory/StructureDefinition/Observation-resultslab-eu-lab"/>
            </meta>
            <text>
               <status value="generated"/>
               <div xmlns="http://www.w3.org/1999/xhtml">
                  <table class="hl7__eu__lab__report">
                     <tr>
                        <th>Test</th>
                        <th>20-Apr-2025</th>
                        <th>Reference Range</th>
                        <th>Unit</th>
                     </tr>
                     <tr>
                        <td>Calcium [Mass/volume] in Blood</td>
                        <td>9.0</td>
                        <td>8.5 - 10.4</td>
                        <td/>
                        <td>mg/dL</td>
                     </tr>
                  </table>
               </div>
            </text>
            <status value="final"/>
            <category>
               <coding>
                  <system value="http://terminology.hl7.org/CodeSystem/observation-category"/>
                  <code value="laboratory"/>
               </coding>
            </category>
            <code>
               <coding>
                  <system value="http://loinc.org"/>
                  <code value="49765-1"/>
                  <display value="Calcium [Mass/volume] in Blood"/>
               </coding>
               <text value="Calcium [Mass/volume] in Blood"/>
            </code>
            <subject>
               <reference value="urn:uuid:c5de0a53-e757-4182-9880-a8f6c0107ec4"/>
               <display value="Katy Johnston"/>
            </subject>
            <effectiveDateTime value="2025-04-20T09:58:49Z"/>
            <performer>
               <display value="The Central European Lab"/>
            </performer>
            <valueQuantity>
               <value value="9"/>
               <unit value="mg/dL"/>
               <system value="http://unitsofmeasure.org"/>
               <code value="mg/dL"/>
            </valueQuantity>
            <referenceRange>
               <low>
                  <value value="8.5"/>
                  <system value="http://unitsofmeasure.org"/>
                  <code value="mg/dL"/>
               </low>
            </referenceRange>
            <referenceRange>
               <high>
                  <value value="10.4"/>
                  <system value="http://unitsofmeasure.org"/>
                  <code value="mg/dL"/>
               </high>
            </referenceRange>
         </Observation>
      </resource>
   </entry>
   <entry>
      <fullUrl value="urn:uuid:a7fff1ea-ab8c-4524-a5de-91db54f6d55b"/>
      <resource>
         <Observation>
            <id value="a7fff1ea-ab8c-4524-a5de-91db54f6d55b"/>
            <meta>
               <profile value="http://hl7.eu/fhir/laboratory/StructureDefinition/Observation-resultslab-eu-lab"/>
            </meta>
            <text>
               <status value="generated"/>
               <div xmlns="http://www.w3.org/1999/xhtml">
                  <table class="hl7__eu__lab__report">
                     <tr>
                        <th>Test</th>
                        <th>20-Apr-2025</th>
                        <th>Reference Range</th>
                        <th>Unit</th>
                     </tr>
                     <tr>
                        <td>Sodium [Moles/volume] in Blood</td>
                        <td>138.6</td>
                        <td>135 - 145</td>
                        <td/>
                        <td>mmol/L</td>
                     </tr>
                  </table>
               </div>
            </text>
            <status value="final"/>
            <category>
               <coding>
                  <system value="http://terminology.hl7.org/CodeSystem/observation-category"/>
                  <code value="laboratory"/>
               </coding>
            </category>
            <code>
               <coding>
                  <system value="http://loinc.org"/>
                  <code value="2947-0"/>
                  <display value="Sodium [Moles/volume] in Blood"/>
               </coding>
               <text value="Sodium [Moles/volume] in Blood"/>
            </code>
            <subject>
               <reference value="urn:uuid:c5de0a53-e757-4182-9880-a8f6c0107ec4"/>
               <display value="Katy Johnston"/>
            </subject>
            <effectiveDateTime value="2025-04-20T09:58:49Z"/>
            <performer>
               <display value="The Central European Lab"/>
            </performer>
            <valueQuantity>
               <value value="138.6"/>
               <unit value="mmol/L"/>
               <system value="http://unitsofmeasure.org"/>
               <code value="mmol/L"/>
            </valueQuantity>
            <referenceRange>
               <low>
                  <value value="135"/>
                  <system value="http://unitsofmeasure.org"/>
                  <code value="mmol/L"/>
               </low>
            </referenceRange>
            <referenceRange>
               <high>
                  <value value="145"/>
                  <system value="http://unitsofmeasure.org"/>
                  <code value="mmol/L"/>
               </high>
            </referenceRange>
         </Observation>
      </resource>
   </entry>
   <entry>
      <fullUrl value="urn:uuid:86b5a4f1-96fb-4e35-8fa4-e9786bfa7823"/>
      <resource>
         <Observation>
            <id value="86b5a4f1-96fb-4e35-8fa4-e9786bfa7823"/>
            <meta>
               <profile value="http://hl7.eu/fhir/laboratory/StructureDefinition/Observation-resultslab-eu-lab"/>
            </meta>
            <text>
               <status value="generated"/>
               <div xmlns="http://www.w3.org/1999/xhtml">
                  <table class="hl7__eu__lab__report">
                     <tr>
                        <th>Test</th>
                        <th>20-Apr-2025</th>
                        <th>Reference Range</th>
                        <th>Unit</th>
                     </tr>
                     <tr>
                        <td>Potassium [Moles/volume] in Blood</td>
                        <td>4.9</td>
                        <td>3.5 - 5.1</td>
                        <td/>
                        <td>mmol/L</td>
                     </tr>
                  </table>
               </div>
            </text>
            <status value="final"/>
            <category>
               <coding>
                  <system value="http://terminology.hl7.org/CodeSystem/observation-category"/>
                  <code value="laboratory"/>
               </coding>
            </category>
            <code>
               <coding>
                  <system value="http://loinc.org"/>
                  <code value="6298-4"/>
                  <display value="Potassium [Moles/volume] in Blood"/>
               </coding>
               <text value="Potassium [Moles/volume] in Blood"/>
            </code>
            <subject>
               <reference value="urn:uuid:c5de0a53-e757-4182-9880-a8f6c0107ec4"/>
               <display value="Katy Johnston"/>
            </subject>
            <effectiveDateTime value="2025-04-20T09:58:49Z"/>
            <performer>
               <display value="The Central European Lab"/>
            </performer>
            <valueQuantity>
               <value value="4.9"/>
               <unit value="mmol/L"/>
               <system value="http://unitsofmeasure.org"/>
               <code value="mmol/L"/>
            </valueQuantity>
            <referenceRange>
               <low>
                  <value value="3.5"/>
                  <system value="http://unitsofmeasure.org"/>
                  <code value="mmol/L"/>
               </low>
            </referenceRange>
            <referenceRange>
               <high>
                  <value value="5.1"/>
                  <system value="http://unitsofmeasure.org"/>
                  <code value="mmol/L"/>
               </high>
            </referenceRange>
         </Observation>
      </resource>
   </entry>
   <entry>
      <fullUrl value="urn:uuid:92f7cfc8-388f-44c0-ae8c-fa4af6ad0a39"/>
      <resource>
         <Observation>
            <id value="92f7cfc8-388f-44c0-ae8c-fa4af6ad0a39"/>
            <meta>
               <profile value="http://hl7.eu/fhir/laboratory/StructureDefinition/Observation-resultslab-eu-lab"/>
            </meta>
            <text>
               <status value="generated"/>
               <div xmlns="http://www.w3.org/1999/xhtml">
                  <table class="hl7__eu__lab__report">
                     <tr>
                        <th>Test</th>
                        <th>20-Apr-2025</th>
                        <th>Reference Range</th>
                        <th>Unit</th>
                     </tr>
                     <tr>
                        <td>Chloride [Moles/volume] in Blood</td>
                        <td>106.5</td>
                        <td>98 - 107</td>
                        <td/>
                        <td>mmol/L</td>
                     </tr>
                  </table>
               </div>
            </text>
            <status value="final"/>
            <category>
               <coding>
                  <system value="http://terminology.hl7.org/CodeSystem/observation-category"/>
                  <code value="laboratory"/>
               </coding>
            </category>
            <code>
               <coding>
                  <system value="http://loinc.org"/>
                  <code value="2069-3"/>
                  <display value="Chloride [Moles/volume] in Blood"/>
               </coding>
               <text value="Chloride [Moles/volume] in Blood"/>
            </code>
            <subject>
               <reference value="urn:uuid:c5de0a53-e757-4182-9880-a8f6c0107ec4"/>
               <display value="Katy Johnston"/>
            </subject>
            <effectiveDateTime value="2025-04-20T09:58:49Z"/>
            <performer>
               <display value="The Central European Lab"/>
            </performer>
            <valueQuantity>
               <value value="106.5"/>
               <unit value="mmol/L"/>
               <system value="http://unitsofmeasure.org"/>
               <code value="mmol/L"/>
            </valueQuantity>
            <referenceRange>
               <low>
                  <value value="98"/>
                  <system value="http://unitsofmeasure.org"/>
                  <code value="mmol/L"/>
               </low>
            </referenceRange>
            <referenceRange>
               <high>
                  <value value="107"/>
                  <system value="http://unitsofmeasure.org"/>
                  <code value="mmol/L"/>
               </high>
            </referenceRange>
         </Observation>
      </resource>
   </entry>
   <entry>
      <fullUrl value="urn:uuid:bcbe7374-d2b5-476d-ba31-068a471675bc"/>
      <resource>
         <Observation>
            <id value="bcbe7374-d2b5-476d-ba31-068a471675bc"/>
            <meta>
               <profile value="http://hl7.eu/fhir/laboratory/StructureDefinition/Observation-resultslab-eu-lab"/>
            </meta>
            <text>
               <status value="generated"/>
               <div xmlns="http://www.w3.org/1999/xhtml">
                  <table class="hl7__eu__lab__report">
                     <tr>
                        <th>Test</th>
                        <th>20-Apr-2025</th>
                        <th>Reference Range</th>
                        <th>Unit</th>
                     </tr>
                     <tr>
                        <td>Carbon dioxide, total [Moles/volume] in Blood</td>
                        <td>22.1</td>
                        <td>22 - 29</td>
                        <td/>
                        <td>mmol/L</td>
                     </tr>
                  </table>
               </div>
            </text>
            <status value="final"/>
            <category>
               <coding>
                  <system value="http://terminology.hl7.org/CodeSystem/observation-category"/>
                  <code value="laboratory"/>
               </coding>
            </category>
            <code>
               <coding>
                  <system value="http://loinc.org"/>
                  <code value="20565-8"/>
                  <display value="Carbon dioxide, total [Moles/volume] in Blood"/>
               </coding>
               <text value="Carbon dioxide, total [Moles/volume] in Blood"/>
            </code>
            <subject>
               <reference value="urn:uuid:c5de0a53-e757-4182-9880-a8f6c0107ec4"/>
               <display value="Katy Johnston"/>
            </subject>
            <effectiveDateTime value="2025-04-20T09:58:49Z"/>
            <performer>
               <display value="The Central European Lab"/>
            </performer>
            <valueQuantity>
               <value value="22.1"/>
               <unit value="mmol/L"/>
               <system value="http://unitsofmeasure.org"/>
               <code value="mmol/L"/>
            </valueQuantity>
            <referenceRange>
               <low>
                  <value value="22"/>
                  <system value="http://unitsofmeasure.org"/>
                  <code value="mmol/L"/>
               </low>
            </referenceRange>
            <referenceRange>
               <high>
                  <value value="29"/>
                  <system value="http://unitsofmeasure.org"/>
                  <code value="mmol/L"/>
               </high>
            </referenceRange>
         </Observation>
      </resource>
   </entry>
   <entry>
      <fullUrl value="urn:uuid:3531f361-a201-4514-8335-f33787807c60"/>
      <resource>
         <Observation>
            <id value="3531f361-a201-4514-8335-f33787807c60"/>
            <meta>
               <profile value="http://hl7.eu/fhir/laboratory/StructureDefinition/Observation-resultslab-eu-lab"/>
            </meta>
            <text>
               <status value="generated"/>
               <div xmlns="http://www.w3.org/1999/xhtml">
                  <table class="hl7__eu__lab__report">
                     <tr>
                        <th>Test</th>
                        <th>20-Apr-2025</th>
                        <th>Reference Range</th>
                        <th>Unit</th>
                     </tr>
                     <tr>
                        <td>Leukocytes [#/volume] in Blood by Automated count</td>
                        <td>4.3</td>
                        <td>3.4 - 10</td>
                        <td/>
                        <td>10*3/uL</td>
                     </tr>
                  </table>
               </div>
            </text>
            <status value="final"/>
            <category>
               <coding>
                  <system value="http://terminology.hl7.org/CodeSystem/observation-category"/>
                  <code value="laboratory"/>
               </coding>
            </category>
            <code>
               <coding>
                  <system value="http://loinc.org"/>
                  <code value="6690-2"/>
                  <display value="Leukocytes [#/volume] in Blood by Automated count"/>
               </coding>
               <text value="Leukocytes [#/volume] in Blood by Automated count"/>
            </code>
            <subject>
               <reference value="urn:uuid:c5de0a53-e757-4182-9880-a8f6c0107ec4"/>
               <display value="Katy Johnston"/>
            </subject>
            <effectiveDateTime value="2025-04-20T09:58:49Z"/>
            <performer>
               <display value="The Central European Lab"/>
            </performer>
            <valueQuantity>
               <value value="4.3"/>
               <unit value="10*3/uL"/>
               <system value="http://unitsofmeasure.org"/>
               <code value="10*3/uL"/>
            </valueQuantity>
            <referenceRange>
               <low>
                  <value value="3.4"/>
                  <system value="http://unitsofmeasure.org"/>
                  <code value="10*3/uL"/>
               </low>
            </referenceRange>
            <referenceRange>
               <high>
                  <value value="10"/>
                  <system value="http://unitsofmeasure.org"/>
                  <code value="10*3/uL"/>
               </high>
            </referenceRange>
         </Observation>
      </resource>
   </entry>
   <entry>
      <fullUrl value="urn:uuid:13b6df27-51ac-4b3c-bd63-182b1d7a1957"/>
      <resource>
         <Observation>
            <id value="13b6df27-51ac-4b3c-bd63-182b1d7a1957"/>
            <meta>
               <profile value="http://hl7.eu/fhir/laboratory/StructureDefinition/Observation-resultslab-eu-lab"/>
            </meta>
            <text>
               <status value="generated"/>
               <div xmlns="http://www.w3.org/1999/xhtml">
                  <table class="hl7__eu__lab__report">
                     <tr>
                        <th>Test</th>
                        <th>20-Apr-2025</th>
                        <th>Reference Range</th>
                        <th>Unit</th>
                     </tr>
                     <tr>
                        <td>Erythrocytes [#/volume] in Blood by Automated count</td>
                        <td>5.0</td>
                        <td>4.5 - 5.2</td>
                        <td/>
                        <td>10*6/uL</td>
                     </tr>
                  </table>
               </div>
            </text>
            <status value="final"/>
            <category>
               <coding>
                  <system value="http://terminology.hl7.org/CodeSystem/observation-category"/>
                  <code value="laboratory"/>
               </coding>
            </category>
            <code>
               <coding>
                  <system value="http://loinc.org"/>
                  <code value="789-8"/>
                  <display value="Erythrocytes [#/volume] in Blood by Automated count"/>
               </coding>
               <text value="Erythrocytes [#/volume] in Blood by Automated count"/>
            </code>
            <subject>
               <reference value="urn:uuid:c5de0a53-e757-4182-9880-a8f6c0107ec4"/>
               <display value="Katy Johnston"/>
            </subject>
            <effectiveDateTime value="2025-04-20T09:58:49Z"/>
            <performer>
               <display value="The Central European Lab"/>
            </performer>
            <valueQuantity>
               <value value="5"/>
               <unit value="10*6/uL"/>
               <system value="http://unitsofmeasure.org"/>
               <code value="10*6/uL"/>
            </valueQuantity>
            <referenceRange>
               <low>
                  <value value="4.5"/>
                  <system value="http://unitsofmeasure.org"/>
                  <code value="10*6/uL"/>
               </low>
            </referenceRange>
            <referenceRange>
               <high>
                  <value value="5.2"/>
                  <system value="http://unitsofmeasure.org"/>
                  <code value="10*6/uL"/>
               </high>
            </referenceRange>
         </Observation>
      </resource>
   </entry>
   <entry>
      <fullUrl value="urn:uuid:e0439ce8-3513-488c-9fae-4695fd1ea87b"/>
      <resource>
         <Observation>
            <id value="e0439ce8-3513-488c-9fae-4695fd1ea87b"/>
            <meta>
               <profile value="http://hl7.eu/fhir/laboratory/StructureDefinition/Observation-resultslab-eu-lab"/>
            </meta>
            <text>
               <status value="generated"/>
               <div xmlns="http://www.w3.org/1999/xhtml">
                  <table class="hl7__eu__lab__report">
                     <tr>
                        <th>Test</th>
                        <th>20-Apr-2025</th>
                        <th>Reference Range</th>
                        <th>Unit</th>
                     </tr>
                     <tr>
                        <td>Hemoglobin [Mass/volume] in Blood</td>
                        <td>17.3</td>
                        <td>12 - 16</td>
                        <td>H</td>
                        <td>g/dL</td>
                     </tr>
                  </table>
               </div>
            </text>
            <status value="final"/>
            <category>
               <coding>
                  <system value="http://terminology.hl7.org/CodeSystem/observation-category"/>
                  <code value="laboratory"/>
               </coding>
            </category>
            <code>
               <coding>
                  <system value="http://loinc.org"/>
                  <code value="718-7"/>
                  <display value="Hemoglobin [Mass/volume] in Blood"/>
               </coding>
               <text value="Hemoglobin [Mass/volume] in Blood"/>
            </code>
            <subject>
               <reference value="urn:uuid:c5de0a53-e757-4182-9880-a8f6c0107ec4"/>
               <display value="Katy Johnston"/>
            </subject>
            <effectiveDateTime value="2025-04-20T09:58:49Z"/>
            <performer>
               <display value="The Central European Lab"/>
            </performer>
            <valueQuantity>
               <value value="17.3"/>
               <unit value="g/dL"/>
               <system value="http://unitsofmeasure.org"/>
               <code value="g/dL"/>
            </valueQuantity>
            <interpretation>
               <coding>
                  <system value="http://terminology.hl7.org/CodeSystem/v3-ObservationInterpretation"/>
                  <code value="H"/>
                  <display value="High"/>
               </coding>
            </interpretation>
            <referenceRange>
               <low>
                  <value value="12"/>
                  <system value="http://unitsofmeasure.org"/>
                  <code value="g/dL"/>
               </low>
            </referenceRange>
            <referenceRange>
               <high>
                  <value value="16"/>
                  <system value="http://unitsofmeasure.org"/>
                  <code value="g/dL"/>
               </high>
            </referenceRange>
         </Observation>
      </resource>
   </entry>
   <entry>
      <fullUrl value="urn:uuid:1959ecfe-d8bc-4431-9b84-3a055a1338eb"/>
      <resource>
         <Observation>
            <id value="1959ecfe-d8bc-4431-9b84-3a055a1338eb"/>
            <meta>
               <profile value="http://hl7.eu/fhir/laboratory/StructureDefinition/Observation-resultslab-eu-lab"/>
            </meta>
            <text>
               <status value="generated"/>
               <div xmlns="http://www.w3.org/1999/xhtml">
                  <table class="hl7__eu__lab__report">
                     <tr>
                        <th>Test</th>
                        <th>20-Apr-2025</th>
                        <th>Reference Range</th>
                        <th>Unit</th>
                     </tr>
                     <tr>
                        <td>Hematocrit [Volume Fraction] of Blood by Automated count</td>
                        <td>47.3</td>
                        <td>37 - 47</td>
                        <td>H</td>
                        <td>%</td>
                     </tr>
                  </table>
               </div>
            </text>
            <status value="final"/>
            <category>
               <coding>
                  <system value="http://terminology.hl7.org/CodeSystem/observation-category"/>
                  <code value="laboratory"/>
               </coding>
            </category>
            <code>
               <coding>
                  <system value="http://loinc.org"/>
                  <code value="4544-3"/>
                  <display value="Hematocrit [Volume Fraction] of Blood by Automated count"/>
               </coding>
               <text value="Hematocrit [Volume Fraction] of Blood by Automated count"/>
            </code>
            <subject>
               <reference value="urn:uuid:c5de0a53-e757-4182-9880-a8f6c0107ec4"/>
               <display value="Katy Johnston"/>
            </subject>
            <effectiveDateTime value="2025-04-20T09:58:49Z"/>
            <performer>
               <display value="The Central European Lab"/>
            </performer>
            <valueQuantity>
               <value value="47.3"/>
               <unit value="%"/>
               <system value="http://unitsofmeasure.org"/>
               <code value="%"/>
            </valueQuantity>
            <interpretation>
               <coding>
                  <system value="http://terminology.hl7.org/CodeSystem/v3-ObservationInterpretation"/>
                  <code value="H"/>
                  <display value="High"/>
               </coding>
            </interpretation>
            <referenceRange>
               <low>
                  <value value="37"/>
                  <system value="http://unitsofmeasure.org"/>
                  <code value="%"/>
               </low>
            </referenceRange>
            <referenceRange>
               <high>
                  <value value="47"/>
                  <system value="http://unitsofmeasure.org"/>
                  <code value="%"/>
               </high>
            </referenceRange>
         </Observation>
      </resource>
   </entry>
   <entry>
      <fullUrl value="urn:uuid:196a1e9f-7b95-4677-b606-ff38b88246c8"/>
      <resource>
         <Observation>
            <id value="196a1e9f-7b95-4677-b606-ff38b88246c8"/>
            <meta>
               <profile value="http://hl7.eu/fhir/laboratory/StructureDefinition/Observation-resultslab-eu-lab"/>
            </meta>
            <text>
               <status value="generated"/>
               <div xmlns="http://www.w3.org/1999/xhtml">
                  <table class="hl7__eu__lab__report">
                     <tr>
                        <th>Test</th>
                        <th>20-Apr-2025</th>
                        <th>Reference Range</th>
                        <th>Unit</th>
                     </tr>
                     <tr>
                        <td>MCV [Entitic volume] by Automated count</td>
                        <td>90.3</td>
                        <td>82 - 98</td>
                        <td/>
                        <td>fL</td>
                     </tr>
                  </table>
               </div>
            </text>
            <status value="final"/>
            <category>
               <coding>
                  <system value="http://terminology.hl7.org/CodeSystem/observation-category"/>
                  <code value="laboratory"/>
               </coding>
            </category>
            <code>
               <coding>
                  <system value="http://loinc.org"/>
                  <code value="787-2"/>
                  <display value="MCV [Entitic volume] by Automated count"/>
               </coding>
               <text value="MCV [Entitic volume] by Automated count"/>
            </code>
            <subject>
               <reference value="urn:uuid:c5de0a53-e757-4182-9880-a8f6c0107ec4"/>
               <display value="Katy Johnston"/>
            </subject>
            <effectiveDateTime value="2025-04-20T09:58:49Z"/>
            <performer>
               <display value="The Central European Lab"/>
            </performer>
            <valueQuantity>
               <value value="90.3"/>
               <unit value="fL"/>
               <system value="http://unitsofmeasure.org"/>
               <code value="fL"/>
            </valueQuantity>
            <referenceRange>
               <low>
                  <value value="82"/>
                  <system value="http://unitsofmeasure.org"/>
                  <code value="fL"/>
               </low>
            </referenceRange>
            <referenceRange>
               <high>
                  <value value="98"/>
                  <system value="http://unitsofmeasure.org"/>
                  <code value="fL"/>
               </high>
            </referenceRange>
         </Observation>
      </resource>
   </entry>
   <entry>
      <fullUrl value="urn:uuid:00dc701d-01f3-4232-ae8d-bffb21ba61e1"/>
      <resource>
         <Observation>
            <id value="00dc701d-01f3-4232-ae8d-bffb21ba61e1"/>
            <meta>
               <profile value="http://hl7.eu/fhir/laboratory/StructureDefinition/Observation-resultslab-eu-lab"/>
            </meta>
            <text>
               <status value="generated"/>
               <div xmlns="http://www.w3.org/1999/xhtml">
                  <table class="hl7__eu__lab__report">
                     <tr>
                        <th>Test</th>
                        <th>20-Apr-2025</th>
                        <th>Reference Range</th>
                        <th>Unit</th>
                     </tr>
                     <tr>
                        <td>MCH [Entitic mass] by Automated count</td>
                        <td>29.9</td>
                        <td>27 - 33</td>
                        <td/>
                        <td>pg</td>
                     </tr>
                  </table>
               </div>
            </text>
            <status value="final"/>
            <category>
               <coding>
                  <system value="http://terminology.hl7.org/CodeSystem/observation-category"/>
                  <code value="laboratory"/>
               </coding>
            </category>
            <code>
               <coding>
                  <system value="http://loinc.org"/>
                  <code value="785-6"/>
                  <display value="MCH [Entitic mass] by Automated count"/>
               </coding>
               <text value="MCH [Entitic mass] by Automated count"/>
            </code>
            <subject>
               <reference value="urn:uuid:c5de0a53-e757-4182-9880-a8f6c0107ec4"/>
               <display value="Katy Johnston"/>
            </subject>
            <effectiveDateTime value="2025-04-20T09:58:49Z"/>
            <performer>
               <display value="The Central European Lab"/>
            </performer>
            <valueQuantity>
               <value value="29.9"/>
               <unit value="pg"/>
               <system value="http://unitsofmeasure.org"/>
               <code value="pg"/>
            </valueQuantity>
            <referenceRange>
               <low>
                  <value value="27"/>
                  <system value="http://unitsofmeasure.org"/>
                  <code value="pg"/>
               </low>
            </referenceRange>
            <referenceRange>
               <high>
                  <value value="33"/>
                  <system value="http://unitsofmeasure.org"/>
                  <code value="pg"/>
               </high>
            </referenceRange>
         </Observation>
      </resource>
   </entry>
   <entry>
      <fullUrl value="urn:uuid:b3a2f799-0637-4975-864d-6fb838b546bb"/>
      <resource>
         <Observation>
            <id value="b3a2f799-0637-4975-864d-6fb838b546bb"/>
            <meta>
               <profile value="http://hl7.eu/fhir/laboratory/StructureDefinition/Observation-resultslab-eu-lab"/>
            </meta>
            <text>
               <status value="generated"/>
               <div xmlns="http://www.w3.org/1999/xhtml">
                  <table class="hl7__eu__lab__report">
                     <tr>
                        <th>Test</th>
                        <th>20-Apr-2025</th>
                        <th>Reference Range</th>
                        <th>Unit</th>
                     </tr>
                     <tr>
                        <td>MCHC [Mass/volume] by Automated count</td>
                        <td>34.5</td>
                        <td>32 - 37</td>
                        <td/>
                        <td>g/dL</td>
                     </tr>
                  </table>
               </div>
            </text>
            <status value="final"/>
            <category>
               <coding>
                  <system value="http://terminology.hl7.org/CodeSystem/observation-category"/>
                  <code value="laboratory"/>
               </coding>
            </category>
            <code>
               <coding>
                  <system value="http://loinc.org"/>
                  <code value="786-4"/>
                  <display value="MCHC [Mass/volume] by Automated count"/>
               </coding>
               <text value="MCHC [Mass/volume] by Automated count"/>
            </code>
            <subject>
               <reference value="urn:uuid:c5de0a53-e757-4182-9880-a8f6c0107ec4"/>
               <display value="Katy Johnston"/>
            </subject>
            <effectiveDateTime value="2025-04-20T09:58:49Z"/>
            <performer>
               <display value="The Central European Lab"/>
            </performer>
            <valueQuantity>
               <value value="34.5"/>
               <unit value="g/dL"/>
               <system value="http://unitsofmeasure.org"/>
               <code value="g/dL"/>
            </valueQuantity>
            <referenceRange>
               <low>
                  <value value="32"/>
                  <system value="http://unitsofmeasure.org"/>
                  <code value="g/dL"/>
               </low>
            </referenceRange>
            <referenceRange>
               <high>
                  <value value="37"/>
                  <system value="http://unitsofmeasure.org"/>
                  <code value="g/dL"/>
               </high>
            </referenceRange>
         </Observation>
      </resource>
   </entry>
   <entry>
      <fullUrl value="urn:uuid:974bc04d-e85a-4611-aeb3-3f22e5f54839"/>
      <resource>
         <Observation>
            <id value="974bc04d-e85a-4611-aeb3-3f22e5f54839"/>
            <meta>
               <profile value="http://hl7.eu/fhir/laboratory/StructureDefinition/Observation-resultslab-eu-lab"/>
            </meta>
            <text>
               <status value="generated"/>
               <div xmlns="http://www.w3.org/1999/xhtml">
                  <table class="hl7__eu__lab__report">
                     <tr>
                        <th>Test</th>
                        <th>20-Apr-2025</th>
                        <th>Reference Range</th>
                        <th>Unit</th>
                     </tr>
                     <tr>
                        <td>Erythrocyte distribution width [Entitic volume] by Automated count</td>
                        <td>39.4</td>
                        <td>36 - 56</td>
                        <td/>
                        <td>fL</td>
                     </tr>
                  </table>
               </div>
            </text>
            <status value="final"/>
            <category>
               <coding>
                  <system value="http://terminology.hl7.org/CodeSystem/observation-category"/>
                  <code value="laboratory"/>
               </coding>
            </category>
            <code>
               <coding>
                  <system value="http://loinc.org"/>
                  <code value="21000-5"/>
                  <display value="Erythrocyte distribution width [Entitic volume] by Automated count"/>
               </coding>
               <text value="Erythrocyte distribution width [Entitic volume] by Automated count"/>
            </code>
            <subject>
               <reference value="urn:uuid:c5de0a53-e757-4182-9880-a8f6c0107ec4"/>
               <display value="Katy Johnston"/>
            </subject>
            <effectiveDateTime value="2025-04-20T09:58:49Z"/>
            <performer>
               <display value="The Central European Lab"/>
            </performer>
            <valueQuantity>
               <value value="39.4"/>
               <unit value="fL"/>
               <system value="http://unitsofmeasure.org"/>
               <code value="fL"/>
            </valueQuantity>
            <referenceRange>
               <low>
                  <value value="36"/>
                  <system value="http://unitsofmeasure.org"/>
                  <code value="fL"/>
               </low>
            </referenceRange>
            <referenceRange>
               <high>
                  <value value="56"/>
                  <system value="http://unitsofmeasure.org"/>
                  <code value="fL"/>
               </high>
            </referenceRange>
         </Observation>
      </resource>
   </entry>
   <entry>
      <fullUrl value="urn:uuid:7f0c1435-a318-499b-9c82-737faf78b1d2"/>
      <resource>
         <Observation>
            <id value="7f0c1435-a318-499b-9c82-737faf78b1d2"/>
            <meta>
               <profile value="http://hl7.eu/fhir/laboratory/StructureDefinition/Observation-resultslab-eu-lab"/>
            </meta>
            <text>
               <status value="generated"/>
               <div xmlns="http://www.w3.org/1999/xhtml">
                  <table class="hl7__eu__lab__report">
                     <tr>
                        <th>Test</th>
                        <th>20-Apr-2025</th>
                        <th>Reference Range</th>
                        <th>Unit</th>
                     </tr>
                     <tr>
                        <td>Platelets [#/volume] in Blood by Automated count</td>
                        <td>380.4</td>
                        <td>150 - 450</td>
                        <td/>
                        <td>10*3/uL</td>
                     </tr>
                  </table>
               </div>
            </text>
            <status value="final"/>
            <category>
               <coding>
                  <system value="http://terminology.hl7.org/CodeSystem/observation-category"/>
                  <code value="laboratory"/>
               </coding>
            </category>
            <code>
               <coding>
                  <system value="http://loinc.org"/>
                  <code value="777-3"/>
                  <display value="Platelets [#/volume] in Blood by Automated count"/>
               </coding>
               <text value="Platelets [#/volume] in Blood by Automated count"/>
            </code>
            <subject>
               <reference value="urn:uuid:c5de0a53-e757-4182-9880-a8f6c0107ec4"/>
               <display value="Katy Johnston"/>
            </subject>
            <effectiveDateTime value="2025-04-20T09:58:49Z"/>
            <performer>
               <display value="The Central European Lab"/>
            </performer>
            <valueQuantity>
               <value value="380.4"/>
               <unit value="10*3/uL"/>
               <system value="http://unitsofmeasure.org"/>
               <code value="10*3/uL"/>
            </valueQuantity>
            <referenceRange>
               <low>
                  <value value="150"/>
                  <system value="http://unitsofmeasure.org"/>
                  <code value="10*3/uL"/>
               </low>
            </referenceRange>
            <referenceRange>
               <high>
                  <value value="450"/>
                  <system value="http://unitsofmeasure.org"/>
                  <code value="10*3/uL"/>
               </high>
            </referenceRange>
         </Observation>
      </resource>
   </entry>
   <entry>
      <fullUrl value="urn:uuid:ce3ea2d7-5ad7-49ce-a337-b60ad9137cd5"/>
      <resource>
         <Observation>
            <id value="ce3ea2d7-5ad7-49ce-a337-b60ad9137cd5"/>
            <meta>
               <profile value="http://hl7.eu/fhir/laboratory/StructureDefinition/Observation-resultslab-eu-lab"/>
            </meta>
            <text>
               <status value="generated"/>
               <div xmlns="http://www.w3.org/1999/xhtml">
                  <table class="hl7__eu__lab__report">
                     <tr>
                        <th>Test</th>
                        <th>20-Apr-2025</th>
                        <th>Reference Range</th>
                        <th>Unit</th>
                     </tr>
                     <tr>
                        <td>Platelet distribution width [Entitic volume] in Blood by Automated count</td>
                        <td>199.4</td>
                        <td>11.6 - 17.4</td>
                        <td>H</td>
                        <td>fL</td>
                     </tr>
                  </table>
               </div>
            </text>
            <status value="final"/>
            <category>
               <coding>
                  <system value="http://terminology.hl7.org/CodeSystem/observation-category"/>
                  <code value="laboratory"/>
               </coding>
            </category>
            <code>
               <coding>
                  <system value="http://loinc.org"/>
                  <code value="32207-3"/>
                  <display value="Platelet distribution width [Entitic volume] in Blood by Automated count"/>
               </coding>
               <text value="Platelet distribution width [Entitic volume] in Blood by Automated count"/>
            </code>
            <subject>
               <reference value="urn:uuid:c5de0a53-e757-4182-9880-a8f6c0107ec4"/>
               <display value="Katy Johnston"/>
            </subject>
            <effectiveDateTime value="2025-04-20T09:58:49Z"/>
            <performer>
               <display value="The Central European Lab"/>
            </performer>
            <valueQuantity>
               <value value="199.4"/>
               <unit value="fL"/>
               <system value="http://unitsofmeasure.org"/>
               <code value="fL"/>
            </valueQuantity>
            <interpretation>
               <coding>
                  <system value="http://terminology.hl7.org/CodeSystem/v3-ObservationInterpretation"/>
                  <code value="H"/>
                  <display value="High"/>
               </coding>
            </interpretation>
            <referenceRange>
               <low>
                  <value value="11.6"/>
                  <system value="http://unitsofmeasure.org"/>
                  <code value="fL"/>
               </low>
            </referenceRange>
            <referenceRange>
               <high>
                  <value value="17.4"/>
                  <system value="http://unitsofmeasure.org"/>
                  <code value="fL"/>
               </high>
            </referenceRange>
         </Observation>
      </resource>
   </entry>
   <entry>
      <fullUrl value="urn:uuid:5d31df16-0157-4887-b2d3-830e60f67d2a"/>
      <resource>
         <Observation>
            <id value="5d31df16-0157-4887-b2d3-830e60f67d2a"/>
            <meta>
               <profile value="http://hl7.eu/fhir/laboratory/StructureDefinition/Observation-resultslab-eu-lab"/>
            </meta>
            <text>
               <status value="generated"/>
               <div xmlns="http://www.w3.org/1999/xhtml">
                  <table class="hl7__eu__lab__report">
                     <tr>
                        <th>Test</th>
                        <th>20-Apr-2025</th>
                        <th>Reference Range</th>
                        <th>Unit</th>
                     </tr>
                     <tr>
                        <td>Platelet mean volume [Entitic volume] in Blood by Automated count</td>
                        <td>9.5</td>
                        <td>9.4 - 14</td>
                        <td/>
                        <td>fL</td>
                     </tr>
                  </table>
               </div>
            </text>
            <status value="final"/>
            <category>
               <coding>
                  <system value="http://terminology.hl7.org/CodeSystem/observation-category"/>
                  <code value="laboratory"/>
               </coding>
            </category>
            <code>
               <coding>
                  <system value="http://loinc.org"/>
                  <code value="32623-1"/>
                  <display value="Platelet mean volume [Entitic volume] in Blood by Automated count"/>
               </coding>
               <text value="Platelet mean volume [Entitic volume] in Blood by Automated count"/>
            </code>
            <subject>
               <reference value="urn:uuid:c5de0a53-e757-4182-9880-a8f6c0107ec4"/>
               <display value="Katy Johnston"/>
            </subject>
            <effectiveDateTime value="2025-04-20T09:58:49Z"/>
            <performer>
               <display value="The Central European Lab"/>
            </performer>
            <valueQuantity>
               <value value="9.5"/>
               <unit value="fL"/>
               <system value="http://unitsofmeasure.org"/>
               <code value="fL"/>
            </valueQuantity>
            <referenceRange>
               <low>
                  <value value="9.4"/>
                  <system value="http://unitsofmeasure.org"/>
                  <code value="fL"/>
               </low>
            </referenceRange>
            <referenceRange>
               <high>
                  <value value="14"/>
                  <system value="http://unitsofmeasure.org"/>
                  <code value="fL"/>
               </high>
            </referenceRange>
         </Observation>
      </resource>
   </entry>
   <entry>
      <fullUrl value="urn:uuid:46bc0702-574e-469f-8495-9f4168fafed6"/>
      <resource>
         <DeviceUseStatement>
            <id value="46bc0702-574e-469f-8495-9f4168fafed6"/>
            <meta>
               <profile value="http://hl7.eu/fhir/eps/StructureDefinition/deviceUseStatement-eu-eps"/>
            </meta>
            <text>
               <status value="generated"/>
               <div xmlns="http://www.w3.org/1999/xhtml">
                  <table class="hl7__ips">
                     <tr>
                        <td>Blood glucose meter (physical object)</td>
                        <td>
                           <span class="nb">17-Mar-2019</span>
                        </td>
                     </tr>
                  </table>
               </div>
            </text>
            <status value="active"/>
            <subject>
               <reference value="urn:uuid:c5de0a53-e757-4182-9880-a8f6c0107ec4"/>
               <display value="Katy Johnston"/>
            </subject>
            <timingPeriod>
               <start value="2019-03-17"/>
            </timingPeriod>
            <device>
               <reference value="urn:uuid:72ad0939-b683-41a8-b9c3-e30336f87833"/>
               <display value="Blood glucose meter (physical object)"/>
            </device>
         </DeviceUseStatement>
      </resource>
   </entry>
   <entry>
      <fullUrl value="urn:uuid:72ad0939-b683-41a8-b9c3-e30336f87833"/>
      <resource>
         <Device>
            <id value="72ad0939-b683-41a8-b9c3-e30336f87833"/>
            <meta>
               <profile value="http://hl7.eu/fhir/eps/StructureDefinition/device-eu-eps"/>
            </meta>
            <udiCarrier id="(01)33756287036383(11)190224(17)440310(10)3723212037368(21)261460038094382017"/>
            <status value="active"/>
            <type>
               <coding>
                  <system value="http://snomed.info/sct"/>
                  <code value="337414009"/>
                  <display value="Blood glucose meter (physical object)"/>
               </coding>
            </type>
            <patient>
               <reference value="urn:uuid:c5de0a53-e757-4182-9880-a8f6c0107ec4"/>
               <display value="Katy Johnston"/>
            </patient>
         </Device>
      </resource>
   </entry>
   <entry>
      <fullUrl value="urn:uuid:0e25b814-e5fe-42c5-8edb-b04da137b96e"/>
      <resource>
         <Device>
            <id value="0e25b814-e5fe-42c5-8edb-b04da137b96e"/>
            <text>
               <status value="generated"/>
               <div xmlns="http://www.w3.org/1999/xhtml">SYNDERAI Synthetic Generator v5.0</div>
            </text>
            <status value="active&#34;"/>
            <distinctIdentifier value="synderai-generator-50"/>
            <manufacturer value="SYNDERAI Project"/>
            <deviceName>
               <name value="SYNDERAI Synthetic Generator"/>
               <type value="manufacturer-name"/>
            </deviceName>
            <version>
               <value value="5.0"/>
            </version>
         </Device>
      </resource>
   </entry>
   <entry>
      <fullUrl value="urn:uuid:222da392-0a2b-4aaa-a172-d38ff022ebb4"/>
      <resource>
         <Provenance>
            <id value="222da392-0a2b-4aaa-a172-d38ff022ebb4"/>
            <text>
               <status value="generated"/>
               <div xmlns="http://www.w3.org/1999/xhtml">Provenance for SYNDERAI Synthetic Example Data Resource</div>
            </text>
            <target>
               <reference value="Patient/c5de0a53-e757-4182-9880-a8f6c0107ec4"/>
            </target>
            <target>
               <reference value="Bundle/b6309857-9df6-4408-b8e0-8f237a410f3b"/>
            </target>
            <target>
               <reference value="Composition/279b6d45-d66c-461f-96f9-142a6b864d43"/>
            </target>
            <target>
               <reference value="PractitionerRole/c7ccb4e2-155f-439c-bed6-424c224a7558"/>
            </target>
            <target>
               <reference value="Organization/3731d42f-3517-4d6a-8321-242174b28653"/>
            </target>
            <target>
               <reference value="Practitioner/90ba03e9-9322-48a2-a10b-fb41bc953d60"/>
            </target>
            <recorded value="2025-04-20T09:58:49Z"/>
            <policy value="https://synderai.net/synderai-synthetic-data-policy"/>
            <reason>
               <text value="Interoperability Testing and Training (non-clinical use)"/>
            </reason>
            <activity>
               <text value="Synthetic Example Data Generation"/>
            </activity>
            <agent>
               <type>
                  <text value="author"/>
               </type>
               <who>
                  <reference value="Device/0e25b814-e5fe-42c5-8edb-b04da137b96e"/>
               </who>
            </agent>
         </Provenance>
      </resource>
   </entry>
</Bundle>