<Bundle xmlns="http://hl7.org/fhir">
   <id value="8911b718-f190-4310-8366-e4d3a7949607"/>
   <meta>
      <profile value="http://hl7.eu/fhir/eps/StructureDefinition/bundle-eu-eps"/>
   </meta>
   <identifier>
      <system value="urn:oid:2.16.840.1.113883.2.51.999"/>
      <value value="3746e904-4325-4054-922d-f937c83ccfad"/>
      <assigner>
         <display value="HL7 Europe"/>
      </assigner>
   </identifier>
   <type value="document"/>
   <timestamp value="2024-01-21T10:37:02Z"/>
   <entry>
      <fullUrl value="urn:uuid:d0573c36-630a-469b-91cb-e460f6f72a10"/>
      <resource>
         <Composition>
            <id value="d0573c36-630a-469b-91cb-e460f6f72a10"/>
            <meta>
               <profile value="http://hl7.eu/fhir/eps/StructureDefinition/composition-eu-eps"/>
               <security>
                  <system value="http://terminology.hl7.org/CodeSystem/v3-ActReason"/>
                  <code value="HTEST"/>
               </security>
               <security>
                  <system value="http://terminology.hl7.org/CodeSystem/v3-ActReason"/>
                  <code value="TRAIN"/>
               </security>
               <tag>
                  <system value="https://synderai.net/fhir/CodeSystem/tags"/>
                  <code value="synthetic"/>
                  <display value="SYNDERAI Synthetic data"/>
               </tag>
            </meta>
            <identifier>
               <system value="urn:oid:2.16.840.1.113883.2.51.999"/>
               <value value="94eb49b1-8ae3-4a3a-a113-ba0890f1d425"/>
               <assigner>
                  <display value="HL7 Europe"/>
               </assigner>
            </identifier>
            <status value="final"/>
            <type>
               <coding>
                  <system value="http://loinc.org"/>
                  <code value="60591-5"/>
                  <display value="Patient summary Document"/>
               </coding>
               <text value="Patient summary Document"/>
            </type>
            <subject>
               <reference value="urn:uuid:e1536245-1787-4b36-9c73-45f3fc341766"/>
               <display value="Jason Forster"/>
            </subject>
            <date value="2024-01-21"/>
            <author>
               <reference value="urn:uuid:eb2c2cb5-d99b-4093-982e-5bcd7c567a34"/>
            </author>
            <title value="European Patient Summary"/>
            <confidentiality value="N"/>
            <custodian>
               <reference value="urn:uuid:1ec80b82-8ba8-4d66-9de2-41db54768b0d"/>
            </custodian>
            <section>
               <title value="Problem list"/>
               <code>
                  <coding>
                     <system value="http://loinc.org"/>
                     <code value="11450-4"/>
                     <display value="Problem list - Reported"/>
                  </coding>
               </code>
               <text>
                  <status value="generated"/>
                  <div xmlns="http://www.w3.org/1999/xhtml">
                     <table class="hl7__ips">
                        <tr>
                           <th>Condition</th>
                           <th>Onset Date</th>
                           <th>Status</th>
                        </tr>
                        <tr>
                           <td>Prediabetes</td>
                           <td>
                              <span class="nb">21-Jan-2024</span>
                           </td>
                           <td>active</td>
                        </tr>
                        <tr>
                           <td>Osteoarthritis of knee</td>
                           <td>
                              <span class="nb">07-Jul-2017</span>
                           </td>
                           <td>active</td>
                        </tr>
                     </table>
                  </div>
               </text>
               <entry>
                  <reference value="urn:uuid:7fa2aa4e-208c-4cc9-9580-7278ef474d19"/>
               </entry>
               <entry>
                  <reference value="urn:uuid:a739f8a5-e790-45dd-b380-3f122a6b2fe9"/>
               </entry>
            </section>
            <section>
               <title value="Medication list"/>
               <code>
                  <coding>
                     <system value="http://loinc.org"/>
                     <code value="10160-0"/>
                     <display value="History of Medication use Narrative"/>
                  </coding>
               </code>
               <text>
                  <status value="generated"/>
               </text>
               <entry>
                  <reference value="urn:uuid:73420b94-3999-415e-a19d-13e54d0407cc"/>
               </entry>
               <entry>
                  <reference value="urn:uuid:73420b94-3999-415e-a19d-13e54d0407cc"/>
               </entry>
            </section>
            <section>
               <title value="Immunizations list"/>
               <code>
                  <coding>
                     <system value="http://loinc.org"/>
                     <code value="11369-6"/>
                     <display value="History of Immunization note"/>
                  </coding>
               </code>
               <text>
                  <status value="generated"/>
                  <div xmlns="http://www.w3.org/1999/xhtml">
                     <table class="hl7__ips">
                        <tr>
                           <th>Vaccine</th>
                           <th>Date</th>
                        </tr>
                        <tr>
                           <td>Influenza virus antigen only vaccine product</td>
                           <td>
                              <span class="nb">21-Jan-2024</span>
                           </td>
                        </tr>
                        <tr>
                           <td>Hepatitis A virus antigen only vaccine product</td>
                           <td>
                              <span class="nb">16-Jan-2022</span>
                           </td>
                        </tr>
                        <tr>
                           <td>Clostridium tetani toxoid antigen adsorbed only vaccine product</td>
                           <td>
                              <span class="nb">16-Jan-2022</span>
                           </td>
                        </tr>
                        <tr>
                           <td>SARS-CoV-2 mRNA vaccine</td>
                           <td>
                              <span class="nb">02-May-2021</span>
                           </td>
                        </tr>
                     </table>
                  </div>
               </text>
               <entry>
                  <reference value="urn:uuid:f9339e6f-6f36-49ec-8d8c-61765f9f369b"/>
               </entry>
               <entry>
                  <reference value="urn:uuid:943e9dbc-0d4f-41df-b05a-8ddf37cd53b1"/>
               </entry>
               <entry>
                  <reference value="urn:uuid:6f44f392-917b-4438-bdb7-b81083f5230f"/>
               </entry>
               <entry>
                  <reference value="urn:uuid:ed538de2-ea60-4cbe-a3d9-4f1233063b39"/>
               </entry>
            </section>
            <section>
               <title value="Allergies and Intolerances"/>
               <code>
                  <coding>
                     <system value="http://loinc.org"/>
                     <code value="48765-2"/>
                     <display value="Allergies and adverse reactions Document"/>
                  </coding>
               </code>
               <text>
                  <status value="generated"/>
                  <div xmlns="http://www.w3.org/1999/xhtml">
                     <table class="hl7__ips">
                        <tr>
                           <th>Allergy/Intolerance</th>
                           <th>Onset Date</th>
                           <th>Status</th>
                           <th>Type</th>
                           <th>Reaction</th>
                        </tr>
                        <tr>
                           <td>Vaccine product containing SARS-CoV-2 mRNA</td>
                           <td>?</td>
                           <td>active</td>
                           <td>?</td>
                           <td/>
                        </tr>
                     </table>
                  </div>
               </text>
               <entry>
                  <reference value="urn:uuid:bc95678a-71fc-4f08-b2b7-6fafbc4532f0"/>
               </entry>
            </section>
            <section>
               <title value="Care Plan"/>
               <code>
                  <coding>
                     <system value="http://loinc.org"/>
                     <code value="18776-5"/>
                     <display value="Plan of care note"/>
                  </coding>
               </code>
               <text>
                  <status value="generated"/>
                  <div xmlns="http://www.w3.org/1999/xhtml">
                     <table class="hl7__ips">
                        <tr>
                           <th>Active Planned Care / Goals</th>
                           <th>Start Date</th>
                           <th>Reason</th>
                        </tr>
                        <tr>
                           <td>Diabetes self management plan</td>
                           <td>
                              <span class="nb">21-Jan-2024</span>
                           </td>
                           <td>Prediabetes</td>
                        </tr>
                        <tr>
                           <td>
                              <ul>
                                 <li>Patient will implement lifestyle modifications to maintain fasting plasma glucose within target range.</li>
                              </ul>
                           </td>
                           <td/>
                           <td/>
                        </tr>
                        <tr>
                           <td>Musculoskeletal care</td>
                           <td>
                              <span class="nb">07-Jul-2017</span>
                           </td>
                           <td>Osteoarthritis of knee</td>
                        </tr>
                        <tr>
                           <td>
                              <ul>
                                 <li>Reduce knee pain severity to a tolerable level to improve function and quality of life</li>
                                 <li>Increase ability to perform daily activities such as walking and climbing stairs</li>
                                 <li>Complete prescribed knee strengthening and flexibility exercises as recommended</li>
                              </ul>
                           </td>
                           <td/>
                           <td/>
                        </tr>
                     </table>
                  </div>
               </text>
               <entry>
                  <reference value="urn:uuid:04e0fd31-4d1d-4192-87b5-ef26165afe3c"/>
               </entry>
               <entry>
                  <reference value="urn:uuid:7553bdb4-206e-426e-a428-0f77861e9da5"/>
               </entry>
            </section>
            <section>
               <title value="Vital Signs"/>
               <code>
                  <coding>
                     <system value="http://loinc.org"/>
                     <code value="8716-3"/>
                     <display value="Vital signs note"/>
                  </coding>
               </code>
               <text>
                  <status value="generated"/>
                  <div xmlns="http://www.w3.org/1999/xhtml">
                     <table class="hl7__ips">
                        <tr>
                           <th>Vital Signs</th>
                           <th>2024-01-21</th>
                           <th>2022-01-16</th>
                        </tr>
                        <tr>
                           <td>Body Height</td>
                           <td>176.3 cm</td>
                           <td>176.3 cm</td>
                        </tr>
                        <tr>
                           <td>Pain severity - 0-10 verbal numeric rating [Score] - Reported</td>
                           <td>4 {score}</td>
                           <td>3 {score}</td>
                        </tr>
                        <tr>
                           <td>Body Weight</td>
                           <td>85.8 kg</td>
                           <td>93.2 kg</td>
                        </tr>
                        <tr>
                           <td>Body mass index (BMI) [Ratio]</td>
                           <td>27.6 kg/m2</td>
                           <td>30 kg/m2</td>
                        </tr>
                        <tr>
                           <td>Diastolic Blood Pressure</td>
                           <td>90 mm[Hg]</td>
                           <td>86 mm[Hg]</td>
                        </tr>
                        <tr>
                           <td>Systolic Blood Pressure</td>
                           <td>125 mm[Hg]</td>
                           <td>123 mm[Hg]</td>
                        </tr>
                        <tr>
                           <td>Heart rate</td>
                           <td>96 /min</td>
                           <td>79 /min</td>
                        </tr>
                        <tr>
                           <td>Respiratory rate</td>
                           <td>13 /min</td>
                           <td>15 /min</td>
                        </tr>
                     </table>
                  </div>
               </text>
               <entry>
                  <reference value="urn:uuid:d75b0f28-265e-4a1c-9cc3-e430c45c6eb1"/>
               </entry>
               <entry>
                  <reference value="urn:uuid:f76ae342-7096-4aee-9d7a-a0cf100e45fc"/>
               </entry>
               <entry>
                  <reference value="urn:uuid:db60d449-2516-48ab-95dd-028287b47279"/>
               </entry>
               <entry>
                  <reference value="urn:uuid:bd6a2dbc-2141-4020-b37b-a99ca486bbfe"/>
               </entry>
               <entry>
                  <reference value="urn:uuid:e822258a-a321-4dbd-82fd-87675791dd91"/>
               </entry>
               <entry>
                  <reference value="urn:uuid:39010a83-0fc6-4689-a131-7f920c2b2a81"/>
               </entry>
               <entry>
                  <reference value="urn:uuid:dc2d003b-0700-4691-bd9d-0929f06c3140"/>
               </entry>
               <entry>
                  <reference value="urn:uuid:b8c55acb-910c-4c7d-ac35-95840850b81e"/>
               </entry>
               <entry>
                  <reference value="urn:uuid:805ee60e-4bde-4675-a5e5-28bb51f5c887"/>
               </entry>
               <entry>
                  <reference value="urn:uuid:90a63178-52cb-4eb4-9095-49ca2654a982"/>
               </entry>
               <entry>
                  <reference value="urn:uuid:f40def04-10f7-4f6e-8506-3d8a4e834ce5"/>
               </entry>
               <entry>
                  <reference value="urn:uuid:d79bc271-af1b-477c-bd18-6ce88ba80390"/>
               </entry>
               <entry>
                  <reference value="urn:uuid:5937d069-e01f-4449-af72-4b30650fa7e0"/>
               </entry>
               <entry>
                  <reference value="urn:uuid:a16d07e6-d6d3-4346-b439-575c68f324e3"/>
               </entry>
               <entry>
                  <reference value="urn:uuid:6ad788e3-edf2-4956-acc4-f866ff80ab1e"/>
               </entry>
               <entry>
                  <reference value="urn:uuid:f8727ee4-f141-40fd-9ced-433f78d05c50"/>
               </entry>
            </section>
            <section>
               <title value="Relevant diagnostic tests/laboratory data"/>
               <code>
                  <coding>
                     <system value="http://loinc.org"/>
                     <code value="30954-2"/>
                     <display value="Relevant diagnostic tests/laboratory data note"/>
                  </coding>
               </code>
               <text>
                  <status value="generated"/>
                  <div xmlns="http://www.w3.org/1999/xhtml">
                     <table class="hl7__ips">
                        <table class="hl7__ips">
                           <thead>
                              <tr>
                                 <th>Recent Lab Observations</th>
                                 <th>21-JAN-2024</th>
                                 <th>Reference Range</th>
                                 <th>Unit</th>
                              </tr>
                           </thead>
                           <tbody>
                              <tr>
                                 <td>Hemoglobin A1c/Hemoglobin.total in Blood</td>
                                 <td>6.0</td>
                                 <td>4 - 6</td>
                                 <td>%</td>
                              </tr>
                              <tr>
                                 <td>Glucose [Mass/volume] in Blood</td>
                                 <td>97.3</td>
                                 <td>70 - 99</td>
                                 <td>mg/dL</td>
                              </tr>
                              <tr>
                                 <td>Urea nitrogen [Mass/volume] in Blood</td>
                                 <td>19.2</td>
                                 <td>7 - 20</td>
                                 <td>mg/dL</td>
                              </tr>
                              <tr>
                                 <td>Creatinine [Mass/volume] in Blood</td>
                                 <td>1.3</td>
                                 <td>0.9 - 1.3</td>
                                 <td>mg/dL</td>
                              </tr>
                              <tr>
                                 <td>Calcium [Mass/volume] in Blood</td>
                                 <td>9.8</td>
                                 <td>8.5 - 10.5</td>
                                 <td>mg/dL</td>
                              </tr>
                              <tr>
                                 <td>Sodium [Moles/volume] in Blood</td>
                                 <td>141.1</td>
                                 <td>135 - 145</td>
                                 <td>mmol/L</td>
                              </tr>
                              <tr>
                                 <td>Potassium [Moles/volume] in Blood</td>
                                 <td>4.6</td>
                                 <td>3.5 - 5.1</td>
                                 <td>mmol/L</td>
                              </tr>
                              <tr>
                                 <td>Chloride [Moles/volume] in Blood</td>
                                 <td>106.5</td>
                                 <td>98 - 114</td>
                                 <td>mmol/L</td>
                              </tr>
                              <tr>
                                 <td>Carbon dioxide, total [Moles/volume] in Blood</td>
                                 <td>29.0</td>
                                 <td>22 - 29</td>
                                 <td>mmol/L</td>
                              </tr>
                           </tbody>
                        </table>
                     </table>
                  </div>
               </text>
               <entry>
                  <reference value="urn:uuid:b43687bb-56d9-4632-8a6e-4f87ea09559c"/>
               </entry>
               <entry>
                  <reference value="urn:uuid:57d58c28-0097-4d6e-b660-452570e596a3"/>
               </entry>
               <entry>
                  <reference value="urn:uuid:b7768137-04be-489e-8f90-a9a891b277fc"/>
               </entry>
               <entry>
                  <reference value="urn:uuid:3a266607-3679-4113-b25d-1e794b803ccd"/>
               </entry>
               <entry>
                  <reference value="urn:uuid:2bc27b5f-3bf4-4d5f-b9c4-33c1d85ead87"/>
               </entry>
               <entry>
                  <reference value="urn:uuid:743d0839-d556-486f-bd23-8fb4df4f26b5"/>
               </entry>
               <entry>
                  <reference value="urn:uuid:87865905-88bb-4de4-b7b9-13a2e43df269"/>
               </entry>
               <entry>
                  <reference value="urn:uuid:f8090c6a-44cf-44ff-9c6e-9d59672f5d70"/>
               </entry>
               <entry>
                  <reference value="urn:uuid:aa3df11a-be9a-469d-9d3e-737273bd1df5"/>
               </entry>
            </section>
            <section>
               <title value="Device Use"/>
               <code>
                  <coding>
                     <system value="http://loinc.org"/>
                     <code value="46264-8"/>
                     <display value="History of medical device use"/>
                  </coding>
               </code>
               <text>
                  <status value="generated"/>
                  <div xmlns="http://www.w3.org/1999/xhtml">
                     <table class="hl7__ips">
                        <tr>
                           <th>Device</th>
                           <th>Date (since)</th>
                        </tr>
                        <tr>
                           <td>Blood glucose meter (physical object)</td>
                           <td>
                              <span class="nb">21-Jan-2024</span>
                           </td>
                        </tr>
                        <tr>
                           <td>Walker (physical object)</td>
                           <td>
                              <span class="nb">07-Jul-2017</span>
                           </td>
                        </tr>
                     </table>
                  </div>
               </text>
               <entry>
                  <reference value="urn:uuid:6a6f6809-8f40-4804-9d6b-5da9ffb52123"/>
               </entry>
               <entry>
                  <reference value="urn:uuid:c5d824f2-4fb6-4693-9793-a620ef37df20"/>
               </entry>
            </section>
         </Composition>
      </resource>
   </entry>
   <entry>
      <fullUrl value="urn:uuid:e1536245-1787-4b36-9c73-45f3fc341766"/>
      <resource>
         <Patient>
            <id value="e1536245-1787-4b36-9c73-45f3fc341766"/>
            <meta>
               <profile value="http://hl7.eu/fhir/eps/StructureDefinition/patient-eu-eps"/>
               <security>
                  <system value="http://terminology.hl7.org/CodeSystem/v3-ActReason"/>
                  <code value="HTEST"/>
               </security>
               <security>
                  <system value="http://terminology.hl7.org/CodeSystem/v3-ActReason"/>
                  <code value="TRAIN"/>
               </security>
               <tag>
                  <system value="https://synderai.net/fhir/CodeSystem/tags"/>
                  <code value="synthetic"/>
                  <display value="SYNDERAI Synthetic data"/>
               </tag>
            </meta>
            <text>
               <status value="generated"/>
               <div xmlns="http://www.w3.org/1999/xhtml">
                  <table class="hl7__ips">
                     <tr>
                        <td>Jason Forster</td>
                        <td>male</td>
                        <td>10-Mar-1983</td>
                     </tr>
                  </table>
               </div>
            </text>
            <extension url="http://hl7.org/fhir/StructureDefinition/patient-nationality">
               <valueCodeableConcept>
                  <coding>
                     <system value="http://hl7.org/fhir/ValueSet/country"/>
                     <code value="GB"/>
                  </coding>
               </valueCodeableConcept>
            </extension>
            <identifier>
               <type>
                  <coding>
                     <system value="http://terminology.hl7.org/CodeSystem/v2-0203"/>
                     <code value="PT"/>
                  </coding>
               </type>
               <system value="http://ec.europa.eu/identifier/eci"/>
               <value value="2238-744377-7"/>
            </identifier>
            <identifier>
               <type>
                  <coding>
                     <system value="http://terminology.hl7.org/CodeSystem/v2-0203"/>
                     <code value="MR"/>
                  </coding>
               </type>
               <system value="http://local.setting.eu/identifier"/>
               <value value="dc5e9b59-86bb-95c9-eab3-9675ec81c274"/>
            </identifier>
            <name>
               <family value="Forster"/>
            </name>
            <name>
               <given value="Jason"/>
            </name>
            <name>
               <text value="Jason Forster"/>
            </name>
            <telecom>
               <system value="phone"/>
               <value value="01632960273"/>
            </telecom>
            <gender value="male"/>
            <birthDate value="1983-03-10"/>
            <address>
               <use value="home"/>
               <type value="physical"/>
               <line value="437 Martin trail"/>
               <city value="Heatherville"/>
               <postalCode value="M20"/>
               <country value="United Kingdom"/>
            </address>
         </Patient>
      </resource>
   </entry>
   <entry>
      <fullUrl value="urn:uuid:eb2c2cb5-d99b-4093-982e-5bcd7c567a34"/>
      <resource>
         <PractitionerRole>
            <id value="eb2c2cb5-d99b-4093-982e-5bcd7c567a34"/>
            <meta>
               <profile value="http://hl7.eu/fhir/base/StructureDefinition/practitionerRole-eu"/>
            </meta>
            <text>
               <status value="generated"/>
               <div xmlns="http://www.w3.org/1999/xhtml">
                  <table class="hl7__ips">Provider Role Id eb2c2cb5-d99b-4093-982e-5bcd7c567a34</table>
               </div>
            </text>
            <practitioner>
               <reference value="urn:uuid:d174f8d5-6b9a-4319-9791-0a611a558d16"/>
            </practitioner>
            <organization>
               <reference value="urn:uuid:1ec80b82-8ba8-4d66-9de2-41db54768b0d"/>
            </organization>
         </PractitionerRole>
      </resource>
   </entry>
   <entry>
      <fullUrl value="urn:uuid:d174f8d5-6b9a-4319-9791-0a611a558d16"/>
      <resource>
         <Practitioner>
            <id value="d174f8d5-6b9a-4319-9791-0a611a558d16"/>
            <meta>
               <profile value="http://hl7.eu/fhir/base/StructureDefinition/practitioner-eu"/>
            </meta>
            <text>
               <status value="generated"/>
               <div xmlns="http://www.w3.org/1999/xhtml">
                  <table class="hl7__ips">Dr. Hel Ping</table>
               </div>
            </text>
            <name>
               <family value="Ping"/>
               <given value="Hel"/>
               <prefix value="Dr."/>
            </name>
         </Practitioner>
      </resource>
   </entry>
   <entry>
      <fullUrl value="urn:uuid:1ec80b82-8ba8-4d66-9de2-41db54768b0d"/>
      <resource>
         <Organization>
            <id value="1ec80b82-8ba8-4d66-9de2-41db54768b0d"/>
            <meta>
               <profile value="http://hl7.eu/fhir/base/StructureDefinition/organization-eu"/>
            </meta>
            <text>
               <status value="generated"/>
               <div xmlns="http://www.w3.org/1999/xhtml">
                  <table class="hl7__ips">Cornbrook Medical Practice</table>
               </div>
            </text>
            <identifier>
               <system value="urn:oid:2.16.840.1.113883.2.51.999"/>
               <value value="1d7d3d62-1788-4eee-9951-62d211141838"/>
               <assigner>
                  <display value="HL7 Europe"/>
               </assigner>
            </identifier>
            <name value="Cornbrook Medical Practice"/>
            <address>
               <line value="City Road 204"/>
               <city value="Manchester"/>
               <postalCode value="M3 3"/>
               <country value="United Kingdom"/>
            </address>
         </Organization>
      </resource>
   </entry>
   <entry>
      <fullUrl value="urn:uuid:7fa2aa4e-208c-4cc9-9580-7278ef474d19"/>
      <resource>
         <Condition>
            <id value="7fa2aa4e-208c-4cc9-9580-7278ef474d19"/>
            <meta>
               <profile value="http://hl7.org/fhir/uv/ips/StructureDefinition/Condition-uv-ips"/>
            </meta>
            <text>
               <status value="generated"/>
               <div xmlns="http://www.w3.org/1999/xhtml">
                  <table class="hl7__ips">
                     <tr>
                        <td>Prediabetes</td>
                        <td>
                           <span class="nb">21-Jan-2024</span>
                        </td>
                        <td>active</td>
                     </tr>
                  </table>
               </div>
            </text>
            <category>
               <coding>
                  <system value="http://terminology.hl7.org/CodeSystem/condition-category"/>
                  <code value="problem-list-item"/>
                  <display value="Problem List Item"/>
               </coding>
            </category>
            <code>
               <coding>
                  <system value="http://snomed.info/sct"/>
                  <code value="15777000"/>
                  <display value="Prediabetes (disorder)"/>
               </coding>
               <text value="Prediabetes"/>
            </code>
            <subject>
               <reference value="urn:uuid:"/>
               <display value="Jason Forster"/>
            </subject>
            <onsetDateTime value="2024-01-21"/>
            <asserter>
               <reference value="urn:uuid:"/>
               <display value="Cornbrook Medical Practice"/>
            </asserter>
         </Condition>
      </resource>
   </entry>
   <entry>
      <fullUrl value="urn:uuid:a739f8a5-e790-45dd-b380-3f122a6b2fe9"/>
      <resource>
         <Condition>
            <id value="a739f8a5-e790-45dd-b380-3f122a6b2fe9"/>
            <meta>
               <profile value="http://hl7.org/fhir/uv/ips/StructureDefinition/Condition-uv-ips"/>
            </meta>
            <text>
               <status value="generated"/>
               <div xmlns="http://www.w3.org/1999/xhtml">
                  <table class="hl7__ips">
                     <tr>
                        <td>Osteoarthritis of knee</td>
                        <td>
                           <span class="nb">07-Jul-2017</span>
                        </td>
                        <td>active</td>
                     </tr>
                  </table>
               </div>
            </text>
            <category>
               <coding>
                  <system value="http://terminology.hl7.org/CodeSystem/condition-category"/>
                  <code value="problem-list-item"/>
                  <display value="Problem List Item"/>
               </coding>
            </category>
            <code>
               <coding>
                  <system value="http://snomed.info/sct"/>
                  <code value="239873007"/>
                  <display value="Osteoarthritis of knee (disorder)"/>
               </coding>
               <text value="Osteoarthritis of knee"/>
            </code>
            <subject>
               <reference value="urn:uuid:"/>
               <display value="Jason Forster"/>
            </subject>
            <onsetDateTime value="2017-07-07"/>
            <asserter>
               <reference value="urn:uuid:"/>
               <display value="Cornbrook Medical Practice"/>
            </asserter>
         </Condition>
      </resource>
   </entry>
   <entry>
      <fullUrl value="urn:uuid:fdbd3575-7521-42b9-a926-09a44a80ba4a"/>
      <resource>
         <Condition>
            <id value="fdbd3575-7521-42b9-a926-09a44a80ba4a"/>
            <meta>
               <profile value="http://hl7.org/fhir/uv/ips/StructureDefinition/Condition-uv-ips"/>
            </meta>
            <text>
               <status value="generated"/>
               <div xmlns="http://www.w3.org/1999/xhtml">
                  <table class="hl7__ips">
                     <tr>
                        <td>
                           <span class="grayedout">Sprain of ankle</span>
                        </td>
                        <td>
                           <span class="nb">09-Jun-2024 - 09-Jul-2024</span>
                        </td>
                        <td>
                           <span class="grayedout">inactive</span>
                        </td>
                     </tr>
                  </table>
               </div>
            </text>
            <category>
               <coding>
                  <system value="http://terminology.hl7.org/CodeSystem/condition-category"/>
                  <code value="problem-list-item"/>
                  <display value="Problem List Item"/>
               </coding>
            </category>
            <code>
               <coding>
                  <system value="http://snomed.info/sct"/>
                  <code value="44465007"/>
                  <display value="Sprain of ankle (disorder)"/>
               </coding>
               <text value="Sprain of ankle"/>
            </code>
            <subject>
               <reference value="urn:uuid:"/>
               <display value="Jason Forster"/>
            </subject>
            <onsetDateTime value="2024-06-09"/>
            <abatementDateTime value="2024-07-09"/>
            <asserter>
               <reference value="urn:uuid:"/>
               <display value="Cornbrook Medical Practice"/>
            </asserter>
         </Condition>
      </resource>
   </entry>
   <entry>
      <fullUrl value="urn:uuid:c2d27103-a4a5-415e-a13c-d37e93cb7177"/>
      <resource>
         <Condition>
            <id value="c2d27103-a4a5-415e-a13c-d37e93cb7177"/>
            <meta>
               <profile value="http://hl7.org/fhir/uv/ips/StructureDefinition/Condition-uv-ips"/>
            </meta>
            <text>
               <status value="generated"/>
               <div xmlns="http://www.w3.org/1999/xhtml">
                  <table class="hl7__ips">
                     <tr>
                        <td>
                           <span class="grayedout">Viral sinusitis</span>
                        </td>
                        <td>
                           <span class="nb">09-Jan-2024 - 21-Jan-2024</span>
                        </td>
                        <td>
                           <span class="grayedout">inactive</span>
                        </td>
                     </tr>
                  </table>
               </div>
            </text>
            <category>
               <coding>
                  <system value="http://terminology.hl7.org/CodeSystem/condition-category"/>
                  <code value="problem-list-item"/>
                  <display value="Problem List Item"/>
               </coding>
            </category>
            <code>
               <coding>
                  <system value="http://snomed.info/sct"/>
                  <code value="444814009"/>
                  <display value="Viral sinusitis (disorder)"/>
               </coding>
               <text value="Viral sinusitis"/>
            </code>
            <subject>
               <reference value="urn:uuid:"/>
               <display value="Jason Forster"/>
            </subject>
            <onsetDateTime value="2024-01-09"/>
            <abatementDateTime value="2024-01-21"/>
            <asserter>
               <reference value="urn:uuid:"/>
               <display value="Cornbrook Medical Practice"/>
            </asserter>
         </Condition>
      </resource>
   </entry>
   <entry>
      <fullUrl value="urn:uuid:56af30fe-6a26-44dc-9a80-56f9deadec2b"/>
      <resource>
         <Condition>
            <id value="56af30fe-6a26-44dc-9a80-56f9deadec2b"/>
            <meta>
               <profile value="http://hl7.org/fhir/uv/ips/StructureDefinition/Condition-uv-ips"/>
            </meta>
            <text>
               <status value="generated"/>
               <div xmlns="http://www.w3.org/1999/xhtml">
                  <table class="hl7__ips">
                     <tr>
                        <td>
                           <span class="grayedout">Viral sinusitis</span>
                        </td>
                        <td>
                           <span class="nb">26-Jul-2023 - 04-Aug-2023</span>
                        </td>
                        <td>
                           <span class="grayedout">inactive</span>
                        </td>
                     </tr>
                  </table>
               </div>
            </text>
            <category>
               <coding>
                  <system value="http://terminology.hl7.org/CodeSystem/condition-category"/>
                  <code value="problem-list-item"/>
                  <display value="Problem List Item"/>
               </coding>
            </category>
            <code>
               <coding>
                  <system value="http://snomed.info/sct"/>
                  <code value="444814009"/>
                  <display value="Viral sinusitis (disorder)"/>
               </coding>
               <text value="Viral sinusitis"/>
            </code>
            <subject>
               <reference value="urn:uuid:"/>
               <display value="Jason Forster"/>
            </subject>
            <onsetDateTime value="2023-07-26"/>
            <abatementDateTime value="2023-08-04"/>
            <asserter>
               <reference value="urn:uuid:"/>
               <display value="Cornbrook Medical Practice"/>
            </asserter>
         </Condition>
      </resource>
   </entry>
   <entry>
      <fullUrl value="urn:uuid:53f93736-320f-43fc-8c45-6bc096913d21"/>
      <resource>
         <Condition>
            <id value="53f93736-320f-43fc-8c45-6bc096913d21"/>
            <meta>
               <profile value="http://hl7.org/fhir/uv/ips/StructureDefinition/Condition-uv-ips"/>
            </meta>
            <text>
               <status value="generated"/>
               <div xmlns="http://www.w3.org/1999/xhtml">
                  <table class="hl7__ips">
                     <tr>
                        <td>
                           <span class="grayedout">Viral sinusitis</span>
                        </td>
                        <td>
                           <span class="nb">03-Sep-2017 - 19-Sep-2017</span>
                        </td>
                        <td>
                           <span class="grayedout">inactive</span>
                        </td>
                     </tr>
                  </table>
               </div>
            </text>
            <category>
               <coding>
                  <system value="http://terminology.hl7.org/CodeSystem/condition-category"/>
                  <code value="problem-list-item"/>
                  <display value="Problem List Item"/>
               </coding>
            </category>
            <code>
               <coding>
                  <system value="http://snomed.info/sct"/>
                  <code value="444814009"/>
                  <display value="Viral sinusitis (disorder)"/>
               </coding>
               <text value="Viral sinusitis"/>
            </code>
            <subject>
               <reference value="urn:uuid:"/>
               <display value="Jason Forster"/>
            </subject>
            <onsetDateTime value="2017-09-03"/>
            <abatementDateTime value="2017-09-19"/>
            <asserter>
               <reference value="urn:uuid:"/>
               <display value="Cornbrook Medical Practice"/>
            </asserter>
         </Condition>
      </resource>
   </entry>
   <entry>
      <fullUrl value="urn:uuid:73420b94-3999-415e-a19d-13e54d0407cc"/>
      <resource>
         <MedicationStatement>
            <id value="73420b94-3999-415e-a19d-13e54d0407cc"/>
            <meta>
               <profile value="http://hl7.eu/fhir/eps/StructureDefinition/MedicationStatement-eu-eps"/>
            </meta>
            <status value="active"/>
            <medicationCodeableConcept>
               <coding>
                  <system value="http://snomed.info/sct"/>
                  <code value="787481004"/>
                  <display value="No known medications (situation)"/>
               </coding>
            </medicationCodeableConcept>
            <subject>
               <reference value="urn:uuid:e1536245-1787-4b36-9c73-45f3fc341766"/>
               <display value="Jason Forster"/>
            </subject>
            <effectivePeriod>
               <extension url="http://hl7.org/fhir/StructureDefinition/data-absent-reason">
                  <valueCode value="unknown"/>
               </extension>
            </effectivePeriod>
         </MedicationStatement>
      </resource>
   </entry>
   <entry>
      <fullUrl value="urn:uuid:73420b94-3999-415e-a19d-13e54d0407cc"/>
      <resource>
         <MedicationStatement>
            <id value="73420b94-3999-415e-a19d-13e54d0407cc"/>
            <meta>
               <profile value="http://hl7.eu/fhir/eps/StructureDefinition/MedicationStatement-eu-eps"/>
            </meta>
            <status value="active"/>
            <medicationCodeableConcept>
               <coding>
                  <system value="http://snomed.info/sct"/>
                  <code value="787481004"/>
                  <display value="No known medications (situation)"/>
               </coding>
            </medicationCodeableConcept>
            <subject>
               <reference value="urn:uuid:e1536245-1787-4b36-9c73-45f3fc341766"/>
               <display value="Jason Forster"/>
            </subject>
            <effectivePeriod>
               <extension url="http://hl7.org/fhir/StructureDefinition/data-absent-reason">
                  <valueCode value="unknown"/>
               </extension>
            </effectivePeriod>
         </MedicationStatement>
      </resource>
   </entry>
   <entry>
      <fullUrl value="urn:uuid:f9339e6f-6f36-49ec-8d8c-61765f9f369b"/>
      <resource>
         <Immunization>
            <id value="f9339e6f-6f36-49ec-8d8c-61765f9f369b"/>
            <meta>
               <profile value="http://hl7.org/fhir/uv/ips/StructureDefinition/Immunization-uv-ips"/>
            </meta>
            <text>
               <status value="generated"/>
               <div xmlns="http://www.w3.org/1999/xhtml">
                  <table class="hl7__ips">
                     <tr>
                        <td>Influenza virus antigen only vaccine product</td>
                        <td>
                           <span class="nb">21-Jan-2024</span>
                        </td>
                     </tr>
                  </table>
               </div>
            </text>
            <status value="completed"/>
            <vaccineCode>
               <coding>
                  <system value="http://snomed.info/sct"/>
                  <code value="1181000221105"/>
                  <display value="Vaccine product containing Influenza virus antigen"/>
               </coding>
               <coding>
                  <system value="http://www.whocc.no/atc"/>
                  <code value="J07BB02"/>
                  <display value="Influenza, inactivated, split virus"/>
               </coding>
               <text value="Influenza virus antigen only vaccine product"/>
            </vaccineCode>
            <patient>
               <reference value="urn:uuid:e1536245-1787-4b36-9c73-45f3fc341766"/>
               <display value="Jason Forster"/>
            </patient>
            <occurrenceDateTime value="2024-01-21"/>
            <lotNumber value="ZV-IfImyJC"/>
            <expirationDate value="2024-05-05"/>
            <site>
               <coding>
                  <system value="http://snomed.info/sct"/>
                  <code value="244979005"/>
                  <display value="Entire muscle of upper arm"/>
               </coding>
               <text value="Entire muscle of upper arm"/>
            </site>
            <route>
               <coding>
                  <system value="http://snomed.info/sct"/>
                  <code value="78421000"/>
                  <display value="Intramuscular route"/>
               </coding>
               <text value="Intramuscular route"/>
            </route>
         </Immunization>
      </resource>
   </entry>
   <entry>
      <fullUrl value="urn:uuid:943e9dbc-0d4f-41df-b05a-8ddf37cd53b1"/>
      <resource>
         <Immunization>
            <id value="943e9dbc-0d4f-41df-b05a-8ddf37cd53b1"/>
            <meta>
               <profile value="http://hl7.org/fhir/uv/ips/StructureDefinition/Immunization-uv-ips"/>
            </meta>
            <text>
               <status value="generated"/>
               <div xmlns="http://www.w3.org/1999/xhtml">
                  <table class="hl7__ips">
                     <tr>
                        <td>Hepatitis A virus antigen only vaccine product</td>
                        <td>
                           <span class="nb">16-Jan-2022</span>
                        </td>
                     </tr>
                  </table>
               </div>
            </text>
            <status value="completed"/>
            <vaccineCode>
               <coding>
                  <system value="http://snomed.info/sct"/>
                  <code value="871751006"/>
                  <display value="Vaccine product containing Hepatitis A virus antigen"/>
               </coding>
               <coding>
                  <system value="http://www.whocc.no/atc"/>
                  <code value="J07BC02"/>
                  <display value="Hepatitis A vaccines"/>
               </coding>
               <text value="Hepatitis A virus antigen only vaccine product"/>
            </vaccineCode>
            <patient>
               <reference value="urn:uuid:e1536245-1787-4b36-9c73-45f3fc341766"/>
               <display value="Jason Forster"/>
            </patient>
            <occurrenceDateTime value="2022-01-16"/>
            <lotNumber value="PO-MUDCxUR"/>
            <expirationDate value="2022-10-17"/>
            <site>
               <coding>
                  <system value="http://snomed.info/sct"/>
                  <code value="244979005"/>
                  <display value="Entire muscle of upper arm"/>
               </coding>
               <text value="Entire muscle of upper arm"/>
            </site>
            <route>
               <coding>
                  <system value="http://snomed.info/sct"/>
                  <code value="78421000"/>
                  <display value="Intramuscular route"/>
               </coding>
               <text value="Intramuscular route"/>
            </route>
         </Immunization>
      </resource>
   </entry>
   <entry>
      <fullUrl value="urn:uuid:6f44f392-917b-4438-bdb7-b81083f5230f"/>
      <resource>
         <Immunization>
            <id value="6f44f392-917b-4438-bdb7-b81083f5230f"/>
            <meta>
               <profile value="http://hl7.org/fhir/uv/ips/StructureDefinition/Immunization-uv-ips"/>
            </meta>
            <text>
               <status value="generated"/>
               <div xmlns="http://www.w3.org/1999/xhtml">
                  <table class="hl7__ips">
                     <tr>
                        <td>Clostridium tetani toxoid antigen adsorbed only vaccine product</td>
                        <td>
                           <span class="nb">16-Jan-2022</span>
                        </td>
                     </tr>
                  </table>
               </div>
            </text>
            <status value="completed"/>
            <vaccineCode>
               <coding>
                  <system value="http://snomed.info/sct"/>
                  <code value="777725002"/>
                  <display value="Vaccine product containing only Clostridium tetani toxoid antigen adsorbed"/>
               </coding>
               <coding>
                  <system value="http://www.whocc.no/atc"/>
                  <code value="J07AM51"/>
                  <display value="Diphtheria-tetanus vaccines, adult type"/>
               </coding>
               <text value="Clostridium tetani toxoid antigen adsorbed only vaccine product"/>
            </vaccineCode>
            <patient>
               <reference value="urn:uuid:e1536245-1787-4b36-9c73-45f3fc341766"/>
               <display value="Jason Forster"/>
            </patient>
            <occurrenceDateTime value="2022-01-16"/>
            <lotNumber value="WF-hx105g"/>
            <expirationDate value="2022-12-05"/>
            <site>
               <coding>
                  <system value="http://snomed.info/sct"/>
                  <code value="244979005"/>
                  <display value="Entire muscle of upper arm"/>
               </coding>
               <text value="Entire muscle of upper arm"/>
            </site>
            <route>
               <coding>
                  <system value="http://snomed.info/sct"/>
                  <code value="78421000"/>
                  <display value="Intramuscular route"/>
               </coding>
               <text value="Intramuscular route"/>
            </route>
         </Immunization>
      </resource>
   </entry>
   <entry>
      <fullUrl value="urn:uuid:ed538de2-ea60-4cbe-a3d9-4f1233063b39"/>
      <resource>
         <Immunization>
            <id value="ed538de2-ea60-4cbe-a3d9-4f1233063b39"/>
            <meta>
               <profile value="http://hl7.org/fhir/uv/ips/StructureDefinition/Immunization-uv-ips"/>
            </meta>
            <text>
               <status value="generated"/>
               <div xmlns="http://www.w3.org/1999/xhtml">
                  <table class="hl7__ips">
                     <tr>
                        <td>SARS-CoV-2 mRNA vaccine</td>
                        <td>
                           <span class="nb">02-May-2021</span>
                        </td>
                     </tr>
                  </table>
               </div>
            </text>
            <status value="completed"/>
            <vaccineCode>
               <coding>
                  <system value="http://snomed.info/sct"/>
                  <code value="1119349007"/>
                  <display value="Vaccine product containing SARS-CoV-2 mRNA"/>
               </coding>
               <coding>
                  <system value="http://www.whocc.no/atc"/>
                  <code value="J07BX03"/>
                  <display value="COVID-19 mRNA vaccines"/>
               </coding>
               <text value="SARS-CoV-2 mRNA vaccine"/>
            </vaccineCode>
            <patient>
               <reference value="urn:uuid:e1536245-1787-4b36-9c73-45f3fc341766"/>
               <display value="Jason Forster"/>
            </patient>
            <occurrenceDateTime value="2021-05-02"/>
            <lotNumber value="PN-VEn0ku"/>
            <expirationDate value="2021-07-27"/>
            <site>
               <coding>
                  <system value="http://snomed.info/sct"/>
                  <code value="244979005"/>
                  <display value="Entire muscle of upper arm"/>
               </coding>
               <text value="Entire muscle of upper arm"/>
            </site>
            <route>
               <coding>
                  <system value="http://snomed.info/sct"/>
                  <code value="78421000"/>
                  <display value="Intramuscular route"/>
               </coding>
               <text value="Intramuscular route"/>
            </route>
         </Immunization>
      </resource>
   </entry>
   <entry>
      <fullUrl value="urn:uuid:bc95678a-71fc-4f08-b2b7-6fafbc4532f0"/>
      <resource>
         <AllergyIntolerance>
            <id value="bc95678a-71fc-4f08-b2b7-6fafbc4532f0"/>
            <meta>
               <profile value="http://hl7.eu/fhir/eps/StructureDefinition/allergyIntolerance-eu-eps"/>
            </meta>
            <text>
               <status value="generated"/>
               <div xmlns="http://www.w3.org/1999/xhtml">
                  <table class="hl7__ips">
                     <tr>
                        <th>Allergy/Intolerance</th>
                        <th>Onset Date</th>
                        <th>Status</th>
                        <th>Type</th>
                        <th>Reaction</th>
                     </tr>
                     <tr>
                        <td>Vaccine product containing SARS-CoV-2 mRNA</td>
                        <td>?</td>
                        <td>active</td>
                        <td>?</td>
                        <td/>
                     </tr>
                  </table>
               </div>
            </text>
            <clinicalStatus>
               <coding>
                  <system value="http://terminology.hl7.org/CodeSystem/allergyintolerance-clinical"/>
                  <code value="active"/>
               </coding>
            </clinicalStatus>
            <verificationStatus>
               <coding>
                  <system value="http://terminology.hl7.org/CodeSystem/allergyintolerance-verification"/>
                  <code value="confirmed"/>
               </coding>
            </verificationStatus>
            <code>
               <coding>
                  <system value="http://snomed.info/sct"/>
                  <code value="1119349007"/>
                  <display value="Vaccine product containing SARS-CoV-2 mRNA"/>
               </coding>
               <text value="Vaccine product containing SARS-CoV-2 mRNA"/>
            </code>
            <patient>
               <reference value="urn:uuid:e1536245-1787-4b36-9c73-45f3fc341766"/>
               <display value="Jason Forster"/>
            </patient>
            <onsetDateTime>
               <extension url="http://hl7.org/fhir/StructureDefinition/data-absent-reason">
                  <valueCode value="unknown"/>
               </extension>
            </onsetDateTime>
         </AllergyIntolerance>
      </resource>
   </entry>
   <entry>
      <fullUrl value="urn:uuid:04e0fd31-4d1d-4192-87b5-ef26165afe3c"/>
      <resource>
         <CarePlan>
            <id value="04e0fd31-4d1d-4192-87b5-ef26165afe3c"/>
            <text>
               <status value="generated"/>
               <div xmlns="http://www.w3.org/1999/xhtml">
                  <table class="hl7__ips first25">
                     <tr>
                        <th>Active Planned Care / Goals</th>
                        <th>Start Date</th>
                        <th>Reason</th>
                     </tr>
                     <tr>
                        <td>Diabetes self management plan</td>
                        <td>
                           <span class="nb">21-Jan-2024</span>
                        </td>
                        <td>Prediabetes</td>
                     </tr>
                     <tr>
                        <td>
                           <ul>
                              <li>Patient will implement lifestyle modifications to maintain fasting plasma glucose within target range.</li>
                           </ul>
                        </td>
                        <td/>
                        <td/>
                     </tr>
                  </table>
               </div>
            </text>
            <status value="active"/>
            <intent value="plan"/>
            <category>
               <coding>
                  <system value="http://terminology.hl7.org/CodeSystem/care-plan-category"/>
                  <code value="assess-plan"/>
                  <display value="Assessment and Plan"/>
               </coding>
            </category>
            <subject>
               <reference value="urn:uuid:e1536245-1787-4b36-9c73-45f3fc341766"/>
               <display value="Jason Forster"/>
            </subject>
            <period>
               <start value="2024-01-21"/>
            </period>
            <goal>
               <reference value="urn:uuid:33d73192-246b-4f32-8a39-950d9fb221d0"/>
            </goal>
            <activity>
               <detail>
                  <kind value="Appointment"/>
                  <code>
                     <coding>
                        <system value="http://snomed.info/sct"/>
                        <code value="698360004"/>
                        <display value="Diabetes self management plan (qualifier value)"/>
                     </coding>
                  </code>
                  <reasonCode>
                     <coding>
                        <system value="http://snomed.info/sct"/>
                        <code value="15777000"/>
                        <display value="Prediabetes"/>
                     </coding>
                  </reasonCode>
                  <status value="unknown"/>
                  <description value="Diabetes self management plan"/>
               </detail>
            </activity>
         </CarePlan>
      </resource>
   </entry>
   <entry>
      <fullUrl value="urn:uuid:7553bdb4-206e-426e-a428-0f77861e9da5"/>
      <resource>
         <CarePlan>
            <id value="7553bdb4-206e-426e-a428-0f77861e9da5"/>
            <text>
               <status value="generated"/>
               <div xmlns="http://www.w3.org/1999/xhtml">
                  <table class="hl7__ips first25">
                     <tr>
                        <th>Active Planned Care / Goals</th>
                        <th>Start Date</th>
                        <th>Reason</th>
                     </tr>
                     <tr>
                        <td>Musculoskeletal care</td>
                        <td>
                           <span class="nb">07-Jul-2017</span>
                        </td>
                        <td>Osteoarthritis of knee</td>
                     </tr>
                     <tr>
                        <td>
                           <ul>
                              <li>Reduce knee pain severity to a tolerable level to improve function and quality of life</li>
                              <li>Increase ability to perform daily activities such as walking and climbing stairs</li>
                              <li>Complete prescribed knee strengthening and flexibility exercises as recommended</li>
                           </ul>
                        </td>
                        <td/>
                        <td/>
                     </tr>
                  </table>
               </div>
            </text>
            <status value="active"/>
            <intent value="plan"/>
            <category>
               <coding>
                  <system value="http://terminology.hl7.org/CodeSystem/care-plan-category"/>
                  <code value="assess-plan"/>
                  <display value="Assessment and Plan"/>
               </coding>
            </category>
            <subject>
               <reference value="urn:uuid:e1536245-1787-4b36-9c73-45f3fc341766"/>
               <display value="Jason Forster"/>
            </subject>
            <period>
               <start value="2017-07-07"/>
            </period>
            <goal>
               <reference value="urn:uuid:f50633bb-39da-4892-98a8-ed13354a30c0"/>
            </goal>
            <goal>
               <reference value="urn:uuid:3abd36d5-628b-4ae7-9e20-7ea4948129c8"/>
            </goal>
            <goal>
               <reference value="urn:uuid:d3655613-3605-4af9-b0a6-6f6a13af0382"/>
            </goal>
            <activity>
               <detail>
                  <kind value="Appointment"/>
                  <code>
                     <coding>
                        <system value="http://snomed.info/sct"/>
                        <code value="408869004"/>
                        <display value="Musculoskeletal care (regime/therapy)"/>
                     </coding>
                  </code>
                  <reasonCode>
                     <coding>
                        <system value="http://snomed.info/sct"/>
                        <code value="239873007"/>
                        <display value="Osteoarthritis of knee"/>
                     </coding>
                  </reasonCode>
                  <status value="unknown"/>
                  <description value="Musculoskeletal care"/>
               </detail>
            </activity>
         </CarePlan>
      </resource>
   </entry>
   <entry>
      <fullUrl value="urn:uuid:d75b0f28-265e-4a1c-9cc3-e430c45c6eb1"/>
      <resource>
         <Observation>
            <id value="d75b0f28-265e-4a1c-9cc3-e430c45c6eb1"/>
            <meta>
               <profile value="http://hl7.org/fhir/StructureDefinition/vitalsigns"/>
            </meta>
            <text>
               <status value="generated"/>
               <div xmlns="http://www.w3.org/1999/xhtml">
                  <table class="hl7__ips">
                     <tr>
                        <th>Vital Sign</th>
                        <th>Date</th>
                        <th>Measurement</th>
                     </tr>
                     <tr>
                        <td>Body Height</td>
                        <td>21-Jan-2024</td>
                        <td>176.3 cm</td>
                     </tr>
                  </table>
               </div>
            </text>
            <status value="final"/>
            <category>
               <coding>
                  <system value="http://terminology.hl7.org/CodeSystem/observation-category"/>
                  <code value="vital-signs"/>
                  <display value="Vital Signs"/>
               </coding>
            </category>
            <code>
               <coding>
                  <system value="http://loinc.org"/>
                  <code value="$8302-2"/>
                  <display value="Body Height"/>
               </coding>
            </code>
            <subject>
               <reference value="urn:uuid:e1536245-1787-4b36-9c73-45f3fc341766"/>
               <display value="Jason Forster"/>
            </subject>
            <effectiveDateTime value="2024-01-21"/>
            <valueQuantity>
               <value value="176.3"/>
               <unit value="cm"/>
               <code value="cm"/>
            </valueQuantity>
         </Observation>
      </resource>
   </entry>
   <entry>
      <fullUrl value="urn:uuid:f76ae342-7096-4aee-9d7a-a0cf100e45fc"/>
      <resource>
         <Observation>
            <id value="f76ae342-7096-4aee-9d7a-a0cf100e45fc"/>
            <meta>
               <profile value="http://hl7.org/fhir/StructureDefinition/vitalsigns"/>
            </meta>
            <text>
               <status value="generated"/>
               <div xmlns="http://www.w3.org/1999/xhtml">
                  <table class="hl7__ips">
                     <tr>
                        <th>Vital Sign</th>
                        <th>Date</th>
                        <th>Measurement</th>
                     </tr>
                     <tr>
                        <td>Pain severity - 0-10 verbal numeric rating [Score] - Reported</td>
                        <td>21-Jan-2024</td>
                        <td>4 {score}</td>
                     </tr>
                  </table>
               </div>
            </text>
            <status value="final"/>
            <category>
               <coding>
                  <system value="http://terminology.hl7.org/CodeSystem/observation-category"/>
                  <code value="vital-signs"/>
                  <display value="Vital Signs"/>
               </coding>
            </category>
            <code>
               <coding>
                  <system value="http://loinc.org"/>
                  <code value="$72514-3"/>
                  <display value="Pain severity - 0-10 verbal numeric rating [Score] - Reported"/>
               </coding>
            </code>
            <subject>
               <reference value="urn:uuid:e1536245-1787-4b36-9c73-45f3fc341766"/>
               <display value="Jason Forster"/>
            </subject>
            <effectiveDateTime value="2024-01-21"/>
            <valueQuantity>
               <value value="4"/>
               <unit value="{score}"/>
               <code value="{score}"/>
            </valueQuantity>
         </Observation>
      </resource>
   </entry>
   <entry>
      <fullUrl value="urn:uuid:db60d449-2516-48ab-95dd-028287b47279"/>
      <resource>
         <Observation>
            <id value="db60d449-2516-48ab-95dd-028287b47279"/>
            <meta>
               <profile value="http://hl7.org/fhir/StructureDefinition/vitalsigns"/>
            </meta>
            <text>
               <status value="generated"/>
               <div xmlns="http://www.w3.org/1999/xhtml">
                  <table class="hl7__ips">
                     <tr>
                        <th>Vital Sign</th>
                        <th>Date</th>
                        <th>Measurement</th>
                     </tr>
                     <tr>
                        <td>Body Weight</td>
                        <td>21-Jan-2024</td>
                        <td>85.8 kg</td>
                     </tr>
                  </table>
               </div>
            </text>
            <status value="final"/>
            <category>
               <coding>
                  <system value="http://terminology.hl7.org/CodeSystem/observation-category"/>
                  <code value="vital-signs"/>
                  <display value="Vital Signs"/>
               </coding>
            </category>
            <code>
               <coding>
                  <system value="http://loinc.org"/>
                  <code value="$29463-7"/>
                  <display value="Body Weight"/>
               </coding>
            </code>
            <subject>
               <reference value="urn:uuid:e1536245-1787-4b36-9c73-45f3fc341766"/>
               <display value="Jason Forster"/>
            </subject>
            <effectiveDateTime value="2024-01-21"/>
            <valueQuantity>
               <value value="85.8"/>
               <unit value="kg"/>
               <code value="kg"/>
            </valueQuantity>
         </Observation>
      </resource>
   </entry>
   <entry>
      <fullUrl value="urn:uuid:bd6a2dbc-2141-4020-b37b-a99ca486bbfe"/>
      <resource>
         <Observation>
            <id value="bd6a2dbc-2141-4020-b37b-a99ca486bbfe"/>
            <meta>
               <profile value="http://hl7.org/fhir/StructureDefinition/vitalsigns"/>
            </meta>
            <text>
               <status value="generated"/>
               <div xmlns="http://www.w3.org/1999/xhtml">
                  <table class="hl7__ips">
                     <tr>
                        <th>Vital Sign</th>
                        <th>Date</th>
                        <th>Measurement</th>
                     </tr>
                     <tr>
                        <td>Body mass index (BMI) [Ratio]</td>
                        <td>21-Jan-2024</td>
                        <td>27.6 kg/m2</td>
                     </tr>
                  </table>
               </div>
            </text>
            <status value="final"/>
            <category>
               <coding>
                  <system value="http://terminology.hl7.org/CodeSystem/observation-category"/>
                  <code value="vital-signs"/>
                  <display value="Vital Signs"/>
               </coding>
            </category>
            <code>
               <coding>
                  <system value="http://loinc.org"/>
                  <code value="$39156-5"/>
                  <display value="Body mass index (BMI) [Ratio]"/>
               </coding>
            </code>
            <subject>
               <reference value="urn:uuid:e1536245-1787-4b36-9c73-45f3fc341766"/>
               <display value="Jason Forster"/>
            </subject>
            <effectiveDateTime value="2024-01-21"/>
            <valueQuantity>
               <value value="27.6"/>
               <unit value="kg/m2"/>
               <code value="kg/m2"/>
            </valueQuantity>
         </Observation>
      </resource>
   </entry>
   <entry>
      <fullUrl value="urn:uuid:e822258a-a321-4dbd-82fd-87675791dd91"/>
      <resource>
         <Observation>
            <id value="e822258a-a321-4dbd-82fd-87675791dd91"/>
            <meta>
               <profile value="http://hl7.org/fhir/StructureDefinition/vitalsigns"/>
            </meta>
            <text>
               <status value="generated"/>
               <div xmlns="http://www.w3.org/1999/xhtml">
                  <table class="hl7__ips">
                     <tr>
                        <th>Vital Sign</th>
                        <th>Date</th>
                        <th>Measurement</th>
                     </tr>
                     <tr>
                        <td>Diastolic Blood Pressure</td>
                        <td>21-Jan-2024</td>
                        <td>90 mm[Hg]</td>
                     </tr>
                  </table>
               </div>
            </text>
            <status value="final"/>
            <category>
               <coding>
                  <system value="http://terminology.hl7.org/CodeSystem/observation-category"/>
                  <code value="vital-signs"/>
                  <display value="Vital Signs"/>
               </coding>
            </category>
            <code>
               <coding>
                  <system value="http://loinc.org"/>
                  <code value="$8462-4"/>
                  <display value="Diastolic Blood Pressure"/>
               </coding>
            </code>
            <subject>
               <reference value="urn:uuid:e1536245-1787-4b36-9c73-45f3fc341766"/>
               <display value="Jason Forster"/>
            </subject>
            <effectiveDateTime value="2024-01-21"/>
            <valueQuantity>
               <value value="90"/>
               <unit value="mm[Hg]"/>
               <code value="mm[Hg]"/>
            </valueQuantity>
         </Observation>
      </resource>
   </entry>
   <entry>
      <fullUrl value="urn:uuid:39010a83-0fc6-4689-a131-7f920c2b2a81"/>
      <resource>
         <Observation>
            <id value="39010a83-0fc6-4689-a131-7f920c2b2a81"/>
            <meta>
               <profile value="http://hl7.org/fhir/StructureDefinition/vitalsigns"/>
            </meta>
            <text>
               <status value="generated"/>
               <div xmlns="http://www.w3.org/1999/xhtml">
                  <table class="hl7__ips">
                     <tr>
                        <th>Vital Sign</th>
                        <th>Date</th>
                        <th>Measurement</th>
                     </tr>
                     <tr>
                        <td>Systolic Blood Pressure</td>
                        <td>21-Jan-2024</td>
                        <td>125 mm[Hg]</td>
                     </tr>
                  </table>
               </div>
            </text>
            <status value="final"/>
            <category>
               <coding>
                  <system value="http://terminology.hl7.org/CodeSystem/observation-category"/>
                  <code value="vital-signs"/>
                  <display value="Vital Signs"/>
               </coding>
            </category>
            <code>
               <coding>
                  <system value="http://loinc.org"/>
                  <code value="$8480-6"/>
                  <display value="Systolic Blood Pressure"/>
               </coding>
            </code>
            <subject>
               <reference value="urn:uuid:e1536245-1787-4b36-9c73-45f3fc341766"/>
               <display value="Jason Forster"/>
            </subject>
            <effectiveDateTime value="2024-01-21"/>
            <valueQuantity>
               <value value="125"/>
               <unit value="mm[Hg]"/>
               <code value="mm[Hg]"/>
            </valueQuantity>
         </Observation>
      </resource>
   </entry>
   <entry>
      <fullUrl value="urn:uuid:dc2d003b-0700-4691-bd9d-0929f06c3140"/>
      <resource>
         <Observation>
            <id value="dc2d003b-0700-4691-bd9d-0929f06c3140"/>
            <meta>
               <profile value="http://hl7.org/fhir/StructureDefinition/vitalsigns"/>
            </meta>
            <text>
               <status value="generated"/>
               <div xmlns="http://www.w3.org/1999/xhtml">
                  <table class="hl7__ips">
                     <tr>
                        <th>Vital Sign</th>
                        <th>Date</th>
                        <th>Measurement</th>
                     </tr>
                     <tr>
                        <td>Heart rate</td>
                        <td>21-Jan-2024</td>
                        <td>96 /min</td>
                     </tr>
                  </table>
               </div>
            </text>
            <status value="final"/>
            <category>
               <coding>
                  <system value="http://terminology.hl7.org/CodeSystem/observation-category"/>
                  <code value="vital-signs"/>
                  <display value="Vital Signs"/>
               </coding>
            </category>
            <code>
               <coding>
                  <system value="http://loinc.org"/>
                  <code value="$8867-4"/>
                  <display value="Heart rate"/>
               </coding>
            </code>
            <subject>
               <reference value="urn:uuid:e1536245-1787-4b36-9c73-45f3fc341766"/>
               <display value="Jason Forster"/>
            </subject>
            <effectiveDateTime value="2024-01-21"/>
            <valueQuantity>
               <value value="96"/>
               <unit value="/min"/>
               <code value="/min"/>
            </valueQuantity>
         </Observation>
      </resource>
   </entry>
   <entry>
      <fullUrl value="urn:uuid:b8c55acb-910c-4c7d-ac35-95840850b81e"/>
      <resource>
         <Observation>
            <id value="b8c55acb-910c-4c7d-ac35-95840850b81e"/>
            <meta>
               <profile value="http://hl7.org/fhir/StructureDefinition/vitalsigns"/>
            </meta>
            <text>
               <status value="generated"/>
               <div xmlns="http://www.w3.org/1999/xhtml">
                  <table class="hl7__ips">
                     <tr>
                        <th>Vital Sign</th>
                        <th>Date</th>
                        <th>Measurement</th>
                     </tr>
                     <tr>
                        <td>Respiratory rate</td>
                        <td>21-Jan-2024</td>
                        <td>13 /min</td>
                     </tr>
                  </table>
               </div>
            </text>
            <status value="final"/>
            <category>
               <coding>
                  <system value="http://terminology.hl7.org/CodeSystem/observation-category"/>
                  <code value="vital-signs"/>
                  <display value="Vital Signs"/>
               </coding>
            </category>
            <code>
               <coding>
                  <system value="http://loinc.org"/>
                  <code value="$9279-1"/>
                  <display value="Respiratory rate"/>
               </coding>
            </code>
            <subject>
               <reference value="urn:uuid:e1536245-1787-4b36-9c73-45f3fc341766"/>
               <display value="Jason Forster"/>
            </subject>
            <effectiveDateTime value="2024-01-21"/>
            <valueQuantity>
               <value value="13"/>
               <unit value="/min"/>
               <code value="/min"/>
            </valueQuantity>
         </Observation>
      </resource>
   </entry>
   <entry>
      <fullUrl value="urn:uuid:805ee60e-4bde-4675-a5e5-28bb51f5c887"/>
      <resource>
         <Observation>
            <id value="805ee60e-4bde-4675-a5e5-28bb51f5c887"/>
            <meta>
               <profile value="http://hl7.org/fhir/StructureDefinition/vitalsigns"/>
            </meta>
            <text>
               <status value="generated"/>
               <div xmlns="http://www.w3.org/1999/xhtml">
                  <table class="hl7__ips">
                     <tr>
                        <th>Vital Sign</th>
                        <th>Date</th>
                        <th>Measurement</th>
                     </tr>
                     <tr>
                        <td>Body Height</td>
                        <td>16-Jan-2022</td>
                        <td>176.3 cm</td>
                     </tr>
                  </table>
               </div>
            </text>
            <status value="final"/>
            <category>
               <coding>
                  <system value="http://terminology.hl7.org/CodeSystem/observation-category"/>
                  <code value="vital-signs"/>
                  <display value="Vital Signs"/>
               </coding>
            </category>
            <code>
               <coding>
                  <system value="http://loinc.org"/>
                  <code value="$8302-2"/>
                  <display value="Body Height"/>
               </coding>
            </code>
            <subject>
               <reference value="urn:uuid:e1536245-1787-4b36-9c73-45f3fc341766"/>
               <display value="Jason Forster"/>
            </subject>
            <effectiveDateTime value="2022-01-16"/>
            <valueQuantity>
               <value value="176.3"/>
               <unit value="cm"/>
               <code value="cm"/>
            </valueQuantity>
         </Observation>
      </resource>
   </entry>
   <entry>
      <fullUrl value="urn:uuid:90a63178-52cb-4eb4-9095-49ca2654a982"/>
      <resource>
         <Observation>
            <id value="90a63178-52cb-4eb4-9095-49ca2654a982"/>
            <meta>
               <profile value="http://hl7.org/fhir/StructureDefinition/vitalsigns"/>
            </meta>
            <text>
               <status value="generated"/>
               <div xmlns="http://www.w3.org/1999/xhtml">
                  <table class="hl7__ips">
                     <tr>
                        <th>Vital Sign</th>
                        <th>Date</th>
                        <th>Measurement</th>
                     </tr>
                     <tr>
                        <td>Pain severity - 0-10 verbal numeric rating [Score] - Reported</td>
                        <td>16-Jan-2022</td>
                        <td>3 {score}</td>
                     </tr>
                  </table>
               </div>
            </text>
            <status value="final"/>
            <category>
               <coding>
                  <system value="http://terminology.hl7.org/CodeSystem/observation-category"/>
                  <code value="vital-signs"/>
                  <display value="Vital Signs"/>
               </coding>
            </category>
            <code>
               <coding>
                  <system value="http://loinc.org"/>
                  <code value="$72514-3"/>
                  <display value="Pain severity - 0-10 verbal numeric rating [Score] - Reported"/>
               </coding>
            </code>
            <subject>
               <reference value="urn:uuid:e1536245-1787-4b36-9c73-45f3fc341766"/>
               <display value="Jason Forster"/>
            </subject>
            <effectiveDateTime value="2022-01-16"/>
            <valueQuantity>
               <value value="3"/>
               <unit value="{score}"/>
               <code value="{score}"/>
            </valueQuantity>
         </Observation>
      </resource>
   </entry>
   <entry>
      <fullUrl value="urn:uuid:f40def04-10f7-4f6e-8506-3d8a4e834ce5"/>
      <resource>
         <Observation>
            <id value="f40def04-10f7-4f6e-8506-3d8a4e834ce5"/>
            <meta>
               <profile value="http://hl7.org/fhir/StructureDefinition/vitalsigns"/>
            </meta>
            <text>
               <status value="generated"/>
               <div xmlns="http://www.w3.org/1999/xhtml">
                  <table class="hl7__ips">
                     <tr>
                        <th>Vital Sign</th>
                        <th>Date</th>
                        <th>Measurement</th>
                     </tr>
                     <tr>
                        <td>Body Weight</td>
                        <td>16-Jan-2022</td>
                        <td>93.2 kg</td>
                     </tr>
                  </table>
               </div>
            </text>
            <status value="final"/>
            <category>
               <coding>
                  <system value="http://terminology.hl7.org/CodeSystem/observation-category"/>
                  <code value="vital-signs"/>
                  <display value="Vital Signs"/>
               </coding>
            </category>
            <code>
               <coding>
                  <system value="http://loinc.org"/>
                  <code value="$29463-7"/>
                  <display value="Body Weight"/>
               </coding>
            </code>
            <subject>
               <reference value="urn:uuid:e1536245-1787-4b36-9c73-45f3fc341766"/>
               <display value="Jason Forster"/>
            </subject>
            <effectiveDateTime value="2022-01-16"/>
            <valueQuantity>
               <value value="93.2"/>
               <unit value="kg"/>
               <code value="kg"/>
            </valueQuantity>
         </Observation>
      </resource>
   </entry>
   <entry>
      <fullUrl value="urn:uuid:d79bc271-af1b-477c-bd18-6ce88ba80390"/>
      <resource>
         <Observation>
            <id value="d79bc271-af1b-477c-bd18-6ce88ba80390"/>
            <meta>
               <profile value="http://hl7.org/fhir/StructureDefinition/vitalsigns"/>
            </meta>
            <text>
               <status value="generated"/>
               <div xmlns="http://www.w3.org/1999/xhtml">
                  <table class="hl7__ips">
                     <tr>
                        <th>Vital Sign</th>
                        <th>Date</th>
                        <th>Measurement</th>
                     </tr>
                     <tr>
                        <td>Body mass index (BMI) [Ratio]</td>
                        <td>16-Jan-2022</td>
                        <td>30 kg/m2</td>
                     </tr>
                  </table>
               </div>
            </text>
            <status value="final"/>
            <category>
               <coding>
                  <system value="http://terminology.hl7.org/CodeSystem/observation-category"/>
                  <code value="vital-signs"/>
                  <display value="Vital Signs"/>
               </coding>
            </category>
            <code>
               <coding>
                  <system value="http://loinc.org"/>
                  <code value="$39156-5"/>
                  <display value="Body mass index (BMI) [Ratio]"/>
               </coding>
            </code>
            <subject>
               <reference value="urn:uuid:e1536245-1787-4b36-9c73-45f3fc341766"/>
               <display value="Jason Forster"/>
            </subject>
            <effectiveDateTime value="2022-01-16"/>
            <valueQuantity>
               <value value="30"/>
               <unit value="kg/m2"/>
               <code value="kg/m2"/>
            </valueQuantity>
         </Observation>
      </resource>
   </entry>
   <entry>
      <fullUrl value="urn:uuid:5937d069-e01f-4449-af72-4b30650fa7e0"/>
      <resource>
         <Observation>
            <id value="5937d069-e01f-4449-af72-4b30650fa7e0"/>
            <meta>
               <profile value="http://hl7.org/fhir/StructureDefinition/vitalsigns"/>
            </meta>
            <text>
               <status value="generated"/>
               <div xmlns="http://www.w3.org/1999/xhtml">
                  <table class="hl7__ips">
                     <tr>
                        <th>Vital Sign</th>
                        <th>Date</th>
                        <th>Measurement</th>
                     </tr>
                     <tr>
                        <td>Diastolic Blood Pressure</td>
                        <td>16-Jan-2022</td>
                        <td>86 mm[Hg]</td>
                     </tr>
                  </table>
               </div>
            </text>
            <status value="final"/>
            <category>
               <coding>
                  <system value="http://terminology.hl7.org/CodeSystem/observation-category"/>
                  <code value="vital-signs"/>
                  <display value="Vital Signs"/>
               </coding>
            </category>
            <code>
               <coding>
                  <system value="http://loinc.org"/>
                  <code value="$8462-4"/>
                  <display value="Diastolic Blood Pressure"/>
               </coding>
            </code>
            <subject>
               <reference value="urn:uuid:e1536245-1787-4b36-9c73-45f3fc341766"/>
               <display value="Jason Forster"/>
            </subject>
            <effectiveDateTime value="2022-01-16"/>
            <valueQuantity>
               <value value="86"/>
               <unit value="mm[Hg]"/>
               <code value="mm[Hg]"/>
            </valueQuantity>
         </Observation>
      </resource>
   </entry>
   <entry>
      <fullUrl value="urn:uuid:a16d07e6-d6d3-4346-b439-575c68f324e3"/>
      <resource>
         <Observation>
            <id value="a16d07e6-d6d3-4346-b439-575c68f324e3"/>
            <meta>
               <profile value="http://hl7.org/fhir/StructureDefinition/vitalsigns"/>
            </meta>
            <text>
               <status value="generated"/>
               <div xmlns="http://www.w3.org/1999/xhtml">
                  <table class="hl7__ips">
                     <tr>
                        <th>Vital Sign</th>
                        <th>Date</th>
                        <th>Measurement</th>
                     </tr>
                     <tr>
                        <td>Systolic Blood Pressure</td>
                        <td>16-Jan-2022</td>
                        <td>123 mm[Hg]</td>
                     </tr>
                  </table>
               </div>
            </text>
            <status value="final"/>
            <category>
               <coding>
                  <system value="http://terminology.hl7.org/CodeSystem/observation-category"/>
                  <code value="vital-signs"/>
                  <display value="Vital Signs"/>
               </coding>
            </category>
            <code>
               <coding>
                  <system value="http://loinc.org"/>
                  <code value="$8480-6"/>
                  <display value="Systolic Blood Pressure"/>
               </coding>
            </code>
            <subject>
               <reference value="urn:uuid:e1536245-1787-4b36-9c73-45f3fc341766"/>
               <display value="Jason Forster"/>
            </subject>
            <effectiveDateTime value="2022-01-16"/>
            <valueQuantity>
               <value value="123"/>
               <unit value="mm[Hg]"/>
               <code value="mm[Hg]"/>
            </valueQuantity>
         </Observation>
      </resource>
   </entry>
   <entry>
      <fullUrl value="urn:uuid:6ad788e3-edf2-4956-acc4-f866ff80ab1e"/>
      <resource>
         <Observation>
            <id value="6ad788e3-edf2-4956-acc4-f866ff80ab1e"/>
            <meta>
               <profile value="http://hl7.org/fhir/StructureDefinition/vitalsigns"/>
            </meta>
            <text>
               <status value="generated"/>
               <div xmlns="http://www.w3.org/1999/xhtml">
                  <table class="hl7__ips">
                     <tr>
                        <th>Vital Sign</th>
                        <th>Date</th>
                        <th>Measurement</th>
                     </tr>
                     <tr>
                        <td>Heart rate</td>
                        <td>16-Jan-2022</td>
                        <td>79 /min</td>
                     </tr>
                  </table>
               </div>
            </text>
            <status value="final"/>
            <category>
               <coding>
                  <system value="http://terminology.hl7.org/CodeSystem/observation-category"/>
                  <code value="vital-signs"/>
                  <display value="Vital Signs"/>
               </coding>
            </category>
            <code>
               <coding>
                  <system value="http://loinc.org"/>
                  <code value="$8867-4"/>
                  <display value="Heart rate"/>
               </coding>
            </code>
            <subject>
               <reference value="urn:uuid:e1536245-1787-4b36-9c73-45f3fc341766"/>
               <display value="Jason Forster"/>
            </subject>
            <effectiveDateTime value="2022-01-16"/>
            <valueQuantity>
               <value value="79"/>
               <unit value="/min"/>
               <code value="/min"/>
            </valueQuantity>
         </Observation>
      </resource>
   </entry>
   <entry>
      <fullUrl value="urn:uuid:f8727ee4-f141-40fd-9ced-433f78d05c50"/>
      <resource>
         <Observation>
            <id value="f8727ee4-f141-40fd-9ced-433f78d05c50"/>
            <meta>
               <profile value="http://hl7.org/fhir/StructureDefinition/vitalsigns"/>
            </meta>
            <text>
               <status value="generated"/>
               <div xmlns="http://www.w3.org/1999/xhtml">
                  <table class="hl7__ips">
                     <tr>
                        <th>Vital Sign</th>
                        <th>Date</th>
                        <th>Measurement</th>
                     </tr>
                     <tr>
                        <td>Respiratory rate</td>
                        <td>16-Jan-2022</td>
                        <td>15 /min</td>
                     </tr>
                  </table>
               </div>
            </text>
            <status value="final"/>
            <category>
               <coding>
                  <system value="http://terminology.hl7.org/CodeSystem/observation-category"/>
                  <code value="vital-signs"/>
                  <display value="Vital Signs"/>
               </coding>
            </category>
            <code>
               <coding>
                  <system value="http://loinc.org"/>
                  <code value="$9279-1"/>
                  <display value="Respiratory rate"/>
               </coding>
            </code>
            <subject>
               <reference value="urn:uuid:e1536245-1787-4b36-9c73-45f3fc341766"/>
               <display value="Jason Forster"/>
            </subject>
            <effectiveDateTime value="2022-01-16"/>
            <valueQuantity>
               <value value="15"/>
               <unit value="/min"/>
               <code value="/min"/>
            </valueQuantity>
         </Observation>
      </resource>
   </entry>
   <entry>
      <fullUrl value="urn:uuid:b43687bb-56d9-4632-8a6e-4f87ea09559c"/>
      <resource>
         <Observation>
            <id value="b43687bb-56d9-4632-8a6e-4f87ea09559c"/>
            <meta>
               <profile value="http://hl7.eu/fhir/laboratory/StructureDefinition/Observation-resultslab-eu-lab"/>
            </meta>
            <text>
               <status value="generated"/>
               <div xmlns="http://www.w3.org/1999/xhtml">
                  <table class="hl7__eu__lab__report">
                     <tr>
                        <th>Test</th>
                        <th>21-Jan-2024</th>
                        <th>Reference Range</th>
                        <th>Unit</th>
                     </tr>
                     <tr>
                        <td>Hemoglobin A1c/Hemoglobin.total in Blood</td>
                        <td>6.0</td>
                        <td>4 - 6</td>
                        <td/>
                        <td>%</td>
                     </tr>
                  </table>
               </div>
            </text>
            <status value="final"/>
            <category>
               <coding>
                  <system value="http://terminology.hl7.org/CodeSystem/observation-category"/>
                  <code value="laboratory"/>
               </coding>
            </category>
            <code>
               <coding>
                  <system value="http://loinc.org"/>
                  <code value="4548-4"/>
                  <display value="Hemoglobin A1c/Hemoglobin.total in Blood"/>
               </coding>
               <text value="Hemoglobin A1c/Hemoglobin.total in Blood"/>
            </code>
            <subject>
               <reference value="urn:uuid:e1536245-1787-4b36-9c73-45f3fc341766"/>
               <display value="Jason Forster"/>
            </subject>
            <effectiveDateTime value="2024-01-21T10:37:02Z"/>
            <performer>
               <display value="The Central European Lab"/>
            </performer>
            <valueQuantity>
               <value value="6"/>
               <unit value="%"/>
               <system value="http://unitsofmeasure.org"/>
               <code value="%"/>
            </valueQuantity>
            <referenceRange>
               <low>
                  <value value="4"/>
                  <system value="http://unitsofmeasure.org"/>
                  <code value="%"/>
               </low>
            </referenceRange>
            <referenceRange>
               <high>
                  <value value="6"/>
                  <system value="http://unitsofmeasure.org"/>
                  <code value="%"/>
               </high>
            </referenceRange>
         </Observation>
      </resource>
   </entry>
   <entry>
      <fullUrl value="urn:uuid:57d58c28-0097-4d6e-b660-452570e596a3"/>
      <resource>
         <Observation>
            <id value="57d58c28-0097-4d6e-b660-452570e596a3"/>
            <meta>
               <profile value="http://hl7.eu/fhir/laboratory/StructureDefinition/Observation-resultslab-eu-lab"/>
            </meta>
            <text>
               <status value="generated"/>
               <div xmlns="http://www.w3.org/1999/xhtml">
                  <table class="hl7__eu__lab__report">
                     <tr>
                        <th>Test</th>
                        <th>21-Jan-2024</th>
                        <th>Reference Range</th>
                        <th>Unit</th>
                     </tr>
                     <tr>
                        <td>Glucose [Mass/volume] in Blood</td>
                        <td>97.3</td>
                        <td>70 - 99</td>
                        <td/>
                        <td>mg/dL</td>
                     </tr>
                  </table>
               </div>
            </text>
            <status value="final"/>
            <category>
               <coding>
                  <system value="http://terminology.hl7.org/CodeSystem/observation-category"/>
                  <code value="laboratory"/>
               </coding>
            </category>
            <code>
               <coding>
                  <system value="http://loinc.org"/>
                  <code value="2339-0"/>
                  <display value="Glucose [Mass/volume] in Blood"/>
               </coding>
               <text value="Glucose [Mass/volume] in Blood"/>
            </code>
            <subject>
               <reference value="urn:uuid:e1536245-1787-4b36-9c73-45f3fc341766"/>
               <display value="Jason Forster"/>
            </subject>
            <effectiveDateTime value="2024-01-21T10:37:02Z"/>
            <performer>
               <display value="The Central European Lab"/>
            </performer>
            <valueQuantity>
               <value value="97.3"/>
               <unit value="mg/dL"/>
               <system value="http://unitsofmeasure.org"/>
               <code value="mg/dL"/>
            </valueQuantity>
            <referenceRange>
               <low>
                  <value value="70"/>
                  <system value="http://unitsofmeasure.org"/>
                  <code value="mg/dL"/>
               </low>
            </referenceRange>
            <referenceRange>
               <high>
                  <value value="99"/>
                  <system value="http://unitsofmeasure.org"/>
                  <code value="mg/dL"/>
               </high>
            </referenceRange>
         </Observation>
      </resource>
   </entry>
   <entry>
      <fullUrl value="urn:uuid:b7768137-04be-489e-8f90-a9a891b277fc"/>
      <resource>
         <Observation>
            <id value="b7768137-04be-489e-8f90-a9a891b277fc"/>
            <meta>
               <profile value="http://hl7.eu/fhir/laboratory/StructureDefinition/Observation-resultslab-eu-lab"/>
            </meta>
            <text>
               <status value="generated"/>
               <div xmlns="http://www.w3.org/1999/xhtml">
                  <table class="hl7__eu__lab__report">
                     <tr>
                        <th>Test</th>
                        <th>21-Jan-2024</th>
                        <th>Reference Range</th>
                        <th>Unit</th>
                     </tr>
                     <tr>
                        <td>Urea nitrogen [Mass/volume] in Blood</td>
                        <td>19.2</td>
                        <td>7 - 20</td>
                        <td/>
                        <td>mg/dL</td>
                     </tr>
                  </table>
               </div>
            </text>
            <status value="final"/>
            <category>
               <coding>
                  <system value="http://terminology.hl7.org/CodeSystem/observation-category"/>
                  <code value="laboratory"/>
               </coding>
            </category>
            <code>
               <coding>
                  <system value="http://loinc.org"/>
                  <code value="6299-2"/>
                  <display value="Urea nitrogen [Mass/volume] in Blood"/>
               </coding>
               <text value="Urea nitrogen [Mass/volume] in Blood"/>
            </code>
            <subject>
               <reference value="urn:uuid:e1536245-1787-4b36-9c73-45f3fc341766"/>
               <display value="Jason Forster"/>
            </subject>
            <effectiveDateTime value="2024-01-21T10:37:02Z"/>
            <performer>
               <display value="The Central European Lab"/>
            </performer>
            <valueQuantity>
               <value value="19.2"/>
               <unit value="mg/dL"/>
               <system value="http://unitsofmeasure.org"/>
               <code value="mg/dL"/>
            </valueQuantity>
            <referenceRange>
               <low>
                  <value value="7"/>
                  <system value="http://unitsofmeasure.org"/>
                  <code value="mg/dL"/>
               </low>
            </referenceRange>
            <referenceRange>
               <high>
                  <value value="20"/>
                  <system value="http://unitsofmeasure.org"/>
                  <code value="mg/dL"/>
               </high>
            </referenceRange>
         </Observation>
      </resource>
   </entry>
   <entry>
      <fullUrl value="urn:uuid:3a266607-3679-4113-b25d-1e794b803ccd"/>
      <resource>
         <Observation>
            <id value="3a266607-3679-4113-b25d-1e794b803ccd"/>
            <meta>
               <profile value="http://hl7.eu/fhir/laboratory/StructureDefinition/Observation-resultslab-eu-lab"/>
            </meta>
            <text>
               <status value="generated"/>
               <div xmlns="http://www.w3.org/1999/xhtml">
                  <table class="hl7__eu__lab__report">
                     <tr>
                        <th>Test</th>
                        <th>21-Jan-2024</th>
                        <th>Reference Range</th>
                        <th>Unit</th>
                     </tr>
                     <tr>
                        <td>Creatinine [Mass/volume] in Blood</td>
                        <td>1.3</td>
                        <td>0.9 - 1.3</td>
                        <td/>
                        <td>mg/dL</td>
                     </tr>
                  </table>
               </div>
            </text>
            <status value="final"/>
            <category>
               <coding>
                  <system value="http://terminology.hl7.org/CodeSystem/observation-category"/>
                  <code value="laboratory"/>
               </coding>
            </category>
            <code>
               <coding>
                  <system value="http://loinc.org"/>
                  <code value="38483-4"/>
                  <display value="Creatinine [Mass/volume] in Blood"/>
               </coding>
               <text value="Creatinine [Mass/volume] in Blood"/>
            </code>
            <subject>
               <reference value="urn:uuid:e1536245-1787-4b36-9c73-45f3fc341766"/>
               <display value="Jason Forster"/>
            </subject>
            <effectiveDateTime value="2024-01-21T10:37:02Z"/>
            <performer>
               <display value="The Central European Lab"/>
            </performer>
            <valueQuantity>
               <value value="1.3"/>
               <unit value="mg/dL"/>
               <system value="http://unitsofmeasure.org"/>
               <code value="mg/dL"/>
            </valueQuantity>
            <referenceRange>
               <low>
                  <value value="0.9"/>
                  <system value="http://unitsofmeasure.org"/>
                  <code value="mg/dL"/>
               </low>
            </referenceRange>
            <referenceRange>
               <high>
                  <value value="1.3"/>
                  <system value="http://unitsofmeasure.org"/>
                  <code value="mg/dL"/>
               </high>
            </referenceRange>
         </Observation>
      </resource>
   </entry>
   <entry>
      <fullUrl value="urn:uuid:2bc27b5f-3bf4-4d5f-b9c4-33c1d85ead87"/>
      <resource>
         <Observation>
            <id value="2bc27b5f-3bf4-4d5f-b9c4-33c1d85ead87"/>
            <meta>
               <profile value="http://hl7.eu/fhir/laboratory/StructureDefinition/Observation-resultslab-eu-lab"/>
            </meta>
            <text>
               <status value="generated"/>
               <div xmlns="http://www.w3.org/1999/xhtml">
                  <table class="hl7__eu__lab__report">
                     <tr>
                        <th>Test</th>
                        <th>21-Jan-2024</th>
                        <th>Reference Range</th>
                        <th>Unit</th>
                     </tr>
                     <tr>
                        <td>Calcium [Mass/volume] in Blood</td>
                        <td>9.8</td>
                        <td>8.5 - 10.5</td>
                        <td/>
                        <td>mg/dL</td>
                     </tr>
                  </table>
               </div>
            </text>
            <status value="final"/>
            <category>
               <coding>
                  <system value="http://terminology.hl7.org/CodeSystem/observation-category"/>
                  <code value="laboratory"/>
               </coding>
            </category>
            <code>
               <coding>
                  <system value="http://loinc.org"/>
                  <code value="49765-1"/>
                  <display value="Calcium [Mass/volume] in Blood"/>
               </coding>
               <text value="Calcium [Mass/volume] in Blood"/>
            </code>
            <subject>
               <reference value="urn:uuid:e1536245-1787-4b36-9c73-45f3fc341766"/>
               <display value="Jason Forster"/>
            </subject>
            <effectiveDateTime value="2024-01-21T10:37:02Z"/>
            <performer>
               <display value="The Central European Lab"/>
            </performer>
            <valueQuantity>
               <value value="9.8"/>
               <unit value="mg/dL"/>
               <system value="http://unitsofmeasure.org"/>
               <code value="mg/dL"/>
            </valueQuantity>
            <referenceRange>
               <low>
                  <value value="8.5"/>
                  <system value="http://unitsofmeasure.org"/>
                  <code value="mg/dL"/>
               </low>
            </referenceRange>
            <referenceRange>
               <high>
                  <value value="10.5"/>
                  <system value="http://unitsofmeasure.org"/>
                  <code value="mg/dL"/>
               </high>
            </referenceRange>
         </Observation>
      </resource>
   </entry>
   <entry>
      <fullUrl value="urn:uuid:743d0839-d556-486f-bd23-8fb4df4f26b5"/>
      <resource>
         <Observation>
            <id value="743d0839-d556-486f-bd23-8fb4df4f26b5"/>
            <meta>
               <profile value="http://hl7.eu/fhir/laboratory/StructureDefinition/Observation-resultslab-eu-lab"/>
            </meta>
            <text>
               <status value="generated"/>
               <div xmlns="http://www.w3.org/1999/xhtml">
                  <table class="hl7__eu__lab__report">
                     <tr>
                        <th>Test</th>
                        <th>21-Jan-2024</th>
                        <th>Reference Range</th>
                        <th>Unit</th>
                     </tr>
                     <tr>
                        <td>Sodium [Moles/volume] in Blood</td>
                        <td>141.1</td>
                        <td>135 - 145</td>
                        <td/>
                        <td>mmol/L</td>
                     </tr>
                  </table>
               </div>
            </text>
            <status value="final"/>
            <category>
               <coding>
                  <system value="http://terminology.hl7.org/CodeSystem/observation-category"/>
                  <code value="laboratory"/>
               </coding>
            </category>
            <code>
               <coding>
                  <system value="http://loinc.org"/>
                  <code value="2947-0"/>
                  <display value="Sodium [Moles/volume] in Blood"/>
               </coding>
               <text value="Sodium [Moles/volume] in Blood"/>
            </code>
            <subject>
               <reference value="urn:uuid:e1536245-1787-4b36-9c73-45f3fc341766"/>
               <display value="Jason Forster"/>
            </subject>
            <effectiveDateTime value="2024-01-21T10:37:02Z"/>
            <performer>
               <display value="The Central European Lab"/>
            </performer>
            <valueQuantity>
               <value value="141.1"/>
               <unit value="mmol/L"/>
               <system value="http://unitsofmeasure.org"/>
               <code value="mmol/L"/>
            </valueQuantity>
            <referenceRange>
               <low>
                  <value value="135"/>
                  <system value="http://unitsofmeasure.org"/>
                  <code value="mmol/L"/>
               </low>
            </referenceRange>
            <referenceRange>
               <high>
                  <value value="145"/>
                  <system value="http://unitsofmeasure.org"/>
                  <code value="mmol/L"/>
               </high>
            </referenceRange>
         </Observation>
      </resource>
   </entry>
   <entry>
      <fullUrl value="urn:uuid:87865905-88bb-4de4-b7b9-13a2e43df269"/>
      <resource>
         <Observation>
            <id value="87865905-88bb-4de4-b7b9-13a2e43df269"/>
            <meta>
               <profile value="http://hl7.eu/fhir/laboratory/StructureDefinition/Observation-resultslab-eu-lab"/>
            </meta>
            <text>
               <status value="generated"/>
               <div xmlns="http://www.w3.org/1999/xhtml">
                  <table class="hl7__eu__lab__report">
                     <tr>
                        <th>Test</th>
                        <th>21-Jan-2024</th>
                        <th>Reference Range</th>
                        <th>Unit</th>
                     </tr>
                     <tr>
                        <td>Potassium [Moles/volume] in Blood</td>
                        <td>4.6</td>
                        <td>3.5 - 5.1</td>
                        <td/>
                        <td>mmol/L</td>
                     </tr>
                  </table>
               </div>
            </text>
            <status value="final"/>
            <category>
               <coding>
                  <system value="http://terminology.hl7.org/CodeSystem/observation-category"/>
                  <code value="laboratory"/>
               </coding>
            </category>
            <code>
               <coding>
                  <system value="http://loinc.org"/>
                  <code value="6298-4"/>
                  <display value="Potassium [Moles/volume] in Blood"/>
               </coding>
               <text value="Potassium [Moles/volume] in Blood"/>
            </code>
            <subject>
               <reference value="urn:uuid:e1536245-1787-4b36-9c73-45f3fc341766"/>
               <display value="Jason Forster"/>
            </subject>
            <effectiveDateTime value="2024-01-21T10:37:02Z"/>
            <performer>
               <display value="The Central European Lab"/>
            </performer>
            <valueQuantity>
               <value value="4.6"/>
               <unit value="mmol/L"/>
               <system value="http://unitsofmeasure.org"/>
               <code value="mmol/L"/>
            </valueQuantity>
            <referenceRange>
               <low>
                  <value value="3.5"/>
                  <system value="http://unitsofmeasure.org"/>
                  <code value="mmol/L"/>
               </low>
            </referenceRange>
            <referenceRange>
               <high>
                  <value value="5.1"/>
                  <system value="http://unitsofmeasure.org"/>
                  <code value="mmol/L"/>
               </high>
            </referenceRange>
         </Observation>
      </resource>
   </entry>
   <entry>
      <fullUrl value="urn:uuid:f8090c6a-44cf-44ff-9c6e-9d59672f5d70"/>
      <resource>
         <Observation>
            <id value="f8090c6a-44cf-44ff-9c6e-9d59672f5d70"/>
            <meta>
               <profile value="http://hl7.eu/fhir/laboratory/StructureDefinition/Observation-resultslab-eu-lab"/>
            </meta>
            <text>
               <status value="generated"/>
               <div xmlns="http://www.w3.org/1999/xhtml">
                  <table class="hl7__eu__lab__report">
                     <tr>
                        <th>Test</th>
                        <th>21-Jan-2024</th>
                        <th>Reference Range</th>
                        <th>Unit</th>
                     </tr>
                     <tr>
                        <td>Chloride [Moles/volume] in Blood</td>
                        <td>106.5</td>
                        <td>98 - 114</td>
                        <td/>
                        <td>mmol/L</td>
                     </tr>
                  </table>
               </div>
            </text>
            <status value="final"/>
            <category>
               <coding>
                  <system value="http://terminology.hl7.org/CodeSystem/observation-category"/>
                  <code value="laboratory"/>
               </coding>
            </category>
            <code>
               <coding>
                  <system value="http://loinc.org"/>
                  <code value="2069-3"/>
                  <display value="Chloride [Moles/volume] in Blood"/>
               </coding>
               <text value="Chloride [Moles/volume] in Blood"/>
            </code>
            <subject>
               <reference value="urn:uuid:e1536245-1787-4b36-9c73-45f3fc341766"/>
               <display value="Jason Forster"/>
            </subject>
            <effectiveDateTime value="2024-01-21T10:37:02Z"/>
            <performer>
               <display value="The Central European Lab"/>
            </performer>
            <valueQuantity>
               <value value="106.5"/>
               <unit value="mmol/L"/>
               <system value="http://unitsofmeasure.org"/>
               <code value="mmol/L"/>
            </valueQuantity>
            <referenceRange>
               <low>
                  <value value="98"/>
                  <system value="http://unitsofmeasure.org"/>
                  <code value="mmol/L"/>
               </low>
            </referenceRange>
            <referenceRange>
               <high>
                  <value value="114"/>
                  <system value="http://unitsofmeasure.org"/>
                  <code value="mmol/L"/>
               </high>
            </referenceRange>
         </Observation>
      </resource>
   </entry>
   <entry>
      <fullUrl value="urn:uuid:aa3df11a-be9a-469d-9d3e-737273bd1df5"/>
      <resource>
         <Observation>
            <id value="aa3df11a-be9a-469d-9d3e-737273bd1df5"/>
            <meta>
               <profile value="http://hl7.eu/fhir/laboratory/StructureDefinition/Observation-resultslab-eu-lab"/>
            </meta>
            <text>
               <status value="generated"/>
               <div xmlns="http://www.w3.org/1999/xhtml">
                  <table class="hl7__eu__lab__report">
                     <tr>
                        <th>Test</th>
                        <th>21-Jan-2024</th>
                        <th>Reference Range</th>
                        <th>Unit</th>
                     </tr>
                     <tr>
                        <td>Carbon dioxide, total [Moles/volume] in Blood</td>
                        <td>29.0</td>
                        <td>22 - 29</td>
                        <td/>
                        <td>mmol/L</td>
                     </tr>
                  </table>
               </div>
            </text>
            <status value="final"/>
            <category>
               <coding>
                  <system value="http://terminology.hl7.org/CodeSystem/observation-category"/>
                  <code value="laboratory"/>
               </coding>
            </category>
            <code>
               <coding>
                  <system value="http://loinc.org"/>
                  <code value="20565-8"/>
                  <display value="Carbon dioxide, total [Moles/volume] in Blood"/>
               </coding>
               <text value="Carbon dioxide, total [Moles/volume] in Blood"/>
            </code>
            <subject>
               <reference value="urn:uuid:e1536245-1787-4b36-9c73-45f3fc341766"/>
               <display value="Jason Forster"/>
            </subject>
            <effectiveDateTime value="2024-01-21T10:37:02Z"/>
            <performer>
               <display value="The Central European Lab"/>
            </performer>
            <valueQuantity>
               <value value="29"/>
               <unit value="mmol/L"/>
               <system value="http://unitsofmeasure.org"/>
               <code value="mmol/L"/>
            </valueQuantity>
            <referenceRange>
               <low>
                  <value value="22"/>
                  <system value="http://unitsofmeasure.org"/>
                  <code value="mmol/L"/>
               </low>
            </referenceRange>
            <referenceRange>
               <high>
                  <value value="29"/>
                  <system value="http://unitsofmeasure.org"/>
                  <code value="mmol/L"/>
               </high>
            </referenceRange>
         </Observation>
      </resource>
   </entry>
   <entry>
      <fullUrl value="urn:uuid:6a6f6809-8f40-4804-9d6b-5da9ffb52123"/>
      <resource>
         <DeviceUseStatement>
            <id value="6a6f6809-8f40-4804-9d6b-5da9ffb52123"/>
            <meta>
               <profile value="http://hl7.eu/fhir/eps/StructureDefinition/deviceUseStatement-eu-eps"/>
            </meta>
            <text>
               <status value="generated"/>
               <div xmlns="http://www.w3.org/1999/xhtml">
                  <table class="hl7__ips">
                     <tr>
                        <td>Blood glucose meter (physical object)</td>
                        <td>
                           <span class="nb">21-Jan-2024</span>
                        </td>
                     </tr>
                  </table>
               </div>
            </text>
            <status value="active"/>
            <subject>
               <reference value="urn:uuid:e1536245-1787-4b36-9c73-45f3fc341766"/>
               <display value="Jason Forster"/>
            </subject>
            <timingPeriod>
               <start value="2024-01-21"/>
            </timingPeriod>
            <device>
               <reference value="urn:uuid:d01c64da-5c36-4a41-a039-1cbde3534287"/>
               <display value="Blood glucose meter (physical object)"/>
            </device>
         </DeviceUseStatement>
      </resource>
   </entry>
   <entry>
      <fullUrl value="urn:uuid:d01c64da-5c36-4a41-a039-1cbde3534287"/>
      <resource>
         <Device>
            <id value="d01c64da-5c36-4a41-a039-1cbde3534287"/>
            <meta>
               <profile value="http://hl7.eu/fhir/eps/StructureDefinition/device-eu-eps"/>
            </meta>
            <udiCarrier id="(01)69543179663113(11)231231(17)490114(10)8808(21)391241"/>
            <status value="active"/>
            <type>
               <coding>
                  <system value="http://snomed.info/sct"/>
                  <code value="337414009"/>
                  <display value="Blood glucose meter (physical object)"/>
               </coding>
            </type>
            <patient>
               <reference value="urn:uuid:e1536245-1787-4b36-9c73-45f3fc341766"/>
               <display value="Jason Forster"/>
            </patient>
         </Device>
      </resource>
   </entry>
   <entry>
      <fullUrl value="urn:uuid:c5d824f2-4fb6-4693-9793-a620ef37df20"/>
      <resource>
         <DeviceUseStatement>
            <id value="c5d824f2-4fb6-4693-9793-a620ef37df20"/>
            <meta>
               <profile value="http://hl7.eu/fhir/eps/StructureDefinition/deviceUseStatement-eu-eps"/>
            </meta>
            <text>
               <status value="generated"/>
               <div xmlns="http://www.w3.org/1999/xhtml">
                  <table class="hl7__ips">
                     <tr>
                        <td>Walker (physical object)</td>
                        <td>
                           <span class="nb">07-Jul-2017</span>
                        </td>
                     </tr>
                  </table>
               </div>
            </text>
            <status value="active"/>
            <subject>
               <reference value="urn:uuid:e1536245-1787-4b36-9c73-45f3fc341766"/>
               <display value="Jason Forster"/>
            </subject>
            <timingPeriod>
               <start value="2017-07-07"/>
            </timingPeriod>
            <device>
               <reference value="urn:uuid:9ea29843-dba5-4658-bb97-824781c1afaf"/>
               <display value="Walker (physical object)"/>
            </device>
         </DeviceUseStatement>
      </resource>
   </entry>
   <entry>
      <fullUrl value="urn:uuid:9ea29843-dba5-4658-bb97-824781c1afaf"/>
      <resource>
         <Device>
            <id value="9ea29843-dba5-4658-bb97-824781c1afaf"/>
            <meta>
               <profile value="http://hl7.eu/fhir/eps/StructureDefinition/device-eu-eps"/>
            </meta>
            <udiCarrier id="(01)88487516537619(11)170616(17)420701(10)3346(21)40440682780"/>
            <status value="active"/>
            <type>
               <coding>
                  <system value="http://snomed.info/sct"/>
                  <code value="705406009"/>
                  <display value="Walker (physical object)"/>
               </coding>
            </type>
            <patient>
               <reference value="urn:uuid:e1536245-1787-4b36-9c73-45f3fc341766"/>
               <display value="Jason Forster"/>
            </patient>
         </Device>
      </resource>
   </entry>
   <entry>
      <fullUrl value="urn:uuid:689c9d60-884c-4f98-abc7-dff0eca2c8b4"/>
      <resource>
         <Device>
            <id value="689c9d60-884c-4f98-abc7-dff0eca2c8b4"/>
            <text>
               <status value="generated"/>
               <div xmlns="http://www.w3.org/1999/xhtml">SYNDERAI Synthetic Generator v5.0</div>
            </text>
            <status value="active&#34;"/>
            <distinctIdentifier value="synderai-generator-50"/>
            <manufacturer value="SYNDERAI Project"/>
            <deviceName>
               <name value="SYNDERAI Synthetic Generator"/>
               <type value="manufacturer-name"/>
            </deviceName>
            <version>
               <value value="5.0"/>
            </version>
         </Device>
      </resource>
   </entry>
   <entry>
      <fullUrl value="urn:uuid:bf97ec55-5ed2-498e-a938-52b13e2c06ff"/>
      <resource>
         <Provenance>
            <id value="bf97ec55-5ed2-498e-a938-52b13e2c06ff"/>
            <text>
               <status value="generated"/>
               <div xmlns="http://www.w3.org/1999/xhtml">Provenance for SYNDERAI Synthetic Example Data Resource</div>
            </text>
            <target>
               <reference value="Patient/e1536245-1787-4b36-9c73-45f3fc341766"/>
            </target>
            <target>
               <reference value="Bundle/8911b718-f190-4310-8366-e4d3a7949607"/>
            </target>
            <target>
               <reference value="Composition/d0573c36-630a-469b-91cb-e460f6f72a10"/>
            </target>
            <target>
               <reference value="PractitionerRole/eb2c2cb5-d99b-4093-982e-5bcd7c567a34"/>
            </target>
            <target>
               <reference value="Organization/1ec80b82-8ba8-4d66-9de2-41db54768b0d"/>
            </target>
            <target>
               <reference value="Practitioner/d174f8d5-6b9a-4319-9791-0a611a558d16"/>
            </target>
            <recorded value="2024-01-21T10:37:02Z"/>
            <policy value="https://synderai.net/synderai-synthetic-data-policy"/>
            <reason>
               <text value="Interoperability Testing and Training (non-clinical use)"/>
            </reason>
            <activity>
               <text value="Synthetic Example Data Generation"/>
            </activity>
            <agent>
               <type>
                  <text value="author"/>
               </type>
               <who>
                  <reference value="Device/689c9d60-884c-4f98-abc7-dff0eca2c8b4"/>
               </who>
            </agent>
         </Provenance>
      </resource>
   </entry>
</Bundle>